"Time (s)","Linear Acceleration x (m/s^2)","Linear Acceleration y (m/s^2)","Linear Acceleration z (m/s^2)","Absolute acceleration (m/s^2)"
-2.004171256E-5,3.125219822E-1,1.746048614E0,-1.422255685E0,2.273580213E0
1.000595826E-2,8.517241430E-1,1.830982345E0,-2.259192220E0,3.030161687E0
2.003295824E-2,-5.963551855E-1,1.921314957E0,-2.147996305E0,2.942954093E0
3.005995834E-2,-1.786983948E0,2.248528360E0,-1.795808566E0,3.387347018E0
4.008695832E-2,-1.218301295E0,2.251691558E0,-2.378202939E0,3.494312828E0
5.011395831E-2,5.125131297E-1,1.720938185E0,-3.169741691E0,3.643015281E0
6.013995828E-2,1.426153439E0,1.349881189E0,-2.959644216E0,3.551842725E0
7.016695826E-2,2.323265424E0,1.754384259E0,-2.444103983E0,3.801193318E0
8.019395825E-2,9.981670743E-1,1.282558687E0,-1.737304249E0,2.378974642E0
9.022095834E-2,-8.643821955E-2,6.515371138E-1,-9.432927096E-1,1.149684005E0
1.002479583E-1,-2.783543622E-1,1.547534327E-1,-8.966933244E-1,9.515716967E-1
1.102739583E-1,-7.863616276E-1,2.224733993E-1,-1.024048605E0,1.310165855E0
1.203009583E-1,-8.431696665E-1,1.952937868E-1,-8.377715170E-1,1.204547992E0
1.303279583E-1,-1.141268907E0,3.316719058E-1,-5.592873466E-1,1.313508015E0
1.403549582E-1,-8.482199067E-1,5.260374472E-1,7.423332632E-2,1.000851134E0
1.503809583E-1,-2.351948941E-1,1.494026457E-1,4.523195529E-1,5.312539568E-1
1.604079583E-1,4.362309390E-1,-1.030921715E0,9.266468561E-1,1.453193521E0
1.704349583E-1,4.272613102E-1,-2.756129829E0,1.677818770E0,3.254824064E0
1.804619583E-1,-5.391001269E-1,-3.628645209E0,2.170661282E0,4.262565589E0
1.904889583E-1,-6.361744317E-1,-2.779668673E0,3.307207977E0,4.366795214E0
2.005149582E-1,4.108575314E-2,-1.362879842E0,3.594116816E0,3.844061028E0
2.105419583E-1,3.920180950E-1,-7.745980529E-1,2.429380109E0,2.579838764E0
2.205689583E-1,5.092229015E-1,-5.188712458E-1,9.951738846E-1,1.232439205E0
2.305959583E-1,-2.600250953E-1,-6.691147211E-1,-2.806862319E-1,7.707868194E-1
2.406212083E-1,-7.676230556E-1,-2.303745957E-1,-1.301175637E0,1.528193590E0
2.506482083E-1,-2.718241918E-1,5.432966736E-1,-1.489562400E0,1.608681389E0
2.606752083E-1,-4.019399428E-1,7.000000066E-1,-1.677066234E0,1.861211132E0
2.707022083E-1,-4.122029757E-1,7.466713125E-1,-1.390989454E0,1.631649779E0
2.807292083E-1,1.489678760E0,1.256796001E0,1.557113528E-3,1.949020631E0
2.907552082E-1,1.927260405E0,-1.805096868E-1,6.541783011E-1,2.043248802E0
3.007822083E-1,1.240466043E0,-6.170041890E-1,7.988378316E-1,1.599247340E0
3.108092083E-1,5.617323598E-1,1.177328101E-1,-1.411476928E-1,5.910388564E-1
3.208362083E-1,-9.747162312E-2,-2.522927374E-2,-7.641234970E-1,7.707281961E-1
3.308622083E-1,-1.059692647E0,-5.710689014E-1,-1.045452923E0,1.594377624E0
3.408892083E-1,-2.484062393E0,-2.081145965E0,1.145770678E0,3.437226345E0
3.509162082E-1,-2.961861773E0,-2.860342415E0,3.642949837E0,5.497751123E0
3.609432083E-1,4.648530596E-1,3.877139595E-1,4.125838634E0,4.170006584E0
3.709702083E-1,1.792425367E0,4.230545309E-1,1.669789959E0,2.485953004E0
3.809962083E-1,-5.665668377E-1,-1.975620680E0,-5.635499668E-1,2.131117926E0
3.910232083E-1,5.290356070E-2,-1.883805945E0,1.309305605E0,2.294734145E0
4.010502083E-1,1.122811586E0,-1.245765959E0,8.903841788E-1,1.898795057E0
4.110772082E-1,6.291229820E-1,-4.295025480E-1,-5.980906391E-1,9.684939741E-1
4.211032083E-1,-4.997276080E-1,5.818900511E-1,-9.296318597E-1,1.205213304E0
4.311302083E-1,-1.063717870E0,1.122359011E0,-9.914609027E-1,1.836894166E0
4.411572083E-1,-3.793613581E-1,9.819717488E-1,-6.152393532E-1,1.219304317E0
4.511842083E-1,4.526557678E-1,7.842841119E-1,1.056200105E-1,9.116766965E-1
4.612112083E-1,-1.285272087E-1,9.726594731E-1,6.827296704E-1,1.195284693E0
4.712372083E-1,-6.833021128E-1,8.601391634E-1,2.347429043E-1,1.123318917E0
4.812642083E-1,-7.591887394E-1,2.171571109E-1,1.061397695E0,1.322909604E0
4.912912083E-1,-7.504633780E-1,-2.916240335E-2,1.735134348E0,1.890697472E0
5.013182083E-1,-8.230010118E-1,-5.069886804E-2,1.304486330E0,1.543238681E0
5.113452083E-1,-6.151130533E-1,-6.645477533E-2,1.074750981E0,1.240108857E0
5.213712082E-1,-4.199100445E-1,-1.574707800E-1,1.643169340E0,1.703269495E0
5.313982083E-1,-3.170209761E-1,5.110577577E-1,3.158146078E0,3.214897974E0
5.414252083E-1,-1.141064839E0,6.286476034E-1,3.509327511E0,3.743341603E0
5.514522083E-1,-1.294125356E0,6.260318515E-1,2.987610279E0,3.315492648E0
5.614782083E-1,-3.382916848E-1,8.510423577E-1,2.524020803E0,2.685031727E0
5.715052083E-1,5.867505491E-1,6.701555255E-1,2.393392251E0,2.553764105E0
5.815322082E-1,3.848293819E-1,-1.061474293E-2,2.754057283E0,2.780834020E0
5.915592082E-1,5.000714242E-2,-3.898014155E-1,3.011033641E0,3.036571989E0
6.015862083E-1,-6.226686792E-1,-7.684562838E-1,2.307033554E0,2.510108596E0
6.116122083E-1,-7.316299349E-1,-7.516774061E-1,1.933640887E0,2.199833713E0
6.216392083E-1,-8.834426567E-2,-4.717486811E-1,2.303806475E0,2.353269174E0
6.316662083E-1,4.942281555E-1,1.527263492E-1,2.788756415E0,2.836326700E0
6.416932083E-1,4.949356686E-1,6.862836081E-1,2.898733771E0,3.019702631E0
6.517192083E-1,8.726994943E-2,9.386690238E-1,2.851307589E0,3.003110146E0
6.617462083E-1,-6.456327416E-1,9.898660746E-1,2.829126762E0,3.066045452E0
6.717732083E-1,-9.994227639E-1,8.264168090E-1,2.642293019E0,2.943386315E0
6.818002083E-1,-1.113153155E0,2.479020631E-1,1.822825041E0,2.150175925E0
6.918272083E-1,-2.350319906E0,-1.019978358E0,5.401938486E-1,2.618428710E0
7.018532082E-1,-2.526410852E0,-1.848168774E0,-9.034328252E-1,3.258016341E0
7.118802083E-1,-1.575292376E0,-1.464450363E0,-1.244102719E0,2.484743952E0
7.219072083E-1,-9.231531447E-1,-1.194221584E0,-6.191657585E-1,1.631484954E0
7.319342083E-1,-6.174286969E-1,-6.438262443E-1,-3.524760067E-1,9.591505429E-1
7.419602083E-1,-8.687529892E-2,-2.138605969E-1,3.099024296E-2,2.329035586E-1
7.519872083E-1,3.790223658E-1,1.890445751E-1,6.565604568E-2,4.286099876E-1
7.620142082E-1,1.079213284E-1,5.647131242E-1,-2.616055977E-1,6.316529225E-1
7.720412083E-1,-3.356328097E-1,6.774456147E-1,-6.402894098E-1,9.907333002E-1
7.820682083E-1,-1.273477961E0,3.217420911E-1,-7.521583396E-1,1.513607035E0
7.920942083E-1,-1.654402426E0,-3.175438634E-1,-8.719145787E-1,1.896870192E0
8.021212083E-1,-1.308201943E0,-8.576680570E-1,-1.046746911E0,1.882197098E0
8.121482083E-1,-1.220254850E0,-1.441149355E0,-1.230084604E0,2.253672890E0
8.221752082E-1,-3.700258398E-1,-1.432322252E0,-8.852456456E-1,1.723985501E0
8.322022083E-1,-7.714173138E-2,-8.300082419E-1,-5.630324882E-1,1.005917547E0
8.422282083E-1,-4.460487065E-1,-1.550131222E-1,-4.055032361E-1,6.224318365E-1
8.522552083E-1,-6.437275726E-1,9.361665617E-1,-3.544137740E-1,1.190126944E0
8.622822083E-1,-5.149420631E-1,1.540792195E0,1.469259113E-1,1.631193778E0
8.723092083E-1,-7.296883669E-1,1.650873339E0,6.466786623E-1,1.917295279E0
8.823352082E-1,-1.262294576E0,1.619789833E0,2.242459828E-1,2.065766918E0
8.923622083E-1,-2.062416456E0,1.398016199E0,-7.395640218E-1,2.599031719E0
9.023892083E-1,-1.903663967E0,1.607195807E0,-7.988577121E-1,2.616331115E0
9.124162083E-1,-1.573738039E0,1.944437186E0,-2.748091954E-1,2.516546737E0
9.224432083E-1,-1.826304426E0,1.794578896E0,-3.434677863E-1,2.583383710E0
9.324692083E-1,-1.962685761E0,1.477807450E0,-8.733027077E-1,2.607433197E0
9.424962082E-1,-1.624474037E0,1.064614102E0,-1.102298384E0,2.233244458E0
9.525232083E-1,-1.330740913E0,1.305062281E0,-1.435832335E0,2.352801188E0
9.625502083E-1,-1.083037948E0,1.778839215E0,-1.717068790E0,2.699178649E0
9.725762083E-1,-8.209540477E-1,1.822882636E0,-1.578246535E0,2.547102035E0
9.826032083E-1,-5.036952361E-1,1.260656479E0,-1.544810987E0,2.056551636E0
9.926302083E-1,-4.192579338E-1,5.046870701E-1,-1.866345282E0,1.978315184E0
1.002657208E0,-9.079766965E-1,-6.579520941E-2,-2.300261309E0,2.473853831E0
1.012684208E0,-1.165486320E0,-4.615635623E-1,-2.458376452E0,2.759531493E0
1.022710208E0,-1.099214270E0,-7.838480558E-1,-2.223303764E0,2.601109266E0
1.032737208E0,-8.482927045E-1,-1.185510987E0,-2.588247789E0,2.970532516E0
1.042764208E0,-6.320764107E-1,-1.859941996E0,-2.201318234E0,2.950374008E0
1.052791208E0,-1.094158182E0,-3.146119817E0,-4.048109257E-1,3.355461804E0
1.062817208E0,-1.301841050E0,-4.634016638E0,3.053299069E-1,4.823082694E0
1.072844208E0,-1.608361742E0,-5.605830896E0,7.047426832E-1,5.874421655E0
1.082871208E0,-1.841327093E0,-5.931104486E0,1.085618032E0,6.304526342E0
1.092898208E0,-1.795436975E0,-5.972261283E0,9.745858383E-1,6.311997807E0
1.102925208E0,-1.496010125E0,-5.980967202E0,6.045453805E-1,6.194795403E0
1.112951208E0,-1.034062546E0,-6.102917317E0,1.466785741E-1,6.191639502E0
1.122978208E0,-7.993050241E-1,-6.413658822E0,2.969894385E-1,6.470093564E0
1.133005208E0,-5.922062936E-1,-7.097504141E0,-1.316941484E0,7.242900537E0
1.143032208E0,-6.176595157E-1,-8.713947027E0,-7.089731437E-1,8.764531875E0
1.153059208E0,-5.935748929E0,-3.891489247E0,-3.388620515E0,7.865084418E0
1.163085208E0,-6.715190377E0,-1.028188434E0,-4.691077861E0,8.255735264E0
1.173112208E0,-6.695731428E-1,-7.222147483E0,-5.010157496E-1,7.270402962E0
1.183139208E0,-1.907529561E0,-9.981344469E0,1.850008162E0,1.032900947E1
1.193166208E0,-4.951385962E0,-1.124899977E1,2.985915756E0,1.264800031E1
1.203192208E0,-5.963526712E0,-1.242648633E1,4.773575057E0,1.458657713E1
1.213219208E0,-4.846317928E0,-1.296545928E1,5.377480168E0,1.484948568E1
1.223246208E0,-4.813144920E0,-1.247496209E1,3.690490624E0,1.387122072E1
1.233273250E0,-4.913846253E0,-1.202979017E1,1.307733289E0,1.306031787E1
1.243300250E0,-3.386821911E0,-1.212535122E1,-1.438845406E0,1.267142379E1
1.253326250E0,-1.746226516E0,-1.174048865E1,-3.875599439E0,1.248633861E1
1.263353250E0,-1.712919021E0,-1.094143623E1,-4.831815079E0,1.208286205E1
1.273380250E0,-2.792576401E0,-1.019870419E1,-3.987802829E0,1.130108939E1
1.283407250E0,-3.470209054E0,-1.011237005E1,-1.991039203E0,1.087504556E1
1.293433250E0,-3.205481628E0,-1.086985228E1,-4.601589149E-1,1.134198163E1
1.303460250E0,-2.711137551E0,-1.193453669E1,6.894814503E-1,1.225801034E1
1.313487250E0,-1.411124926E0,-1.280332535E1,1.304978520E0,1.294679043E1
1.323514250E0,1.188244268E0,-1.273580170E1,7.532891911E-1,1.281327491E1
1.333541250E0,4.916052407E0,-1.143847996E1,-1.591075911E0,1.255141099E1
1.343567250E0,7.881427479E0,-9.039910589E0,-3.560049183E0,1.251042896E1
1.353594250E0,9.909366413E0,-5.967233262E0,-4.482265019E0,1.240540669E1
1.363621250E0,1.030167482E1,-3.410341752E0,-4.277097917E0,1.166398309E1
1.373648250E0,9.059201723E0,-2.998884296E0,-2.999097719E0,1.000285109E1
1.383674250E0,8.350658934E0,-4.288922741E0,-1.443889214E0,9.498061853E0
1.393701250E0,8.345126883E0,-5.185175185E0,-1.228195222E-1,9.825592554E0
1.403728250E0,9.231823808E0,-4.261565081E0,-1.554547916E0,1.028611331E1
1.413755250E0,1.117039916E1,-1.922037672E0,-4.695670849E0,1.226871513E1
1.423782250E0,1.354541186E1,8.959913662E-1,-7.252368232E0,1.539083584E1
1.433808250E0,1.503584491E1,3.937050167E0,-8.577516868E0,1.775248692E1
1.443835250E0,1.432148005E1,5.901774268E0,-8.378867072E0,1.761082462E1
1.453862250E0,1.280366332E1,5.906126350E0,-6.962936904E0,1.572573093E1
1.463889250E0,1.207081190E1,4.404267256E0,-5.505644703E0,1.397906268E1
1.473915250E0,1.143497631E1,3.224169036E0,-4.700823416E0,1.277699848E1
1.483942250E0,1.089768034E1,3.093100482E0,-5.000756342E0,1.238282163E1
1.493969250E0,1.050082397E1,3.641964289E0,-5.763325065E0,1.251986916E1
1.503996250E0,9.292895637E0,4.408207694E0,-6.330214376E0,1.207732663E1
1.514023250E0,8.242609990E0,4.772181666E0,-6.590045929E0,1.158201376E1
1.524049250E0,7.060050386E0,4.773794036E0,-6.170210583E0,1.052164054E1
1.534076250E0,5.752690734E0,4.542537241E0,-6.367562297E0,9.709477065E0
1.544103250E0,3.860030642E0,4.138380327E0,-6.423036001E0,8.560456750E0
1.554130250E0,2.496767516E0,3.414300024E0,-5.835048766E0,7.206877742E0
1.564157250E0,1.600589916E0,2.655989244E0,-5.781860154E0,6.560950677E0
1.574183250E0,5.837123358E-1,2.149121894E0,-5.604172041E0,6.030438563E0
1.584210250E0,7.470110357E-2,1.633609435E0,-4.960081356E0,5.222706875E0
1.594237250E0,-7.024768871E-1,1.090470344E0,-3.639608154E0,3.863851299E0
1.604264250E0,-1.715238027E0,4.169076455E-1,-1.816172079E0,2.532653647E0
1.614290250E0,-1.879318500E0,-2.036079428E-1,-7.777907789E-2,1.891915379E0
1.624317250E0,-1.854273705E0,-8.423756146E-1,1.593287913E0,2.585825598E0
1.634344250E0,-1.911092269E0,-1.304605029E0,2.021102954E0,3.072315917E0
1.644371250E0,-2.669307155E0,-1.138059662E0,1.376481927E0,3.211710289E0
1.654398250E0,-3.086101949E0,-1.826837400E0,1.934305716E-1,3.591486533E0
1.664424250E0,-3.184177297E0,-2.047308128E0,-7.747356087E-1,3.864022631E0
1.674451250E0,-2.407755936E0,-1.432638879E0,-1.414301133E0,3.138469452E0
1.684478250E0,-1.594938582E0,-3.599113262E-1,-1.871016623E0,2.484767282E0
1.694505250E0,-1.164435575E0,8.075414121E-1,-2.169300635E0,2.591119176E0
1.704531250E0,-9.345230556E-1,1.144705023E0,-1.599568407E0,2.177682718E0
1.714558250E0,-5.988729966E-1,4.574835214E-1,-4.648021889E-1,8.854270795E-1
1.724585250E0,2.459561098E-1,-1.685378051E-1,4.714750314E-1,5.578423656E-1
1.734612250E0,1.133853468E0,-7.884227711E-1,9.990459108E-1,1.704501946E0
1.744639250E0,1.143620657E0,-1.080534755E0,1.396697506E0,2.103850633E0
1.754665250E0,8.028788424E-1,-7.180290189E-1,9.874263239E-1,1.461229227E0
1.764692250E0,2.076545084E-1,1.127813879E-1,6.445499104E-2,2.449377108E-1
1.774719250E0,-2.419683087E-1,1.017644734E0,-3.923528481E-1,1.117179585E0
1.784746250E0,2.088292140E-1,1.506146565E0,-2.659395174E-1,1.543635625E0
1.794772250E0,1.583692632E0,1.686996852E0,2.409415742E-1,2.326390675E0
1.804799250E0,2.685074172E0,1.846163617E0,8.175810814E-2,3.259544109E0
1.814826250E0,2.365682296E0,1.986269629E0,-5.127189152E-1,3.131229862E0
1.824853250E0,1.605237283E0,1.554751838E0,-5.855238032E-1,2.310168421E0
1.834880250E0,1.233412839E0,3.390592781E-1,3.618147410E-2,1.279678680E0
1.844906250E0,2.920923954E-1,-6.462921613E-1,1.315431733E0,1.494447112E0
1.854933250E0,-3.352378303E-1,-9.074522012E-1,1.743295891E0,1.993723768E0
1.864960250E0,-1.339113541E0,-7.116064373E-1,1.237866079E0,1.957529368E0
1.874987250E0,-1.095080581E0,7.604362428E-2,1.048978867E0,1.518334869E0
1.885014250E0,-8.303420448E-1,1.266438790E0,1.119571059E0,1.883288209E0
1.895040250E0,-1.491151088E0,2.441452855E0,1.286552335E0,3.136788250E0
1.905067250E0,-8.955098480E-1,1.960717881E0,1.273283833E0,2.503518368E0
1.915094250E0,-4.971828997E-1,-2.431313199E-1,1.489306877E0,1.588816744E0
1.925121250E0,-4.415548289E-1,-2.045219210E0,1.512923781E0,2.582020653E0
1.935147250E0,-4.837471676E-1,-2.695264992E0,7.254173414E-1,2.832789265E0
1.945174250E0,-6.001441813E-1,-1.992442242E0,-5.310755543E-1,2.147566150E0
1.955201250E0,-9.815966499E-1,-1.204061571E0,-1.116198312E0,1.912902224E0
1.965228250E0,-1.248312129E0,-1.288516999E0,-1.074104279E0,2.090994795E0
1.975255250E0,-1.095188169E0,-1.182853135E0,-8.000394344E-1,1.799622672E0
1.985281250E0,-7.994178754E-1,-1.132051356E0,3.511754398E-1,1.429661988E0
1.995308250E0,-8.810362351E-1,-1.121972510E0,5.006864052E-1,1.511864424E0
2.005335250E0,-2.902429211E-1,1.742294848E-1,-1.216855863E0,1.263065738E0
2.015362250E0,6.099049383E-1,2.330270389E0,-2.278538464E0,3.315702286E0
2.025388250E0,-9.109786570E-2,1.574945197E0,-2.725170869E0,3.148858120E0
2.035415250E0,-1.467429519E0,-7.427343822E-1,-1.376532798E0,2.144725227E0
2.045442250E0,-2.308146279E0,-2.725273195E0,6.129459290E-1,3.623583302E0
2.055469250E0,-3.058045839E0,-3.288282879E0,1.082850398E0,4.619200540E0
2.065496250E0,-3.020722477E0,-2.531046817E0,2.330100819E-2,3.941003072E0
2.075522250E0,-2.559991704E0,-1.037743369E0,-1.546333601E0,3.165693673E0
2.085549250E0,-9.380547738E-1,4.553986967E-2,4.857656264E-1,1.057349934E0
2.095576250E0,3.183929960E0,1.310962706E0,1.394422939E0,3.714895495E0
2.105603250E0,5.065739374E0,1.742940965E0,3.933443896E-1,5.371617859E0
2.115629250E0,3.517723528E0,1.866949884E0,-5.294911051E-1,4.017491944E0
2.125656250E0,1.923422293E0,1.954334183E0,-3.475153752E-1,2.764008385E0
2.135683250E0,2.291411548E0,1.876607730E0,2.378951383E-1,2.971332622E0
2.145710250E0,1.908666260E0,1.717135448E0,-9.446659282E-2,2.569140902E0
2.155737250E0,9.865995276E-1,1.542074490E0,-6.450790103E-1,1.941004711E0
2.165763250E0,1.115175122E-1,1.062795179E0,-1.181901354E0,1.593380231E0
2.175790250E0,-5.005643445E-1,4.948521996E-1,-1.048413806E0,1.262780611E0
2.185817250E0,4.583123642E-1,5.504486954E-1,-8.221807936E-1,1.090424343E0
2.195844250E0,1.760656859E0,1.181024126E0,-4.811296615E-1,2.173986273E0
2.205871250E0,2.884233845E0,2.682438832E0,-2.920216441E-2,3.938925707E0
2.215897250E0,3.124953774E0,4.181452671E0,5.205492505E-1,5.246032220E0
2.225924250E0,2.388238515E0,5.038477315E0,1.265153572E0,5.717565078E0
2.235951750E0,1.405547851E0,5.503117536E0,1.625288847E0,5.907743327E0
2.245978750E0,2.248973626E-1,5.729989504E0,1.457439698E0,5.916712686E0
2.256004750E0,-6.890619126E-1,6.122624772E0,1.350875216E0,6.307630638E0
2.266031750E0,-1.686535215E0,6.180292352E0,1.612919354E0,6.606203405E0
2.276058750E0,-2.503873052E0,6.348713213E0,1.973842395E0,7.104336247E0
2.286085750E0,-2.699664729E0,6.788473531E0,2.259832052E0,7.647117328E0
2.296112750E0,-3.030841668E0,6.190771147E0,2.911395624E0,7.482504467E0
2.306138750E0,-3.428881226E0,4.349965333E0,3.815615777E0,6.725945927E0
2.316165750E0,-3.743847052E0,2.842042676E0,4.156939974E0,6.274850378E0
2.326192750E0,-4.134395157E0,1.815546427E0,4.072072316E0,6.080395143E0
2.336219750E0,-4.711113638E0,9.422793871E-1,3.704164338E0,6.066573629E0
2.346245750E0,-5.017917336E0,7.908633989E-1,2.114884107E0,5.502517069E0
2.356272750E0,-4.632434089E0,1.696901159E0,-8.894866312E-1,5.012993676E0
2.366299750E0,-3.749296072E0,3.094562870E0,-2.589352913E0,5.508020416E0
2.376326750E0,-2.902937334E0,3.944510629E0,-1.390916364E0,5.091253048E0
2.386353750E0,-2.013171206E0,4.736154047E0,2.872207146E-2,5.146342237E0
2.396379750E0,-9.334488489E-1,5.210359143E0,9.778696346E-1,5.382880100E0
2.406406750E0,1.621673513E0,1.358812226E0,1.603491889E0,2.654690544E0
2.416433750E0,5.253430318E0,-9.306172324E0,1.654028204E0,1.081384218E1
2.426460750E0,5.574442458E0,-2.346402038E1,1.320780181E0,2.415324246E1
2.436486750E0,2.423170951E0,-3.314752873E1,1.847756399E0,3.328730422E1
2.446513750E0,-1.033916366E-1,-3.446468657E1,2.162877468E0,3.453264179E1
2.456540750E0,-1.590350856E0,-2.398584462E1,6.103614597E-1,2.404625748E1
2.466567750E0,-2.286740061E0,-1.007271306E1,-2.530938644E0,1.063458410E1
2.476594750E0,-1.743766007E0,-1.250689607E0,-4.015848414E0,4.553238723E0
2.486620750E0,-8.625647347E-1,3.663323876E0,-2.816074607E0,4.700450609E0
2.496647750E0,-1.785365438E-1,6.494229360E0,-1.432695304E0,6.652781833E0
2.506674750E0,1.999202500E-1,8.026313882E0,-1.286030763E-1,8.029833210E0
2.516701750E0,1.715647624E-1,8.475661880E0,1.457230806E0,8.601732406E0
2.526727750E0,-8.056542233E-2,7.576629669E0,2.901197203E0,8.113492043E0
2.536754750E0,-6.768671058E-1,5.101621397E0,3.154493322E0,6.036184066E0
2.546781750E0,-1.228297256E0,2.328525580E0,2.028210829E0,3.323309299E0
2.556808750E0,-1.723644569E0,-1.957180023E-2,8.116829950E-1,1.905298648E0
2.566835750E0,-2.193164584E0,-1.862041147E0,-1.363629162E-1,2.880236617E0
2.576861750E0,-2.325020028E0,-2.855848537E0,-7.325123528E-1,3.754752101E0
2.586888750E0,-2.012529328E0,-2.607089857E0,-9.262053913E-1,3.421264130E0
2.596915750E0,-1.030655959E0,-1.380151640E0,-9.247716540E-1,1.955063392E0
2.606942750E0,1.207344782E-1,-2.136683697E-1,-7.621524737E-1,8.006918131E-1
2.616969750E0,7.333909701E-1,4.144611704E-1,-4.469793639E-1,9.536408803E-1
2.626995750E0,9.310673511E-1,5.879995143E-1,-1.167279661E-1,1.107364104E0
2.637022750E0,8.748912500E-1,4.109300369E-1,1.445917028E-1,9.773458728E-1
2.647049750E0,7.515876514E-1,1.266816813E-1,2.717353141E-1,8.091800337E-1
2.657076750E0,6.958658789E-1,-1.346485126E-1,3.856267228E-1,8.068875465E-1
2.667102750E0,5.800747830E-1,-2.874035132E-1,5.008947122E-1,8.185249208E-1
2.677129750E0,3.024923994E-1,-2.543790239E-1,5.088358889E-1,6.443014056E-1
2.687156750E0,3.736882433E-2,-6.788208067E-2,3.517333373E-1,3.601676644E-1
2.697183750E0,-1.507453126E-1,1.675753534E-2,1.076975262E-1,1.860207553E-1
2.707210750E0,-3.200838938E-1,-1.758783996E-2,-1.480685303E-1,3.531109187E-1
2.717236750E0,-3.884034924E-1,-1.141861814E-1,-3.416605581E-1,5.297430452E-1
2.727263750E0,-2.386979610E-1,-1.692459029E-1,-4.156651852E-1,5.083290651E-1
2.737290750E0,6.404396832E-2,-1.686132342E-1,-3.346741587E-1,3.801826470E-1
2.747317750E0,2.676492798E-1,-1.048054934E-1,-2.077088875E-1,3.546312315E-1
2.757343750E0,3.474161187E-1,7.193127751E-2,-1.296263391E-1,3.777235179E-1
2.767370750E0,1.820387337E-1,2.297318405E-1,1.333299655E-1,3.220119544E-1
2.777397750E0,9.308928117E-2,1.344467837E-1,3.339825062E-1,3.718680765E-1
2.787424750E0,6.419073343E-3,8.283107221E-2,3.561228786E-1,3.656852413E-1
2.797451750E0,-1.835477538E-1,9.296020389E-2,2.092911075E-1,2.934861924E-1
2.807477750E0,-2.452858727E-1,4.960426927E-2,-2.969866611E-2,2.520074476E-1
2.817504750E0,-1.532672167E-1,-1.977060556E-2,-2.014827722E-1,2.539232641E-1
2.827531750E0,-7.971362919E-3,-6.596127033E-2,-2.507741424E-1,2.594264873E-1
2.837558750E0,1.325417608E-1,-8.371634066E-2,-2.480792338E-1,2.934604748E-1
2.847584750E0,2.284989551E-1,-1.306846851E-1,-2.412374798E-1,3.570515104E-1
2.857611750E0,2.761707196E-1,-1.705837458E-1,-2.394131120E-1,4.033456568E-1
2.867638750E0,2.857480203E-1,-1.905250901E-1,-2.619547496E-1,4.319398475E-1
2.877665750E0,2.682296160E-1,-1.831178373E-1,-2.538885156E-1,4.122361551E-1
2.887692750E0,2.356797744E-1,-1.366944534E-1,-2.062956520E-1,3.417429234E-1
2.897718750E0,1.787629773E-1,-7.820124686E-2,-1.273903638E-1,2.330234792E-1
2.907745750E0,1.408300428E-1,-2.364438593E-2,-4.563057460E-2,1.499143331E-1
2.917772750E0,1.324425043E-1,1.577520311E-2,1.977232318E-2,1.348362664E-1
2.927799750E0,1.343729626E-1,3.786598384E-2,6.069344066E-2,1.522288394E-1
2.937825750E0,1.584797171E-1,3.839340270E-2,9.516570054E-2,1.888025017E-1
2.947852750E0,1.882601711E-1,5.387507558E-2,1.151427859E-1,2.271613456E-1
2.957879750E0,2.036646608E-1,7.951160789E-2,1.229581743E-1,2.508387978E-1
2.967906750E0,2.045563611E-1,9.658196926E-2,1.261244416E-1,2.589956688E-1
2.977933750E0,1.733579573E-1,8.749890447E-2,1.383398598E-1,2.384259979E-1
2.987959750E0,1.159374225E-1,6.383814633E-2,1.840843821E-1,2.267241817E-1
2.997986750E0,3.118290871E-2,2.826134741E-2,2.083426891E-1,2.125505908E-1
3.008013750E0,-5.096871704E-2,-4.968963861E-3,2.391060966E-1,2.445285794E-1
3.018040750E0,-1.249541214E-1,-3.955641389E-3,2.358695897E-1,2.669525105E-1
3.028067750E0,-1.599213481E-1,5.748807013E-2,2.214159304E-1,2.791141881E-1
3.038093750E0,-1.771707805E-1,1.300876844E-1,2.124585076E-1,3.056974134E-1
3.048120750E0,-1.991672748E-1,1.656492805E-1,1.987532554E-1,3.265120887E-1
3.058147750E0,-1.963904321E-1,1.735120314E-1,1.869342053E-1,3.219006431E-1
3.068174750E0,-1.989722702E-1,1.464487785E-1,1.789019948E-1,3.050297244E-1
3.078200750E0,-1.884988837E-1,1.008907825E-1,1.659790270E-1,2.706655067E-1
3.088227750E0,-1.391258718E-1,8.684284687E-2,1.366564099E-1,2.134775460E-1
3.098254750E0,-4.880539343E-2,8.860402822E-2,9.601471625E-2,1.394685125E-1
3.108281750E0,2.646932200E-2,8.765444040E-2,4.602686964E-2,1.024812112E-1
3.118308750E0,9.611740798E-2,1.093218827E-1,2.107274394E-2,1.470846379E-1
3.128334750E0,1.608533943E-1,1.121671379E-1,8.993017673E-3,1.963062802E-1
3.138361750E0,1.933112884E-1,9.061430097E-2,1.331922635E-3,2.134993671E-1
3.148388750E0,2.328239943E-1,3.805543363E-2,-1.120041467E-2,2.361793337E-1
3.158415750E0,2.296429628E-1,-9.630364180E-3,-3.075642742E-2,2.318934930E-1
3.168442750E0,2.269247384E-1,-4.971068859E-2,-6.552514113E-2,2.413701174E-1
3.178468750E0,2.212049921E-1,-8.332808554E-2,-1.089869104E-1,2.602947656E-1
3.188495750E0,1.953405645E-1,-1.051323527E-1,-1.284464440E-1,2.563381297E-1
3.198522750E0,1.846983397E-1,-9.000092804E-2,-1.521323452E-1,2.556519004E-1
3.208549750E0,1.886417019E-1,-7.442803860E-2,-1.843897529E-1,2.740890469E-1
3.218575750E0,1.926818356E-1,-6.268916845E-2,-2.216656796E-1,3.003196549E-1
3.228602750E0,1.670866723E-1,-8.523252368E-2,-2.706413001E-1,3.292859737E-1
3.238629333E0,1.491925845E-1,-1.454986060E-1,-2.978462018E-1,3.635115287E-1
3.248656333E0,1.898718099E-1,-1.634875649E-1,-3.284750137E-1,4.131287000E-1
3.258683333E0,2.195420440E-1,-1.766174877E-1,-3.312734912E-1,4.348960473E-1
3.268709333E0,2.572261794E-1,-1.739704531E-1,-3.180535213E-1,4.445099193E-1
3.278736333E0,2.897925393E-1,-1.550880396E-1,-2.685457311E-1,4.244394251E-1
3.288763333E0,3.147531335E-1,-1.667894876E-1,-1.929312193E-1,4.051058178E-1
3.298790333E0,3.350925270E-1,-1.559645373E-1,-1.036494988E-1,3.838686717E-1
3.308816333E0,3.303397639E-1,-1.328037161E-1,-1.573595367E-2,3.563829497E-1
3.318843333E0,3.117527810E-1,-1.102048123E-1,5.134089231E-2,3.346203585E-1
3.328870333E0,2.786386831E-1,-7.293816805E-2,1.051223394E-1,3.066108255E-1
3.338897333E0,2.435238142E-1,-2.638789952E-2,1.650334956E-1,2.953577898E-1
3.348924333E0,2.051504382E-1,-1.142779827E-2,2.238185513E-1,3.038289664E-1
3.358950333E0,1.623466270E-1,2.891798973E-2,2.719650366E-1,3.180529179E-1
3.368977333E0,8.840536907E-2,6.815923870E-2,3.324030270E-1,3.506464936E-1
3.379004333E0,-6.222168356E-3,9.368584335E-2,3.737451806E-1,3.853585508E-1
3.389031333E0,-1.056838913E-1,1.167262119E-1,3.612134646E-1,3.940422064E-1
3.399057333E0,-2.078948289E-1,1.120917088E-1,3.534530765E-1,4.251045617E-1
3.409084333E0,-2.804770477E-1,1.094908673E-1,3.399418787E-1,4.541102347E-1
3.419111333E0,-2.946164922E-1,1.031127244E-1,3.031985603E-1,4.351556944E-1
3.429138333E0,-2.380271392E-1,9.014710844E-2,2.503233220E-1,3.569946578E-1
3.439165333E0,-1.690469514E-1,9.350399494E-2,1.914331261E-1,2.719678485E-1
3.449191333E0,-9.266681984E-2,1.349174845E-1,1.862467555E-1,2.479470126E-1
3.459218333E0,-4.621405363E-2,1.514522409E-1,2.073288184E-1,2.608807371E-1
3.469245333E0,-1.746387899E-2,1.341678715E-1,2.476173768E-1,2.821708173E-1
3.479272333E0,1.700940415E-2,1.125577319E-1,2.592462462E-1,2.831380918E-1
3.489298333E0,6.446716055E-2,6.639630318E-2,2.309130511E-1,2.487676045E-1
3.499325333E0,1.001879472E-1,2.871275246E-2,1.545173514E-1,1.863804142E-1
3.509352333E0,1.554827267E-1,2.723633051E-3,8.735330880E-2,1.783617028E-1
3.519379333E0,2.047462495E-1,-2.604642212E-2,2.446116887E-2,2.078407842E-1
3.529406333E0,2.559663968E-1,-2.431623101E-2,-1.237095416E-2,2.574162308E-1
3.539432333E0,2.991219181E-1,-4.160878658E-3,1.890989542E-3,2.991568328E-1
3.549459333E0,2.818954360E-1,-1.156286895E-2,7.446663022E-2,2.917944753E-1
3.559486333E0,2.472610621E-1,-2.243810534E-2,1.354291890E-1,2.828118927E-1
3.569513333E0,2.148040451E-1,5.051994324E-3,1.672737101E-1,2.722990902E-1
3.579540333E0,1.644853923E-1,6.042571127E-2,1.727992558E-1,2.461022017E-1
3.589566333E0,1.161868063E-1,7.821352601E-2,1.426878494E-1,1.999413713E-1
3.599593333E0,7.203828156E-2,4.976448298E-2,1.003423867E-1,1.331713646E-1
3.609620333E0,7.139918089E-2,2.579966962E-2,2.382623434E-2,7.956855803E-2
3.619647333E0,8.478696585E-2,9.800518155E-3,-4.568729259E-2,9.681016702E-2
3.629673333E0,1.011938144E-1,-2.584469318E-2,-8.933324911E-2,1.374356782E-1
3.639700333E0,1.259423009E-1,-3.965874016E-2,-1.154082495E-1,1.753663105E-1
3.649727333E0,1.429889810E-1,-2.655980766E-2,-1.267764062E-1,1.929340023E-1
3.659754333E0,1.695293467E-1,-4.672217667E-2,-1.085213989E-1,2.066399168E-1
3.669781333E0,1.613486534E-1,-5.570642352E-2,-5.468959272E-2,1.792415832E-1
3.679807333E0,1.670074426E-1,-3.777418256E-2,-1.590859272E-2,1.719635370E-1
3.689834333E0,1.834142911E-1,-2.484774292E-2,-8.764391541E-3,1.852971319E-1
3.699861333E0,1.868277495E-1,-5.762664914E-2,-1.376091041E-2,1.959969421E-1
3.709888333E0,1.997106273E-1,-1.055995452E-1,-3.557570256E-2,2.286946201E-1
3.719914333E0,2.043372367E-1,-1.210455501E-1,-4.527506389E-2,2.417758527E-1
3.729941333E0,1.826962531E-1,-1.485473442E-1,-6.402818084E-2,2.440160697E-1
3.739968333E0,1.440641378E-1,-1.701376033E-1,-6.646303453E-2,2.326340792E-1
3.749995333E0,1.143363087E-1,-1.830108333E-1,-1.016392992E-1,2.385294609E-1
3.760022333E0,1.005500360E-1,-1.683834386E-1,-1.679180002E-1,2.581854894E-1
3.770048333E0,1.107385169E-1,-1.248561805E-1,-2.397768454E-1,2.921387008E-1
3.780075333E0,1.055056974E-1,-1.035997975E-1,-2.965848112E-1,3.314014491E-1
3.790102333E0,8.556055248E-2,-1.189791441E-1,-3.330778688E-1,3.638921702E-1
3.800129333E0,5.821385577E-2,-1.726828963E-1,-3.583944853E-1,4.020632323E-1
3.810155333E0,1.758155420E-2,-2.267222786E-1,-3.816050079E-1,4.442234626E-1
3.820182333E0,-2.286539063E-2,-2.603227186E-1,-3.856560320E-1,4.658554700E-1
3.830209333E0,-6.733989760E-2,-2.568927419E-1,-3.801649117E-1,4.637390460E-1
3.840236333E0,-8.538820580E-2,-2.422846431E-1,-3.921909533E-1,4.688355125E-1
3.850263333E0,-5.140506551E-2,-2.162680417E-1,-4.198927221E-1,4.751044567E-1
3.860289333E0,7.479465902E-3,-2.072703463E-1,-4.407748103E-1,4.871338340E-1
3.870316333E0,6.451452300E-2,-1.777360600E-1,-4.685209449E-1,5.052366837E-1
3.880343333E0,1.444070770E-1,-1.419779974E-1,-4.656482810E-1,5.077789649E-1
3.890370333E0,1.759886196E-1,-1.334124112E-1,-4.344832063E-1,4.873874457E-1
3.900397333E0,1.876125920E-1,-1.228628647E-1,-3.925440520E-1,4.520891516E-1
3.910423333E0,1.839643680E-1,-1.337234831E-1,-3.310150077E-1,4.016164762E-1
3.920450333E0,1.832226487E-1,-1.227716482E-1,-2.828988548E-1,3.587132262E-1
3.930477333E0,1.830419697E-1,-8.788482070E-2,-2.866750232E-1,3.512985530E-1
3.940504333E0,2.090638335E-1,-3.788294077E-2,-3.459563978E-1,4.059909271E-1
3.950530333E0,2.680023055E-1,4.867105365E-2,-4.069643822E-1,4.897081943E-1
3.960557333E0,3.078850671E-1,1.530017531E-1,-4.549682685E-1,5.702621120E-1
3.970584333E0,3.618175916E-1,2.425822663E-1,-4.579001355E-1,6.320052687E-1
3.980611333E0,3.949389254E-1,2.934337467E-1,-4.257480143E-1,6.506469781E-1
3.990638333E0,4.012870281E-1,3.263360292E-1,-3.332995148E-1,6.153170317E-1
4.000664333E0,4.124193227E-1,3.863758242E-1,-1.832288979E-1,5.940949455E-1
4.010691333E0,4.101276527E-1,4.742898810E-1,-5.562226016E-2,6.294834538E-1
4.020718333E0,2.792683551E-1,5.617700744E-1,-4.309631824E-2,6.288352116E-1
4.030745333E0,1.939389870E-1,5.727973384E-1,-1.998812199E-2,6.050691254E-1
4.040771333E0,1.312415593E-1,5.207085872E-1,-6.804170966E-2,5.412868499E-1
4.050798333E0,6.006398790E-2,4.211498004E-1,-2.752846106E-1,5.067114108E-1
4.060825333E0,-2.790196292E-2,3.359441739E-1,-5.561701959E-1,6.503555138E-1
4.070852333E0,-1.623429725E-1,2.806108028E-1,-6.955561227E-1,7.673955845E-1
4.080879333E0,-3.605380746E-1,1.943310428E-1,-6.940826243E-1,8.059174566E-1
4.090905333E0,-5.383777034E-1,1.093037564E-1,-6.290709418E-1,8.351814848E-1
4.100932333E0,-6.871366438E-1,7.528407097E-2,-5.683382517E-1,8.948926343E-1
4.110959333E0,-8.244332141E-1,8.847655892E-2,-5.470104961E-1,9.933472247E-1
4.120986333E0,-9.764983895E-1,1.139359206E-1,-5.553193895E-1,1.129119180E0
4.131013333E0,-1.068817373E0,1.496308333E-1,-5.409223751E-1,1.207210412E0
4.141039333E0,-1.071075787E0,1.985211575E-1,-4.221771928E-1,1.168266910E0
4.151066333E0,-9.849836496E-1,2.545620418E-1,-2.563817318E-1,1.049155001E0
4.161093333E0,-8.895529971E-1,2.844752276E-1,-2.349183939E-1,9.630250991E-1
4.171120333E0,-8.452682322E-1,2.756973875E-1,-4.321309080E-1,9.885466886E-1
4.181146333E0,-7.937531660E-1,3.136885017E-1,-6.505699843E-1,1.073166282E0
4.191173333E0,-7.181260827E-1,3.691470033E-1,-6.851697135E-1,1.058976920E0
4.201200333E0,-6.820539515E-1,4.112557268E-1,-5.507216873E-1,9.683094766E-1
4.211227333E0,-6.631061223E-1,3.554575020E-1,-3.972721106E-1,8.508142541E-1
4.221254333E0,-6.496600845E-1,2.311837041E-1,-3.807151347E-1,7.876853079E-1
4.231280333E0,-5.520406364E-1,1.296187377E-1,-4.596519979E-1,7.299519440E-1
4.241307000E0,-4.369036246E-1,1.611393231E-1,-4.291278145E-1,6.332466659E-1
4.251334000E0,-3.893602796E-1,2.627118909E-1,-2.642772637E-1,5.389447440E-1
4.261361000E0,-3.538852954E-1,3.745749736E-1,-1.513219211E-1,5.370656728E-1
4.271387000E0,-3.006568122E-1,4.122403979E-1,-1.174056584E-1,5.235654238E-1
4.281414000E0,-1.936974970E-1,3.670057529E-1,-1.022140074E-1,4.273869983E-1
4.291441000E0,-6.690164879E-3,3.183691978E-1,-1.921751744E-1,3.719341368E-1
4.301468000E0,1.902837463E-1,3.033523786E-1,-2.312071661E-1,4.262479599E-1
4.311495000E0,3.513240322E-1,3.516994965E-1,-1.172759233E-1,5.107589976E-1
4.321521000E0,4.701405871E-1,3.487220943E-1,1.980963573E-3,5.853573224E-1
4.331548000E0,4.691633347E-1,2.407392240E-1,1.648487967E-1,5.524895785E-1
4.341575000E0,3.351422283E-1,5.703900397E-2,3.338644655E-1,4.764863508E-1
4.351602000E0,1.343780789E-1,-1.196808100E-1,3.184557366E-1,3.657800166E-1
4.361628000E0,1.243253265E-2,-8.138388634E-2,5.985027216E-2,1.017838882E-1
4.371655000E0,1.070290067E-1,6.594255924E-2,-1.611750642E-1,2.044040869E-1
4.381682000E0,4.041891474E-1,-5.443757772E-3,-2.174996115E-1,4.590256882E-1
4.391709000E0,7.161041155E-1,-2.596251458E-1,-4.878807105E-2,7.632762256E-1
4.401736000E0,9.572291096E-1,-4.376178986E-1,2.668251879E-1,1.085814291E0
4.411762000E0,1.137921376E0,-4.923671329E-1,6.111632591E-1,1.382320867E0
4.421789000E0,1.307613129E0,-4.178437847E-1,6.275815829E-1,1.509405236E0
4.431816000E0,1.455036053E0,-2.678030616E-1,2.210192699E-1,1.495893684E0
4.441843000E0,1.573646823E0,-1.336082929E-1,-3.426387242E-1,1.616049750E0
4.451870000E0,1.697834813E0,-1.292269742E-1,-8.367101012E-1,1.897215448E0
4.461896000E0,1.650029001E0,-1.827009308E-1,-9.426329975E-1,1.909065819E0
4.471923000E0,1.420871649E0,-2.193337369E-1,-5.261032283E-1,1.530937013E0
4.481950000E0,1.175835014E0,-1.313910288E-1,1.237637745E-1,1.189608782E0
4.491977000E0,7.911833878E-1,-1.818951845E-2,7.156703983E-1,1.066998655E0
4.502003000E0,4.045847116E-1,1.205584770E-1,9.760961010E-1,1.063478600E0
4.512030000E0,1.752701430E-1,3.396308434E-1,9.641140598E-1,1.037103974E0
4.522057000E0,8.491297334E-2,5.165459543E-1,7.922632223E-1,9.495846194E-1
4.532084000E0,1.551050331E-1,4.924367148E-1,5.559262940E-1,7.586867164E-1
4.542111000E0,4.011083591E-1,3.240497679E-1,2.713065670E-1,5.826692210E-1
4.552137000E0,7.992503527E-1,1.804813278E-1,-7.868744284E-3,8.194123218E-1
4.562164000E0,1.175283622E0,2.044297689E-1,-3.038530464E-1,1.231019820E0
4.572191000E0,1.392997972E0,3.056772316E-1,-5.583897990E-1,1.531561650E0
4.582218000E0,1.512206912E0,3.251888055E-1,-7.239396769E-1,1.707807413E0
4.592244000E0,1.537750474E0,2.185876322E-1,-7.987700039E-1,1.746565370E0
4.602271000E0,1.447963554E0,4.153803527E-2,-8.512563658E-1,1.680167034E0
4.612298000E0,1.296480322E0,-1.098159724E-1,-9.227502716E-1,1.595114052E0
4.622325000E0,1.120058059E0,-1.443297476E-1,-9.898459017E-1,1.501717697E0
4.632352000E0,9.404223114E-1,-4.478323996E-2,-1.044443108E0,1.406151154E0
4.642378000E0,7.781218775E-1,7.598982990E-2,-1.121955553E0,1.367491270E0
4.652405000E0,6.770315588E-1,1.351045954E-1,-1.166016077E0,1.355071391E0
4.662432000E0,6.908331804E-1,1.547167414E-1,-1.154789423E0,1.354520714E0
4.672459000E0,8.233639777E-1,1.500220120E-1,-1.101502578E0,1.383380921E0
4.682486000E0,1.089334156E0,1.546652859E-1,-9.800113235E-1,1.473428807E0
4.692512000E0,1.372201765E0,1.329867339E-1,-7.979573871E-1,1.592909020E0
4.702539000E0,1.584754778E0,1.484368318E-1,-5.776718697E-1,1.693276702E0
4.712566000E0,1.675659978E0,2.333886892E-1,-3.446261197E-1,1.726578642E0
4.722593000E0,1.602809811E0,3.668157184E-1,-1.801673323E-1,1.654089879E0
4.732619000E0,1.428738201E0,5.164699405E-1,-7.324368507E-2,1.520986089E0
4.742646000E0,1.206376703E0,6.119941485E-1,-1.763083161E-1,1.364172353E0
4.752673000E0,9.105225742E-1,5.322194159E-1,-5.047532898E-1,1.169223994E0
4.762700000E0,6.249126944E-1,3.048931199E-1,-8.905774292E-1,1.129868952E0
4.772726000E0,4.076544267E-1,-5.099824548E-2,-1.196103510E0,1.264692279E0
4.782753000E0,3.100415933E-1,-4.132385176E-1,-1.235290380E0,1.338967582E0
4.792780000E0,3.691274882E-1,-6.985943359E-1,-9.896174218E-1,1.266345841E0
4.802807000E0,5.349752086E-1,-8.494951844E-1,-6.439918667E-1,1.192713740E0
4.812834000E0,8.047383300E-1,-8.066339242E-1,-4.324358037E-1,1.218713581E0
4.822860000E0,1.184189808E0,-6.634373671E-1,-4.698003888E-1,1.436372879E0
4.832887000E0,1.654583397E0,-6.351076072E-1,-8.742593122E-1,1.976192611E0
4.842914000E0,2.229392909E0,-8.137341982E-1,-1.482567376E0,2.798278419E0
4.852941000E0,2.796588176E0,-1.182402315E0,-1.954677707E0,3.611058792E0
4.862968000E0,3.212124649E0,-1.469488324E0,-2.171666126E0,4.146477355E0
4.872994000E0,3.474786254E0,-1.593263354E0,-2.294525482E0,4.458416178E0
4.883021000E0,3.733296921E0,-1.660779399E0,-2.442358735E0,4.760337205E0
4.893048000E0,4.025553623E0,-1.749923126E0,-2.575908410E0,5.089461372E0
4.903075000E0,4.392213513E0,-1.855877012E0,-2.478984963E0,5.374121833E0
4.913101000E0,4.722006124E0,-1.960069132E0,-2.213086632E0,5.571082954E0
4.923128000E0,4.899881055E0,-2.137919798E0,-1.883428800E0,5.668054292E0
4.933155000E0,4.998114570E0,-2.472057182E0,-1.517782525E0,5.778916833E0
4.943182000E0,5.153509004E0,-2.938566173E0,-1.217585011E0,6.056099361E0
4.953209000E0,5.246017803E0,-3.405389160E0,-1.147533906E0,6.358790151E0
4.963235000E0,5.036723735E0,-3.749712979E0,-1.468490350E0,6.448674074E0
4.973262000E0,4.286447614E0,-3.976995420E0,-2.310062411E0,6.287011537E0
4.983289000E0,2.838609776E0,-4.171063923E0,-3.605320081E0,6.201113819E0
4.993316000E0,7.544201888E-1,-4.304327815E0,-5.835898367E0,7.290685668E0
5.003342000E0,-8.194549678E-1,-4.222241678E0,-8.561749266E0,9.581355944E0
5.013369000E0,-1.854036455E0,-3.982227509E0,-8.805864088E0,9.840672205E0
5.023396000E0,-2.509740733E0,-3.772722942E0,-6.306772889E0,7.765798170E0
5.033423000E0,-3.018528309E0,-3.613180493E0,-3.081320096E0,5.626821480E0
5.043450000E0,-3.537656394E0,-3.401024213E0,-1.409325518E-1,4.909362530E0
5.053476000E0,-3.988613546E0,-3.115104139E0,2.018988016E0,5.448781921E0
5.063503000E0,-4.250151023E0,-2.688929241E0,3.320917359E0,6.026824727E0
5.073530000E0,-3.819349809E0,-2.117996580E0,3.753773285E0,5.758832898E0
5.083557000E0,-2.625124716E0,-1.424012774E0,3.492313868E0,4.595143992E0
5.093584000E0,-1.176896722E0,-9.136449873E-1,2.936969883E0,3.293269675E0
5.103610000E0,3.778461618E-3,-9.533686316E-1,2.658290416E0,2.824081082E0
5.113637000E0,7.526101832E-1,-1.340844317E0,2.321067456E0,2.784176666E0
5.123664000E0,1.379511954E0,-1.656817911E0,1.866707371E0,2.851788076E0
5.133691000E0,2.028013047E0,-1.791814917E0,1.710414659E0,3.201399057E0
5.143717000E0,2.667058316E0,-1.593345215E0,1.882521458E0,3.632607339E0
5.153744000E0,3.073993535E0,-1.123479922E0,2.146799233E0,3.914127021E0
5.163771000E0,2.980604146E0,-4.159732604E-1,2.529206114E0,3.931147211E0
5.173798000E0,2.295076144E0,3.347659600E-1,2.689458414E0,3.551426378E0
5.183825000E0,1.563428814E0,1.026793873E0,2.831877877E0,3.393839657E0
5.193851000E0,1.271777444E0,1.660319808E0,3.093111591E0,3.733820972E0
5.203878000E0,1.212565176E0,2.307780828E0,3.285391431E0,4.194039045E0
5.213905000E0,9.330900492E-1,2.862679254E0,3.284519903E0,4.455744668E0
5.223932000E0,3.977818416E-1,3.147954381E0,3.247956094E0,4.540601939E0
5.233958000E0,-2.948635371E-1,3.191113849E0,3.306707163E0,4.604830547E0
5.243985500E0,-1.059672035E0,3.125127436E0,3.391679778E0,4.732105032E0
5.254012500E0,-1.793796393E0,3.126902651E0,3.436987806E0,4.980774123E0
5.264039500E0,-2.492301997E0,3.191406210E0,3.369024449E0,5.267539139E0
5.274066500E0,-3.028998041E0,3.357511573E0,3.189744139E0,5.533731180E0
5.284092500E0,-3.517160734E0,3.527875464E0,2.894292518E0,5.761358702E0
5.294119500E0,-3.975474560E0,3.619176813E0,2.603187717E0,5.973225684E0
5.304146500E0,-4.262414389E0,3.633435248E0,2.379387293E0,6.085352250E0
5.314173500E0,-4.179176350E0,3.683551149E0,2.160994665E0,5.975279238E0
5.324199500E0,-3.801246244E0,3.765417430E0,1.860421760E0,5.664716283E0
5.334226500E0,-3.400951708E0,3.806410505E0,1.511032791E0,5.323387413E0
5.344253500E0,-3.097335620E0,3.750160291E0,1.251792977E0,5.022367550E0
5.354280500E0,-2.737548839E0,3.588887651E0,9.979128666E-1,4.622782529E0
5.364307500E0,-2.213870013E0,3.387802489E0,6.801457858E-1,4.103781723E0
5.374333500E0,-1.693100176E0,3.145046561E0,2.286974680E-1,3.579135176E0
5.384360500E0,-1.262283905E0,2.823989983E0,-3.909030309E-1,3.117865497E0
5.394387500E0,-7.328150193E-1,2.370174712E0,-1.308053716E0,2.804594542E0
5.404414500E0,-1.025012518E-1,1.693761789E0,-2.580249968E0,3.088207473E0
5.414440500E0,7.282701248E-1,7.154635531E-1,-3.998437160E0,4.126713607E0
5.424467500E0,1.853258483E0,-6.460576880E-1,-5.433453809E0,5.777056156E0
5.434494500E0,3.426860136E0,-2.343304417E0,-6.442154642E0,7.663928654E0
5.444521500E0,5.205075599E0,-4.181734507E0,-6.550042788E0,9.353222760E0
5.454548500E0,6.527424003E0,-5.854089054E0,-5.824307431E0,1.052616644E1
5.464574500E0,6.869903026E0,-6.871234437E0,-5.176009090E0,1.100910988E1
5.474601500E0,6.011573283E0,-6.432506152E0,-4.927615861E0,1.008947703E1
5.484628500E0,4.338750374E0,-4.027449290E0,-4.566492114E0,7.476493351E0
5.494655500E0,2.443838227E0,-1.186931568E0,-3.581178974E0,4.495107860E0
5.504682500E0,-1.065979573E-1,5.485126823E-1,-2.205378833E0,2.275065951E0
5.514708500E0,-2.701630563E0,5.053035128E-1,-1.250618564E0,3.019633443E0
5.524735500E0,-4.318105025E0,-1.163556738E0,-2.648344302E-1,4.479958991E0
5.534762500E0,-4.702424383E0,-2.965344082E0,1.099048501E0,5.666918758E0
5.544789500E0,-4.189149361E0,-4.538425772E0,1.886259145E0,6.457883122E0
5.554815500E0,-3.230917893E0,-6.371444263E0,8.883220120E-1,7.198836602E0
5.564842500E0,7.938780771E-1,-7.988871821E0,-3.287586476E0,8.675283293E0
5.574869500E0,5.404875543E0,-6.687481592E0,1.198597348E0,8.681689079E0
5.584896500E0,1.688869277E0,-2.298450426E0,1.104463842E1,1.140697995E1
5.594923500E0,-2.008678498E0,2.166971104E0,1.177680922E1,1.214181982E1
5.604949500E0,-3.943933509E0,5.809245003E0,6.667729697E0,9.683003581E0
5.614976500E0,-6.739340547E0,8.666815546E0,-2.063303479E0,1.117092762E1
5.625003500E0,-9.061245325E0,9.672448930E0,-5.662436621E0,1.441268967E1
5.635030500E0,-8.604439788E0,8.606935964E0,1.008928875E0,1.221202965E1
5.645056500E0,-6.827013699E0,6.540597196E0,6.957336441E0,1.173848619E1
5.655083500E0,-4.840530939E0,4.045204360E0,8.804370124E0,1.083103649E1
5.665110500E0,-2.963620615E0,1.242795866E0,8.818542606E0,9.385855443E0
5.675137500E0,-1.433174191E0,-1.395302360E0,7.415569868E0,7.680594600E0
5.685164500E0,2.049139184E-1,-3.332728735E0,5.127818677E0,6.119117168E0
5.695190500E0,2.259172924E0,-4.438585734E0,2.073126801E0,5.394697429E0
5.705217500E0,4.237169035E0,-4.566190690E0,-1.490985028E0,6.405211566E0
5.715244500E0,4.814649993E0,-3.722426947E0,-2.507700055E0,6.582239474E0
5.725271500E0,4.049536563E0,-2.363023567E0,-9.627183294E-1,4.786382071E0
5.735297500E0,3.255982275E0,-1.036635906E0,4.566535091E-1,3.447400035E0
5.745324500E0,2.900946650E0,5.861716747E-2,1.142716677E0,3.118449750E0
5.755351500E0,2.753978346E0,8.082343072E-1,1.497851413E0,3.237467881E0
5.765378500E0,2.384475686E0,1.132592808E0,1.396474727E0,2.986407947E0
5.775405500E0,1.730704643E0,1.227166259E0,1.209404172E0,2.442116713E0
5.785431500E0,9.823091331E-1,1.307201777E0,1.160893332E0,2.005338138E0
5.795458500E0,3.763576435E-1,1.432050941E0,7.575664294E-1,1.663226343E0
5.805485500E0,-5.603869155E-2,1.560859839E0,2.914755142E-1,1.588830308E0
5.815512500E0,-5.821977973E-1,1.505584356E0,3.674582543E-1,1.655525323E0
5.825539500E0,-1.155942494E0,1.357562676E0,5.483776116E-1,1.865448331E0
5.835565500E0,-1.519105019E0,1.207289234E0,6.607330298E-1,2.049828161E0
5.845592500E0,-1.653252717E0,1.070735698E0,6.978302510E-1,2.089661825E0
5.855619500E0,-1.577030460E0,9.919906604E-1,5.015406834E-1,1.929407578E0
5.865646500E0,-1.223113846E0,9.472881120E-1,5.301429234E-2,1.547957610E0
5.875672500E0,-6.431899211E-1,8.664380765E-1,-6.172852939E-1,1.243161031E0
5.885699500E0,-5.330292553E-2,6.309946758E-1,-1.384619497E0,1.522552670E0
5.895726500E0,3.710594083E-1,3.455663520E-1,-1.964172124E0,2.028564349E0
5.905753500E0,4.267258514E-1,1.012088710E-1,-2.012435773E0,2.059668888E0
5.915780500E0,2.072940641E-1,1.608685970E-2,-1.595557656E0,1.609047497E0
5.925806500E0,-3.154408392E-2,1.188972831E-2,-1.111900827E0,1.112411725E0
5.935833500E0,-8.035696909E-2,-1.496536374E-2,-8.778670442E-1,8.816641945E-1
5.945860500E0,1.546115647E-1,-2.108564436E-2,-1.144216488E0,1.154807651E0
5.955887500E0,7.056606229E-1,-1.750597894E-2,-2.035951374E0,2.154846020E0
5.965913500E0,1.531331400E0,-8.182125807E-2,-3.146922932E0,3.500684864E0
5.975940500E0,2.510110277E0,-1.690301406E-1,-3.850741755E0,4.599721389E0
5.985967500E0,3.618111742E0,-4.029099959E-1,-3.701600919E0,5.191812632E0
5.995994500E0,4.640588323E0,-7.397832924E-1,-2.662214482E0,5.400900412E0
6.006021500E0,5.263760594E0,-8.457395178E-1,-1.314081757E0,5.490834344E0
6.016047500E0,5.711874830E0,-6.634069616E-1,-3.142325851E-1,5.758851012E0
6.026074500E0,6.149007994E0,-2.446966195E-1,-7.542571977E-2,6.154337071E0
6.036101500E0,6.626063023E0,2.206341577E-1,-6.183209820E-1,6.658506699E0
6.046128500E0,7.182163637E0,4.801160467E-1,-1.421179213E0,7.337147694E0
6.056154500E0,7.608552543E0,4.077602613E-1,-2.039323755E0,7.887660084E0
6.066181500E0,7.805561610E0,-4.009669662E-2,-2.473683878E0,8.188254498E0
6.076208500E0,7.751407623E0,-7.683469409E-1,-2.732608527E0,8.254806268E0
6.086235500E0,7.613724990E0,-1.618004093E0,-2.877732326E0,8.298679944E0
6.096262500E0,7.760937999E0,-2.924636351E0,-3.385229130E0,8.957981507E0
6.106288500E0,7.976222540E0,-5.308413441E0,-5.674949078E0,1.113572747E1
6.116315500E0,6.859708990E0,-8.057107658E0,-8.505107288E0,1.357606133E1
6.126342500E0,4.216735940E0,-9.625061340E0,-8.075379623E0,1.325271383E1
6.136369500E0,6.827815644E-1,-9.663339552E0,-5.110295742E0,1.095269120E1
6.146396500E0,-2.299589317E0,-8.971372451E0,-2.059765329E0,9.487690335E0
6.156422500E0,-4.595789588E0,-8.256957888E0,3.873955786E-2,9.449874933E0
6.166449500E0,-6.627892032E0,-8.134017840E0,9.635205674E-1,1.053658251E1
6.176476500E0,-7.807269582E0,-8.312436270E0,8.021233821E-1,1.143212391E1
6.186503500E0,-7.585274777E0,-8.070701850E0,9.571544845E-2,1.107618090E1
6.196529500E0,-6.281398897E0,-7.116136293E0,6.299914397E-2,9.492067042E0
6.206556500E0,-5.132453181E0,-5.900185579E0,8.435006920E-1,7.865478939E0
6.216583500E0,-4.636368680E0,-4.667410086E0,1.705722853E0,6.796331503E0
6.226610500E0,-4.097341351E0,-3.358906719E0,2.532362441E0,5.872249997E0
6.236637500E0,-2.599740199E0,-1.953511480E0,3.348441957E0,4.667646061E0
6.246663083E0,-6.335148257E-1,-6.118491375E-1,3.999358681E0,4.095188673E0
6.256690083E0,9.710911037E-1,1.550248897E-1,3.769083342E0,3.895258642E0
6.266717083E0,2.260994039E0,3.963020575E-1,2.782606021E0,3.607221318E0
6.276744083E0,2.747170433E0,2.000572211E-1,2.217296920E0,3.536011017E0
6.286770083E0,2.122555654E0,-1.354367173E-1,2.652412795E0,3.399835179E0
6.296797083E0,9.627618912E-1,-2.095583618E-1,3.675482576E0,3.805259167E0
6.306824083E0,3.039908946E-1,2.238132888E-1,4.622091241E0,4.637481029E0
6.316851083E0,-6.446847618E-3,1.046294337E0,5.279596024E0,5.382277174E0
6.326878083E0,-3.121047834E-1,1.989360759E0,5.575391461E0,5.927896386E0
6.336904083E0,-7.301807025E-1,2.981176588E0,5.575916541E0,6.364858441E0
6.346931083E0,-1.174365024E0,3.953798347E0,5.318937260E0,6.730731621E0
6.356958083E0,-1.851497155E0,4.835919825E0,4.980985737E0,7.185010868E0
6.366985083E0,-2.719896680E0,5.503623320E0,4.691344787E0,7.726346065E0
6.377011083E0,-3.533644912E0,6.009287022E0,4.624643259E0,8.365733808E0
6.387038083E0,-4.289656566E0,6.445938376E0,4.612736281E0,9.012691662E0
6.397065083E0,-4.975742539E0,6.851756192E0,4.490670684E0,9.584920444E0
6.407092083E0,-5.578124449E0,7.201179367E0,4.243663830E0,1.004893723E1
6.417119083E0,-5.988339372E0,7.436139788E0,3.977477231E0,1.034295453E1
6.427145083E0,-6.230961984E0,7.479099866E0,3.723918864E0,1.042254258E1
6.437172083E0,-6.244281356E0,7.291070368E0,3.531675569E0,1.022856242E1
6.447199083E0,-5.973906689E0,6.878681450E0,3.284068498E0,9.684468263E0
6.457226083E0,-5.404584351E0,6.165753835E0,2.962382467E0,8.717898958E0
6.467253083E0,-4.613626227E0,5.134532450E0,2.369958365E0,7.298333584E0
6.477279083E0,-3.637708393E0,3.846518896E0,1.362826632E0,5.466802210E0
6.487306083E0,-2.193646540E0,2.344717689E0,-3.957418942E-1,3.235181267E0
6.497333083E0,-5.505935602E-1,7.807588255E-1,-3.332679618E0,3.466913764E0
6.507360083E0,1.411378549E0,-1.289180074E0,-7.104214990E0,7.356891007E0
6.517386083E0,4.233657782E0,-4.549098694E0,-1.106935343E1,1.269443746E1
6.527413083E0,8.171509602E0,-8.723181535E0,-1.175367296E1,1.676354059E1
6.537440083E0,1.126115847E1,-1.178500000E1,-8.288990690E0,1.828680622E1
6.547467083E0,1.275799656E1,-1.283039328E1,-7.726703721E0,1.967453731E1
6.557494083E0,1.087196780E1,-1.041084117E1,-7.266205668E0,1.671475523E1
6.567520083E0,5.811292698E0,-5.021118101E0,-5.192874799E0,9.270852091E0
6.577547083E0,2.862535121E0,-2.385301459E-1,-3.341356301E0,4.406321128E0
6.587574083E0,5.413805410E-1,3.024643620E0,-1.761432639E0,3.541780182E0
6.597601083E0,-2.934602346E0,4.478202374E0,-4.418004119E-1,5.372278384E0
6.607627083E0,-6.685316368E0,2.703359585E0,7.158259343E-1,7.246655418E0
6.617654083E0,-8.253652457E0,-9.508923358E-1,1.599345920E0,8.460784981E0
6.627681083E0,-7.667643335E0,-4.699750451E0,1.196191803E0,9.072556610E0
6.637708083E0,-6.212949051E0,-8.440766281E0,-8.599687171E-1,1.051602670E1
6.647735083E0,-2.944231248E0,-1.248746694E1,-8.278834076E0,1.526906749E1
6.657761083E0,7.102811658E0,-1.382660563E1,-6.037630230E0,1.667566897E1
6.667788083E0,9.129547820E0,-9.589700303E0,1.180334154E1,1.773780897E1
6.677815083E0,2.939682992E0,-3.545723505E0,1.535376504E1,1.602972215E1
6.687842083E0,-2.478998997E0,2.360525637E0,8.736148320E0,9.382846305E0
6.697868083E0,-6.432045391E0,7.450443832E0,-3.015958750E-1,9.847399722E0
6.707895083E0,-9.662651335E0,1.053205863E1,-5.316562121E0,1.524981713E1
6.717922083E0,-9.759141503E0,1.138767936E1,2.894572015E-1,1.500012898E1
6.727949083E0,-8.204112507E0,1.086868283E1,7.160358785E0,1.538526784E1
6.737976083E0,-6.665629377E0,9.185590459E0,9.287548943E0,1.466506912E1
6.748002083E0,-5.429473025E0,6.378008932E0,8.515725832E0,1.194469597E1
6.758029083E0,-4.556300417E0,3.329146730E0,8.020249150E0,9.806502326E0
6.768056083E0,-3.584021598E0,-2.999563158E-2,7.041453316E0,7.901150255E0
6.778083083E0,-1.706272637E0,-3.616762497E0,5.623724545E0,6.900624250E0
6.788110083E0,3.730880266E-1,-6.493393793E0,3.296564291E0,7.291823760E0
6.798136083E0,2.274820366E0,-8.373139139E0,4.212064819E-1,8.686868345E0
6.808163083E0,3.485203069E0,-8.803704126E0,-9.357158875E-1,9.514589376E0
6.818190083E0,3.552831965E0,-6.878015453E0,6.659624141E-2,7.741714707E0
6.828217083E0,2.340674924E0,-3.348211577E0,1.079942139E0,4.225583379E0
6.838243083E0,1.134779228E0,-5.160495257E-1,1.773743513E0,2.167993786E0
6.848270083E0,6.015749949E-1,1.151741270E0,2.296569961E0,2.638680355E0
6.858297083E0,1.489298983E-1,2.014613714E0,2.256114246E0,3.028349389E0
6.868324083E0,-3.151022123E-1,2.373034585E0,1.797127113E0,2.993367402E0
6.878351083E0,-1.030677009E0,2.446845158E0,1.379013771E0,2.991826416E0
6.888377083E0,-1.703119380E0,2.332644943E0,9.573973632E-1,3.042771395E0
6.898404083E0,-1.904347799E0,2.168370928E0,2.002688903E-1,2.892832634E0
6.908431083E0,-2.070192084E0,1.841229152E0,-2.033123660E-1,2.777976957E0
6.918458083E0,-2.466718090E0,1.285910895E0,-3.455202321E-1,2.803149870E0
6.928484083E0,-2.827011824E0,6.802896273E-1,-3.389888922E-1,2.927405557E0
6.938511083E0,-3.008685691E0,2.105518037E-1,-3.960466073E-1,3.041935990E0
6.948538083E0,-2.827238696E0,-5.354003012E-2,-5.254875165E-1,2.876157559E0
6.958565083E0,-2.152216533E0,-2.966877222E-2,-6.225353627E-1,2.240639756E0
6.968592083E0,-1.175135907E0,2.602736020E-1,-6.836003208E-1,1.384195125E0
6.978618083E0,5.483226478E-4,6.120760095E-1,-7.824593420E-1,9.934183228E-1
6.988645083E0,1.018028092E0,7.893121326E-1,-8.876374492E-1,1.564383291E0
6.998672083E0,1.635225313E0,7.822989821E-1,-9.448837370E-1,2.044201261E0
7.008699083E0,2.006401885E0,6.962630510E-1,-8.421083969E-1,2.284639427E0
7.018725083E0,2.175597063E0,5.978930032E-1,-6.911053683E-1,2.359729911E0
7.028752083E0,2.277419453E0,4.643513685E-1,-6.572960365E-1,2.415429493E0
7.038779083E0,2.410428991E0,2.712535036E-1,-8.525380754E-1,2.571102401E0
7.048806083E0,2.647846412E0,1.767110431E-1,-1.403305006E0,3.001929771E0
7.058833083E0,3.028467699E0,1.709293163E-1,-2.158149556E0,3.722692969E0
7.068859083E0,3.597069367E0,1.406471711E-1,-2.707649102E0,4.504448171E0
7.078886083E0,4.310408042E0,-2.101957083E-2,-2.513634394E0,4.989831378E0
7.088913083E0,4.831908050E0,-1.376627523E-1,-1.648651689E0,5.107282921E0
7.098940083E0,5.006949129E0,3.371738434E-2,-8.185487956E-1,5.073529202E0
7.108966083E0,5.063734363E0,4.856568682E-1,-6.191109408E-1,5.124506479E0
7.118993083E0,5.230390534E0,9.439639699E-1,-1.052285540E0,5.418058506E0
7.129020083E0,5.609116446E0,1.130738656E0,-1.719564967E0,5.974751952E0
7.139047083E0,6.029942311E0,9.990289539E-1,-2.234888122E0,6.507917335E0
7.149074083E0,6.354029501E0,6.767924076E-1,-2.499681183E0,6.861497277E0
7.159100083E0,6.603805012E0,1.849468464E-1,-2.836681364E0,7.189659737E0
7.169127083E0,6.745194195E0,-5.688960761E-1,-3.421273706E0,7.584616091E0
7.179154083E0,6.947649944E0,-1.696243932E0,-4.014792992E0,8.201563631E0
7.189181083E0,7.398000154E0,-3.234137077E0,-4.756843250E0,9.371104877E0
7.199208083E0,7.904401774E0,-5.016958977E0,-5.872753367E0,1.105163684E1
7.209234083E0,7.811865494E0,-6.589941264E0,-6.464106259E0,1.209285897E1
7.219261083E0,6.517289609E0,-7.489051827E0,-5.677536471E0,1.143658085E1
7.229288083E0,4.189763319E0,-7.639100152E0,-3.907645104E0,9.548804012E0
7.239315375E0,1.228187913E0,-7.268984265E0,-2.323293491E0,7.729441793E0
7.249341375E0,-8.836541797E-1,-6.810795277E0,-1.046455720E0,6.947146651E0
7.259368375E0,-2.185157260E0,-6.749322329E0,1.861671603E-1,7.096683899E0
7.269395375E0,-3.408050228E0,-7.229812598E0,9.899815571E-1,8.053884779E0
7.279422375E0,-4.111227319E0,-7.759942803E0,1.325701783E0,8.881237954E0
7.289449375E0,-4.325286575E0,-7.992105331E0,1.223186059E0,9.169407599E0
7.299475375E0,-4.092133529E0,-7.747972968E0,1.274809957E0,8.854478096E0
7.309502375E0,-3.676917483E0,-6.943393171E0,1.573536018E0,8.012892518E0
7.319529375E0,-3.540804535E0,-5.861234352E0,1.889023708E0,7.103504449E0
7.329556375E0,-3.148753111E0,-4.270132129E0,1.838595128E0,5.615078503E0
7.339582375E0,-2.017066914E0,-2.500755901E0,2.030604680E0,3.800749186E0
7.349609375E0,-1.063409722E0,-9.780912441E-1,2.791871227E0,3.143572437E0
7.359636375E0,-6.947778583E-2,2.214749873E-1,3.117701472E0,3.126330245E0
7.369663375E0,1.158497728E0,9.537668270E-1,2.730553523E0,3.115719931E0
7.379690375E0,1.731796172E0,1.217822993E0,2.245384605E0,3.086091841E0
7.389716375E0,1.247935861E0,1.256336263E0,2.550578856E0,3.105024512E0
7.399743375E0,1.918500692E-2,1.288055654E0,3.417220708E0,3.651965608E0
7.409770375E0,-1.030026214E0,1.555163482E0,4.331212728E0,4.715812883E0
7.419797375E0,-1.454520914E0,2.100651399E0,4.988932103E0,5.605159312E0
7.429823375E0,-1.619116234E0,2.734879586E0,5.295096408E0,6.175690220E0
7.439850375E0,-1.920581716E0,3.356759037E0,5.303906407E0,6.564136542E0
7.449877375E0,-2.522022225E0,3.923594554E0,5.047719424E0,6.872747756E0
7.459904375E0,-3.344766105E0,4.401388671E0,4.772283407E0,7.303038508E0
7.469931375E0,-4.270708079E0,4.776189348E0,4.694124553E0,7.942653052E0
7.479957375E0,-5.136320529E0,5.098275620E0,4.668214079E0,8.611993124E0
7.489984375E0,-5.865618010E0,5.438670695E0,4.595308363E0,9.225045935E0
7.500011375E0,-6.470118366E0,5.814147309E0,4.346350292E0,9.724068154E0
7.510038375E0,-6.966391439E0,6.154130155E0,4.027787259E0,1.013049840E1
7.520064375E0,-7.269008238E0,6.366253105E0,3.709862742E0,1.035039811E1
7.530091375E0,-7.197730680E0,6.394378213E0,3.374047207E0,1.020194071E1
7.540118375E0,-6.835135481E0,6.214001550E0,3.103477243E0,9.744971181E0
7.550145375E0,-6.291207601E0,5.735760705E0,2.915048672E0,8.998652827E0
7.560172375E0,-5.589701936E0,4.932552080E0,2.584343019E0,7.890099277E0
7.570198375E0,-4.703133358E0,3.811094125E0,2.008477938E0,6.377921718E0
7.580225375E0,-3.428834156E0,2.608390862E0,1.012086517E0,4.425485926E0
7.590252375E0,-1.904987776E0,1.404981841E0,-6.861532152E-1,2.464499672E0
7.600279375E0,-2.959746543E-1,-5.445044160E-2,-3.351017071E0,3.364503122E0
7.610305375E0,1.593716514E0,-2.165944918E0,-7.114407856E0,7.605659002E0
7.620332375E0,4.611086489E0,-5.332135010E0,-1.114166711E1,1.318448059E1
7.630359375E0,9.024702566E0,-8.718140650E0,-1.148506590E1,1.701052532E1
7.640386375E0,1.294497766E1,-1.059464839E1,-8.002889936E0,1.854360451E1
7.650413375E0,1.476923409E1,-1.042276715E1,-6.736312859E0,1.929098913E1
7.660439375E0,1.142520562E1,-7.802257934E0,-6.180369535E0,1.515280567E1
7.670466375E0,5.583301574E0,-3.447182719E0,-5.004826005E0,8.252551635E0
7.680493375E0,2.651306502E0,2.283320171E-1,-3.838665209E0,4.670857765E0
7.690520375E0,1.706083041E-1,2.182638718E0,-2.791529750E0,3.547626997E0
7.700546375E0,-3.287166938E0,1.459485492E0,-1.452579638E0,3.878859624E0
7.710573375E0,-5.755905533E0,-1.492935074E0,6.142453265E-1,5.978009782E0
7.720600375E0,-6.843281822E0,-4.108429134E0,1.832533904E0,8.189497943E0
7.730627375E0,-7.441842577E0,-6.004127439E0,1.258005059E0,9.644332220E0
7.740654375E0,-7.804081095E0,-7.681740387E0,-3.378603065E0,1.145983315E1
7.750680375E0,-6.861253824E0,-9.346411693E0,-1.147305455E1,1.631144372E1
7.760707375E0,3.286855281E0,-8.382499947E0,-7.104751765E0,1.146940367E1
7.770734375E0,7.613871170E0,-4.764732898E0,1.066486761E1,1.394321035E1
7.780761375E0,1.607218027E0,-7.319158638E-1,1.762884298E1,1.771708089E1
7.790788375E0,-2.473470162E0,2.778210962E0,1.315245441E1,1.366834181E1
7.800814375E0,-4.331446032E0,6.031507611E0,6.375068368E0,9.786828162E0
7.810841375E0,-6.748269246E0,8.733463864E0,-2.974331253E0,1.143062445E1
7.820868375E0,-8.381864355E0,9.225079045E0,-4.243996829E0,1.316697545E1
7.830895375E0,-6.909438390E0,7.580027486E0,3.348201052E0,1.078923565E1
7.840921375E0,-4.951267848E0,5.186715927E0,6.951942970E0,9.987321285E0
7.850948375E0,-3.964344969E0,2.456798288E0,6.727854277E0,8.186324696E0
7.860975375E0,-2.974450536E0,-3.736060899E-1,5.509664079E0,6.272426625E0
7.871002375E0,-1.068585092E0,-3.001848249E0,3.432885107E0,4.683766344E0
7.881029375E0,1.290608549E0,-4.816285459E0,1.197217405E0,5.127924099E0
7.891055375E0,2.808516496E0,-5.383481750E0,4.899919939E-1,6.091775834E0
7.901082375E0,2.628136910E0,-4.548647289E0,1.007217979E0,5.348998396E0
7.911109375E0,1.199299891E0,-2.735430978E0,1.369117359E0,3.285633151E0
7.921136375E0,-5.360815018E-2,-1.023353371E0,1.362728691E0,1.705038252E0
7.931162375E0,-5.316884887E-1,3.782622278E-2,1.457452415E0,1.551866945E0
7.941189375E0,-5.572412597E-1,6.275875032E-1,1.530488816E0,1.745502768E0
7.951216375E0,-5.195575628E-1,9.883589548E-1,1.550968689E0,1.911098469E0
7.961243375E0,-6.156941204E-1,1.184757573E0,1.616056970E0,2.096275241E0
7.971270375E0,-9.457276364E-1,1.311793011E0,1.874230837E0,2.475468218E0
7.981296375E0,-1.140900093E0,1.430344723E0,1.823171781E0,2.582923613E0
7.991323375E0,-1.152382125E0,1.415733116E0,1.510879594E0,2.369607977E0
8.001350375E0,-1.351001077E0,1.261831477E0,1.189525977E0,2.198270829E0
8.011377375E0,-1.705292498E0,1.064232425E0,7.720311253E-1,2.153287072E0
8.021404375E0,-1.971097566E0,8.920161366E-1,4.450918096E-1,2.208851539E0
8.031430375E0,-2.001662716E0,6.818362159E-1,1.592103267E-1,2.120590055E0
8.041457375E0,-1.857561595E0,5.501715374E-1,-1.618585306E-1,1.944073554E0
8.051484375E0,-1.457461625E0,5.686423069E-1,-3.768628429E-1,1.609215356E0
8.061511375E0,-7.702181961E-1,6.408501577E-1,-4.798200314E-1,1.110924055E0
8.071537375E0,-2.397694632E-2,6.645027298E-1,-5.750539251E-1,8.791051067E-1
8.081564375E0,5.963737504E-1,7.054811865E-1,-7.688043393E-1,1.201842530E0
8.091591375E0,1.028080406E0,7.539318001E-1,-9.459906149E-1,1.587532905E0
8.101618375E0,1.250595175E0,8.103252715E-1,-9.699840796E-1,1.778056369E0
8.111645375E0,1.253706771E0,8.633437300E-1,-8.642282675E-1,1.750438105E0
8.121671375E0,1.075791713E0,8.980913937E-1,-8.380913597E-1,1.632878773E0
8.131698375E0,8.807212894E-1,8.833686894E-1,-1.015881945E0,1.608734396E0
8.141725375E0,7.663719707E-1,7.136865842E-1,-1.457597572E0,1.794788350E0
8.151752375E0,8.219923671E-1,3.843029863E-1,-1.911525548E0,2.115960812E0
8.161778375E0,1.039660598E0,6.340311348E-2,-2.108855920E0,2.352060247E0
8.171805375E0,1.487706786E0,-1.699686188E-1,-1.933085402E0,2.445195285E0
8.181832375E0,2.243146291E0,-4.519295436E-1,-1.388057368E0,2.676312547E0
8.191859375E0,2.996053659E0,-6.059364331E-1,-7.967126611E-1,3.158836424E0
8.201886375E0,3.571938327E0,-4.256504023E-1,-4.158270800E-1,3.621164707E0
8.211912375E0,4.028113826E0,-1.079717606E-1,-2.007501161E-1,4.034558155E0
8.221939375E0,4.413125203E0,2.110570031E-1,-1.230198625E-1,4.419881559E0
8.231966375E0,4.768813670E0,3.811548454E-1,-1.327236092E-1,4.785862345E0
8.241994250E0,5.055710229E0,3.110981852E-1,-4.372708663E-1,5.084111900E0
8.252020250E0,5.231663473E0,1.353571951E-2,-1.089411997E0,5.343903481E0
8.262047250E0,5.246653980E0,-3.036558491E-1,-1.849942234E0,5.571523233E0
8.272074250E0,5.127083682E0,-6.085021913E-1,-2.629195840E0,5.793956573E0
8.282101250E0,5.153228922E0,-9.891541761E-1,-3.439545670E0,6.274126930E0
8.292128250E0,5.488411204E0,-1.594487761E0,-4.127227055E0,7.049755452E0
8.302154250E0,6.064606944E0,-2.202470135E0,-4.194910038E0,7.695947136E0
8.312181250E0,6.778342060E0,-2.556486883E0,-3.689975485E0,8.130034769E0
8.322208250E0,7.320453796E0,-3.049750979E0,-3.582100203E0,8.701808242E0
8.332235250E0,7.745673843E0,-3.992006977E0,-5.023695554E0,1.005828514E1
8.342261250E0,7.435255689E0,-4.983279015E0,-6.602667144E0,1.112255862E1
8.352288250E0,5.861231428E0,-5.331780669E0,-5.982024379E0,9.928068021E0
8.362315250E0,3.767973248E0,-5.122700610E0,-3.949581335E0,7.485911879E0
8.372342250E0,1.511884146E0,-4.944440639E0,-2.473210253E0,5.731496825E0
8.382369250E0,-2.277318004E-1,-5.037277467E0,-1.207824254E0,5.185061762E0
8.392395250E0,-1.605578468E0,-5.589977925E0,1.267389474E-1,5.817370383E0
8.402422250E0,-2.919110148E0,-6.613561676E0,1.097761529E0,7.312009469E0
8.412449250E0,-4.049956393E0,-7.687792840E0,1.236967946E0,8.776924019E0
8.422476250E0,-4.557267839E0,-8.397681073E0,8.566065681E-1,9.592888636E0
8.432503250E0,-4.285788049E0,-8.390739259E0,4.107377001E-1,9.430863691E0
8.442529250E0,-3.574970108E0,-7.421995373E0,1.235095668E-1,8.239033997E0
8.452556250E0,-3.070509179E0,-5.901148615E0,-1.199239811E-1,6.653267119E0
8.462583250E0,-3.011739107E0,-4.208796591E0,3.779722059E-1,5.189162185E0
8.472610250E0,-2.760529859E0,-2.512087805E0,1.553184053E0,4.042708368E0
8.482636250E0,-1.864817112E0,-1.003472253E0,2.470530474E0,3.253923824E0
8.492663250E0,-6.145786178E-1,2.739677811E-1,2.660101006E0,2.743884580E0
8.502690250E0,7.917434049E-1,1.012172910E0,2.455011964E0,2.770998983E0
8.512717250E0,1.421397606E0,1.005460306E0,2.619475137E0,3.145309456E0
8.522744250E0,9.308925194E-1,6.628625858E-1,3.264959798E0,3.459177672E0
8.532770250E0,-1.262934262E-1,3.973031008E-1,4.096672137E0,4.117829815E0
8.542797250E0,-7.166803586E-1,5.823809248E-1,4.921756951E0,5.007643134E0
8.552824250E0,-7.654432136E-1,1.181564409E0,5.425149593E0,5.604841289E0
8.562851250E0,-8.115204424E-1,1.893168799E0,5.560995616E0,5.930204530E0
8.572877250E0,-1.226666029E0,2.597225604E0,5.434665352E0,6.147021870E0
8.582904250E0,-2.083062098E0,3.245508158E0,5.145563807E0,6.430341966E0
8.592931250E0,-3.206912149E0,3.784017423E0,4.952936643E0,7.009611600E0
8.602958250E0,-4.181241879E0,4.179794986E0,4.891016384E0,7.673037928E0
8.612985250E0,-4.930514910E0,4.594876546E0,4.763088953E0,8.252871266E0
8.623011250E0,-5.619396436E0,5.014722417E0,4.562609856E0,8.805820003E0
8.633038250E0,-6.244492441E0,5.467008641E0,4.230473973E0,9.315512834E0
8.643065250E0,-6.834902762E0,5.915059726E0,3.839370383E0,9.820620768E0
8.653092250E0,-7.115222958E0,6.262549227E0,3.492887772E0,1.010179121E1
8.663118250E0,-6.844493950E0,6.395408492E0,3.199504604E0,9.898746230E0
8.673145250E0,-6.232443084E0,6.262978998E0,3.006293595E0,9.333062407E0
8.683172250E0,-5.494343204E0,5.864333961E0,2.712056733E0,8.481360255E0
8.693199250E0,-4.742492721E0,5.155198849E0,2.248763711E0,7.356918554E0
8.703226250E0,-3.860175653E0,4.201196964E0,1.627647321E0,5.932979674E0
8.713252250E0,-2.694068067E0,3.261747630E0,8.584262216E-1,4.316699657E0
8.723279250E0,-1.385425828E0,2.170001716E0,-1.582911444E-1,2.579412386E0
8.733306250E0,2.805108154E-1,7.740953386E-1,-1.526617814E0,1.734494699E0
8.743333250E0,2.356588122E0,-1.025818557E0,-3.436623816E0,4.291409389E0
8.753359250E0,4.835086597E0,-3.374067380E0,-6.045954326E0,8.444877548E0
8.763386250E0,7.884203737E0,-6.019632500E0,-8.470874180E0,1.304424599E1
8.773413250E0,1.087616376E1,-7.971654695E0,-8.785702304E0,1.609430898E1
8.783440250E0,1.245464418E1,-8.604616374E0,-8.587609162E0,1.740415513E1
8.793467250E0,1.100158420E1,-7.553550124E0,-8.254544742E0,1.569166923E1
8.803493250E0,6.621405716E0,-4.534474808E0,-6.684391923E0,1.044440380E1
8.813520250E0,3.110326087E0,-9.287612092E-1,-5.211619803E0,6.139845822E0
8.823547250E0,8.449007347E-1,1.223714647E0,-4.192070045E0,4.448009224E0
8.833574250E0,-1.979243614E0,8.248491704E-1,-2.488877575E0,3.285162557E0
8.843601250E0,-4.602272396E0,-2.179589980E0,-8.041894957E-2,5.092935391E0
8.853627250E0,-5.314968170E0,-5.323911486E0,1.670563838E0,7.706082253E0
8.863654250E0,-5.452491174E0,-7.134010062E0,1.004358837E0,9.035070351E0
8.873681250E0,-5.031720858E0,-8.322627382E0,-1.398324201E0,9.825459374E0
8.883708250E0,-2.658758193E-2,-8.348872025E0,-4.215836638E0,9.352948709E0
8.893734250E0,5.662954684E0,-6.358881521E0,1.034650192E-1,8.515581892E0
8.903761250E0,1.115488825E0,-2.678572653E0,7.584205906E0,8.120298394E0
8.913788250E0,-5.080984819E0,1.238456063E0,8.706649117E0,1.015657024E1
8.923815250E0,-7.508291506E0,4.673295309E0,7.570765496E0,1.164176192E1
8.933842250E0,-8.441442804E0,7.458636950E0,3.435760767E0,1.177682783E1
8.943868250E0,-8.416910226E0,8.479319898E0,2.454016768E0,1.219694396E1
8.953895250E0,-7.469105805E0,7.802842070E0,5.362440544E0,1.205933889E1
8.963922250E0,-6.344944682E0,6.073415190E0,6.477033284E0,1.091314140E1
8.973949250E0,-5.210093679E0,3.220341157E0,6.629918092E0,9.026155728E0
8.983975250E0,-4.071807730E0,5.851074815E-2,7.293042634E0,8.352934368E0
8.994002250E0,-2.588865547E0,-2.739992976E0,7.120305358E0,8.056583316E0
9.004029250E0,-7.016547686E-1,-4.911834810E0,6.282639091E0,8.005622685E0
9.014056250E0,1.041294090E0,-6.176112762E0,4.423939043E0,7.668109212E0
9.024083250E0,2.652368648E0,-6.819453834E0,6.166111100E-1,7.343038833E0
9.034109250E0,2.948505855E0,-6.249438016E0,-2.729172703E0,7.429505094E0
9.044136250E0,1.155014249E0,-3.615189596E0,-2.040957760E0,4.309195088E0
9.054163250E0,-2.523246047E-1,-1.072136691E0,-5.951880813E-2,1.103035484E0
9.064190250E0,-7.159386393E-1,3.441899174E-1,1.423316370E0,1.629989057E0
9.074216250E0,-7.243459122E-1,1.140732717E0,2.295568918E0,2.663753891E0
9.084243250E0,-5.774340342E-1,1.606715459E0,2.327105291E0,2.886240403E0
9.094270250E0,-6.045589752E-1,1.919160842E0,1.867412399E0,2.745159187E0
9.104297250E0,-8.510676469E-1,2.026333289E0,1.480272928E0,2.649820877E0
9.114324250E0,-9.796527430E-1,2.030115268E0,9.713271850E-1,2.454498726E0
9.124350250E0,-7.752646355E-1,1.862517695E0,4.570967281E-1,2.068561055E0
9.134377250E0,-8.268616359E-1,1.599721604E0,1.773653466E-1,1.809493808E0
9.144404250E0,-1.136357830E0,1.245752803E0,-9.179317273E-2,1.688678522E0
9.154431250E0,-1.308404403E0,8.482438803E-1,-2.271515373E-1,1.575765713E0
9.164457250E0,-1.314721150E0,5.144842261E-1,-2.741795234E-1,1.438179451E0
9.174484250E0,-1.032610975E0,2.950972795E-1,-3.334703632E-1,1.124531153E0
9.184511250E0,-4.287276457E-1,2.577306479E-1,-4.051734531E-1,6.437375305E-1
9.194538250E0,3.189360854E-1,4.405438453E-1,-5.067037748E-1,7.433356049E-1
9.204565250E0,1.027293810E0,7.295389706E-1,-5.846484751E-1,1.389018906E0
9.214591250E0,1.511722616E0,9.030381382E-1,-7.023027863E-1,1.895788056E0
9.224618250E0,1.742117385E0,9.129287034E-1,-8.797081862E-1,2.154599335E0
9.234645250E0,1.696821198E0,9.093601477E-1,-1.037945682E0,2.187114377E0
9.244671458E0,1.370318816E0,9.143185866E-1,-1.118061746E0,1.990932998E0
9.254698458E0,1.027342488E0,7.822983974E-1,-1.067322240E0,1.675291059E0
9.264724458E0,8.936108185E-1,4.778052270E-1,-9.085960628E-1,1.361023488E0
9.274751458E0,9.217878930E-1,1.119940603E-1,-7.648001660E-1,1.202977507E0
9.284778458E0,1.084832897E0,-8.569854677E-2,-6.716464193E-1,1.278794576E0
9.294805458E0,1.408365917E0,-1.091996759E-1,-7.767261471E-1,1.612055406E0
9.304831458E0,1.862615928E0,-1.195363837E-1,-1.129033608E0,2.181362861E0
9.314858458E0,2.314781407E0,-1.530146170E-1,-1.577266103E0,2.805244160E0
9.324885458E0,2.916072227E0,-9.951785624E-2,-1.772735745E0,3.414084513E0
9.334912458E0,3.808465801E0,3.387175083E-2,-1.498503962E0,4.092807494E0
9.344939458E0,4.638897893E0,2.373332208E-1,-9.536833580E-1,4.741857513E0
9.354965458E0,5.115124372E0,4.527048844E-1,-5.089729330E-1,5.160280274E0
9.364992458E0,5.519456996E0,5.446552742E-1,-3.533677071E-1,5.557510561E0
9.375019458E0,5.911815691E0,5.544259715E-1,-6.395871592E-1,5.972103872E0
9.385046458E0,6.268185359E0,4.720831418E-1,-1.244614350E0,6.407969652E0
9.395072458E0,6.603387521E0,2.812803090E-1,-1.859556080E0,6.865988216E0
9.405099458E0,6.784123787E0,-1.502003521E-1,-2.425820617E0,7.206351460E0
9.415126458E0,6.807299227E0,-7.585166019E-1,-2.815900652E0,7.405671251E0
9.425153458E0,6.799872093E0,-1.282744628E0,-2.895228073E0,7.501069248E0
9.435180458E0,7.043795711E0,-1.881429344E0,-2.952409456E0,7.865847443E0
9.445206458E0,7.530800947E0,-2.918036014E0,-3.688306689E0,8.878710679E0
9.455233458E0,7.481770290E0,-4.221758698E0,-6.397792402E0,1.071129688E1
9.465260458E0,6.227112177E0,-5.290098792E0,-8.184627830E0,1.156504233E1
9.475287458E0,4.595332336E0,-5.606886903E0,-6.008611668E0,9.415820421E0
9.485314458E0,2.882568558E0,-5.291688650E0,-2.467389935E0,6.511465531E0
9.495340458E0,9.790424399E-1,-5.041486877E0,-2.370619466E-1,5.141139212E0
9.505367458E0,-3.540375057E-1,-5.201777769E0,7.732814062E-1,5.270844207E0
9.515394458E0,-1.522290435E0,-5.936240095E0,1.024097137E0,6.213299412E0
9.525421458E0,-2.833689344E0,-6.920765031E0,1.096522504E0,7.558382467E0
9.535447458E0,-4.062984866E0,-7.687103453E0,9.112990844E-1,8.742417946E0
9.545474458E0,-4.416093542E0,-7.829593667E0,7.898839903E-1,9.023765061E0
9.555501458E0,-3.988290779E0,-7.002814915E0,8.055534319E-1,8.099061452E0
9.565528458E0,-3.501296945E0,-5.559522117E0,8.442000190E-1,6.624201095E0
9.575555458E0,-3.348528788E0,-3.962351069E0,6.985444884E-1,5.234580732E0
9.585581458E0,-2.980276409E0,-2.347585164E0,8.208637083E-1,3.881626051E0
9.595608458E0,-2.279560703E0,-8.156251878E-1,1.513733035E0,2.855350968E0
9.605635458E0,-1.230008590E0,4.447900933E-1,2.184539648E0,2.546168265E0
9.615662458E0,-3.101684779E-2,1.186222301E0,2.568435084E0,2.829301004E0
9.625688458E0,8.214554465E-1,1.458966259E0,2.747488814E0,3.217462724E0
9.635715458E0,1.004562174E0,1.491156351E0,2.937820069E0,3.444340166E0
9.645742458E0,5.936587420E-1,1.418606438E0,3.220858928E0,3.569146559E0
9.655769458E0,-2.283518976E-1,1.437756654E0,3.763497497E0,4.035244998E0
9.665796458E0,-7.422040397E-1,1.700309501E0,4.463133515E0,4.833371494E0
9.675822458E0,-9.150775552E-1,2.133385867E0,4.931389654E0,5.450440909E0
9.685849458E0,-1.079755613E0,2.580462806E0,4.955947959E0,5.690876967E0
9.695876458E0,-1.567282129E0,2.892899419E0,4.674821140E0,5.716571788E0
9.705903458E0,-2.437138487E0,3.073506462E0,4.385047750E0,5.883428401E0
9.715929458E0,-3.464902413E0,3.185195882E0,4.377235285E0,6.427379737E0
9.725956458E0,-4.277747835E0,3.379583643E0,4.491089053E0,7.063327333E0
9.735983458E0,-4.765205353E0,3.782188414E0,4.589934187E0,7.620999088E0
9.746010458E0,-5.102959825E0,4.299442466E0,4.442382916E0,8.016244162E0
9.756037458E0,-5.461698784E0,4.777955207E0,4.076390778E0,8.323218809E0
9.766063458E0,-5.931136061E0,5.098513017E0,3.694038130E0,8.649805065E0
9.776090458E0,-6.308303690E0,5.222923055E0,3.308096169E0,8.832730096E0
9.786117458E0,-6.305095907E0,5.053425722E0,2.936511169E0,8.597350975E0
9.796144458E0,-5.915308818E0,4.602565634E0,2.686616668E0,7.961934309E0
9.806171458E0,-5.292950479E0,3.986749746E0,2.412647717E0,7.051976129E0
9.816197458E0,-4.542170621E0,3.303473945E0,1.888076167E0,5.925292032E0
9.826224458E0,-3.649694308E0,2.639561200E0,1.066520148E0,4.628716571E0
9.836251458E0,-2.667464990E0,2.023311448E0,-1.490388027E-1,3.351323806E0
9.846278458E0,-1.453704058E0,1.147813110E0,-1.996977635E0,2.723719901E0
9.856304458E0,3.309354490E-1,-2.440183425E-1,-4.597987264E0,4.616335138E0
9.866331458E0,2.783683371E0,-2.303184332E0,-8.012665311E0,8.789559520E0
9.876358458E0,6.081075042E0,-4.957636051E0,-1.080031017E1,1.334931941E1
9.886385458E0,9.952249893E0,-7.155775738E0,-9.546726776E0,1.553680780E1
9.896412458E0,1.296721579E1,-7.931377319E0,-6.325486318E0,1.646411882E1
9.906438458E0,1.326203006E1,-7.006408029E0,-5.466204064E0,1.596404027E1
9.916465458E0,8.929110530E0,-4.210592855E0,-5.476184092E0,1.128922935E1
9.926492458E0,4.233269235E0,-6.568726981E-1,-4.617985034E0,6.299034524E0
9.936519458E0,1.802220622E0,1.637021577E0,-3.313727038E0,4.112009934E0
9.946545458E0,-8.788499612E-1,1.059226624E0,-1.965673689E0,2.399627335E0
9.956572458E0,-3.262966482E0,-2.285854354E0,1.737852426E-1,3.987766505E0
9.966599458E0,-4.216595899E0,-5.262016954E0,1.886811122E0,7.002039675E0
9.976626458E0,-5.122491864E0,-7.113243676E0,1.565187364E0,8.904379258E0
9.986653458E0,-6.733067654E0,-9.167688623E0,-2.052690636E0,1.155829804E1
9.996679458E0,-5.781067271E0,-1.007560392E1,-7.787994236E0,1.398539908E1
1.000670646E1,2.134017951E0,-6.918036135E0,-2.573916264E0,7.683638560E0
1.001673346E1,3.163624042E0,-2.478525372E0,8.002475953E0,8.954955415E0
1.002676046E1,-2.337856859E0,1.376695350E0,1.136462495E1,1.168398755E1
1.003678646E1,-5.639526646E0,4.713447554E0,9.356385874E0,1.189801686E1
1.004681346E1,-7.077675063E0,7.670894971E0,5.321359177E0,1.171550159E1
1.005684046E1,-8.223515323E0,9.325930651E0,1.418980221E0,1.251449926E1
1.006686746E1,-8.203424875E0,8.993049833E0,1.576957809E0,1.227427883E1
1.007689446E1,-7.217203077E0,7.046372579E0,4.318488017E0,1.097217962E1
1.008692046E1,-6.020867432E0,3.971551078E0,6.118315959E0,9.458216152E0
1.009694746E1,-4.608194749E0,6.351233947E-1,7.250750892E0,8.614651999E0
1.010697446E1,-2.801489897E0,-2.529013740E0,7.554162912E0,8.444503150E0
1.011700146E1,-2.859042871E-1,-5.159435742E0,6.959035642E0,8.667738777E0
1.012702746E1,2.422287144E0,-6.798619035E0,5.472570512E0,9.057467847E0
1.013705446E1,4.661084569E0,-7.264055062E0,2.012687641E0,8.862455463E0
1.014708146E1,5.524322464E0,-6.163098614E0,-1.408845681E0,8.395639902E0
1.015710846E1,3.203542399E0,-3.325094610E0,-1.485936542E0,4.850458274E0
1.016713546E1,4.086966929E-1,-7.781591535E-1,-1.421235748E-1,8.903728238E-1
1.017716146E1,-7.373645917E-1,5.240227890E-1,9.103857493E-1,1.283397303E0
1.018718846E1,-1.017900842E0,1.227236425E0,1.593154011E0,2.253967851E0
1.019721546E1,-1.059755504E0,1.608690063E0,1.653524759E0,2.538722036E0
1.020724246E1,-1.394869374E0,1.707544261E0,1.328744089E0,2.574282196E0
1.021726946E1,-1.911782387E0,1.546747584E0,1.000159221E0,2.654742634E0
1.022729546E1,-2.190623676E0,1.281482799E0,5.031634319E-1,2.587315925E0
1.023732246E1,-2.007861642E0,1.015381277E0,-1.801929139E-2,2.250073822E0
1.024734971E1,-1.995495658E0,8.121683139E-1,-4.864123285E-2,2.154991012E0
1.025737671E1,-2.078190782E0,6.045465499E-1,2.328470908E-2,2.164461974E0
1.026740271E1,-1.971074616E0,4.101272142E-1,1.359658172E-1,2.017876650E0
1.027742971E1,-1.721898152E0,3.065683472E-1,3.011864968E-1,1.774719894E0
1.028745671E1,-1.251877323E0,2.939032781E-1,3.192661607E-1,1.324955414E0
1.029748371E1,-4.521758576E-1,4.179531276E-1,1.735990819E-1,6.397534402E-1
1.030751071E1,4.697135577E-1,7.264750296E-1,-9.025294304E-2,8.697944519E-1
1.031753671E1,1.181528448E0,1.087382721E0,-4.101870020E-1,1.657306258E0
1.032756371E1,1.631125684E0,1.334456234E0,-7.759133841E-1,2.245748431E0
1.033759071E1,1.833223144E0,1.381574852E0,-9.833402896E-1,2.497281381E0
1.034761771E1,1.810711803E0,1.277538267E0,-9.660737541E-1,2.417453155E0
1.035764371E1,1.594143068E0,1.140309379E0,-8.017748880E-1,2.117649775E0
1.036767071E1,1.360194362E0,9.549315923E-1,-6.483171983E-1,1.783910939E0
1.037769771E1,1.334451849E0,6.348450673E-1,-6.358601439E-1,1.608759807E0
1.038772471E1,1.540598360E0,2.693408793E-1,-8.621029508E-1,1.785835747E0
1.039775171E1,1.956953590E0,1.291924757E-1,-1.332068670E0,2.370815258E0
1.040777771E1,2.491855270E0,1.747703522E-1,-1.885482927E0,3.129685803E0
1.041780471E1,3.090527414E0,1.301426482E-1,-2.342992761E0,3.880452536E0
1.042783171E1,3.597148013E0,-1.035541892E-3,-2.457529775E0,4.356481090E0
1.043785871E1,3.986774012E0,-7.460403979E-2,-2.128569077E0,4.520037511E0
1.044788471E1,4.285066794E0,-4.375939250E-2,-1.477462903E0,4.532836744E0
1.045791171E1,4.446147353E0,2.248482460E-1,-9.518632659E-1,4.552452822E0
1.046793871E1,4.585425691E0,5.774622470E-1,-6.864537621E-1,4.672345255E0
1.047796571E1,4.856758132E0,7.728294164E-1,-6.484708339E-1,4.960431360E0
1.048799271E1,5.218302585E0,7.560964394E-1,-8.622900617E-1,5.342837060E0
1.049801871E1,5.705932889E0,5.273592103E-1,-1.114397589E0,5.837607374E0
1.050804571E1,6.183620587E0,1.329241687E-1,-1.375133121E0,6.336073192E0
1.051807271E1,6.476284840E0,-3.782329917E-1,-1.703888728E0,6.707351364E0
1.052809971E1,6.607923206E0,-8.401332074E-1,-1.884894404E0,6.922665659E0
1.053812671E1,6.742629021E0,-1.283446294E0,-1.706840256E0,7.072735268E0
1.054815271E1,7.174881515E0,-2.146362008E0,-1.565045422E0,7.650827524E0
1.055817971E1,7.624945212E0,-3.381469955E0,-2.274084494E0,8.645553124E0
1.056820671E1,7.249428837E0,-4.861055835E0,-5.307131732E0,1.021517154E1
1.057823371E1,5.176674503E0,-6.387887219E0,-8.582995124E0,1.188574219E1
1.058825971E1,2.482458209E0,-7.153683019E0,-7.933695740E0,1.096728351E1
1.059828671E1,2.378561081E-1,-6.896349397E0,-4.620262232E0,8.304398451E0
1.060831371E1,-1.328424100E0,-6.365307026E0,-1.396240253E0,6.650663950E0
1.061834071E1,-2.736263329E0,-5.926616163E0,9.476155561E-1,6.596202801E0
1.062836771E1,-4.086926583E0,-5.938491274E0,2.099274965E0,7.508368856E0
1.063839371E1,-5.418010143E0,-6.263147398E0,2.198036191E0,8.568151045E0
1.064842071E1,-6.149681593E0,-6.562972151E0,1.328555224E0,9.091548060E0
1.065844771E1,-5.678219426E0,-6.404203289E0,6.258847940E-1,8.581825411E0
1.066847471E1,-4.536825389E0,-5.454375731E0,6.683368222E-1,7.125985780E0
1.067850071E1,-3.665718310E0,-3.996580085E0,7.762530342E-1,5.478385882E0
1.068852771E1,-3.089642438E0,-2.309820921E0,9.019819848E-1,3.961658060E0
1.069855471E1,-2.406233906E0,-5.967522115E-1,1.453752297E0,2.873929462E0
1.070858171E1,-1.392146618E0,7.981162852E-1,2.085197793E0,2.631180656E0
1.071860871E1,-3.804862162E-1,1.444570999E0,2.485596410E0,2.899955973E0
1.072863471E1,8.568129748E-2,1.465033915E0,2.590279112E0,2.977114632E0
1.073866171E1,4.012517256E-1,1.130942724E0,2.763433878E0,3.012739815E0
1.074868871E1,4.432736179E-1,6.649050182E-1,3.202140236E0,3.300347296E0
1.075871571E1,2.814147949E-1,3.820102930E-1,3.794425175E0,3.823975491E0
1.076874171E1,1.991687366E-1,4.369478077E-1,4.350359143E0,4.376781494E0
1.077876871E1,1.797092029E-1,8.232604820E-1,4.712052116E0,4.786803564E0
1.078879571E1,1.829254639E-1,1.385083766E0,4.764404869E0,4.965024926E0
1.079882271E1,-2.433026433E-3,1.871497264E0,4.544508922E0,4.914780694E0
1.080884971E1,-7.267989653E-1,2.226322097E0,4.102207696E0,4.723648463E0
1.081887571E1,-1.918376146E0,2.523947128E0,3.789243080E0,4.940530261E0
1.082890271E1,-3.043591522E0,2.846468434E0,3.745025558E0,5.602771486E0
1.083892971E1,-3.774019854E0,3.244377306E0,3.734543839E0,6.222220476E0
1.084895671E1,-4.272154388E0,3.687460597E0,3.601340174E0,6.694648596E0
1.085898271E1,-4.711592817E0,4.093039262E0,3.417626798E0,7.115634210E0
1.086900971E1,-5.313083612E0,4.375127072E0,3.301057291E0,7.633319959E0
1.087903671E1,-5.800211055E0,4.558566506E0,3.167545477E0,8.028469420E0
1.088906371E1,-5.926633705E0,4.564048855E0,2.791881460E0,7.984367922E0
1.089909071E1,-5.619671255E0,4.366350986E0,2.395925557E0,7.509073526E0
1.090911671E1,-5.059369417E0,4.042266719E0,2.046921920E0,6.791688190E0
1.091914371E1,-4.317876691E0,3.600163422E0,1.599767943E0,5.845040056E0
1.092917071E1,-3.435488872E0,3.033769954E0,1.018631452E0,4.695098929E0
1.093919771E1,-2.720134954E0,2.479514721E0,3.957316616E-1,3.701855071E0
1.094922471E1,-2.119875290E0,1.936905972E0,-3.593979406E-1,2.893897523E0
1.095925071E1,-1.334500965E0,1.309292741E0,-1.539607842E0,2.421886169E0
1.096927771E1,-3.034275153E-1,4.712218469E-1,-3.076742019E0,3.127372657E0
1.097930471E1,1.149192176E0,-6.678110844E-1,-4.576473019E0,4.765576523E0
1.098933171E1,3.055729465E0,-2.084374505E0,-5.961053925E0,7.015430388E0
1.099935771E1,5.330158067E0,-3.547084737E0,-6.726845047E0,9.286702291E0
1.100938471E1,7.363424984E0,-4.725964104E0,-6.498933445E0,1.089912382E1
1.101941171E1,8.739932638E0,-5.257497057E0,-5.829928944E0,1.174801129E1
1.102943871E1,7.953293853E0,-4.649894752E0,-5.437099548E0,1.069759112E1
1.103946571E1,5.101964044E0,-2.968350136E0,-4.490840546E0,7.416790980E0
1.104949171E1,2.470562634E0,-1.232145748E0,-2.822270901E0,3.948047101E0
1.105951871E1,6.873957485E-2,-3.642949837E-1,-1.086169278E0,1.147693193E0
1.106954571E1,-2.183869850E0,-5.955968016E-1,-3.194005005E-1,2.286053313E0
1.107957271E1,-3.378682002E0,-1.502118126E0,1.222244950E-1,3.699566159E0
1.108959871E1,-3.883112234E0,-2.890799099E0,2.177598126E-1,4.845895107E0
1.109962571E1,-4.616529955E0,-5.133923171E0,-9.751519950E-1,6.972835675E0
1.110965271E1,-5.983915368E0,-8.578583400E0,-6.795092579E0,1.247287535E1
1.111967971E1,-4.111486935E0,-1.273438434E1,-1.884107486E1,2.310962940E1
1.112970671E1,2.661243260E0,-1.104630838E1,-3.269568865E0,1.182341850E1
1.113973271E1,1.331686700E0,-4.610684493E0,1.830626045E1,1.892487708E1
1.114975971E1,-2.169494178E0,3.278516275E-1,1.771450469E1,1.784987025E1
1.115978671E1,-3.807892482E0,4.036619478E0,1.115022042E1,1.245478853E1
1.116981371E1,-4.476363132E0,6.999393709E0,6.907839761E0,1.080497984E1
1.117983971E1,-5.131748006E0,9.069078839E0,2.750168885E0,1.077712659E1
1.118986671E1,-6.097207510E0,9.498572032E0,5.074529493E-1,1.129850957E1
1.119989371E1,-5.869570143E0,7.747099979E0,2.259813340E0,9.978785902E0
1.120992071E1,-4.526549200E0,4.599344988E0,4.399987679E0,7.810474604E0
1.121994771E1,-3.157343840E0,1.228613445E0,6.129389416E0,7.003408151E0
1.122997371E1,-1.461025064E0,-1.974725178E0,6.626402746E0,7.067060713E0
1.124000071E1,7.411030090E-1,-4.797963794E0,5.726648405E0,7.507608953E0
1.125002763E1,2.657238502E0,-7.111710536E0,3.383258618E0,8.311665422E0
1.126005462E1,3.337748862E0,-8.189369922E0,7.944502272E-2,8.843792099E0
1.127008162E1,1.939569379E0,-6.442040622E0,-2.340912906E0,7.123320151E0
1.128010762E1,2.356518540E-1,-2.710600777E0,-2.170170701E0,3.480305911E0
1.129013462E1,-4.219730884E-2,-1.799322742E-1,-7.546918651E-1,7.769916649E-1
1.130016162E1,7.449688956E-2,1.103590034E0,6.263117869E-1,1.271112585E0
1.131018863E1,2.628231342E-1,1.708186870E0,1.596444240E0,2.352788259E0
1.132021462E1,3.877722855E-1,1.901001729E0,2.078048987E0,2.842967202E0
1.133024162E1,1.657475138E-1,1.859428026E0,2.172568059E0,2.864436558E0
1.134026862E1,-2.427471578E-1,1.720732656E0,1.914351507E0,2.585457164E0
1.135029562E1,-3.900585468E-1,1.567257863E0,1.129820058E0,1.971024161E0
1.136032262E1,-2.700885920E-1,1.320585469E0,3.358172894E-1,1.389124573E0
1.137034863E1,-2.021405840E-1,9.647233397E-1,3.088264505E-2,9.861570238E-1
1.138037562E1,-1.641757822E-1,6.830237854E-1,5.433934450E-2,7.045764282E-1
1.139040262E1,1.846901536E-2,5.600340360E-1,1.820846343E-1,5.891808212E-1
1.140042962E1,3.361150588E-1,5.594873214E-1,2.079579788E-1,6.850152674E-1
1.141045562E1,7.763894936E-1,5.669711727E-1,4.810444931E-2,9.625751890E-1
1.142048262E1,1.234297377E0,5.897589415E-1,-1.046698380E-1,1.371955319E0
1.143050963E1,1.581516006E0,7.872866571E-1,-2.296949848E-1,1.781508614E0
1.144053662E1,1.832115389E0,1.108616300E0,-3.399436694E-1,2.168233982E0
1.145056362E1,2.018993717E0,1.432101812E0,-3.133692072E-1,2.495085467E0
1.146058962E1,2.216012433E0,1.622628656E0,-2.196693305E-1,2.755338359E0
1.147061662E1,2.451535356E0,1.694340663E0,-2.112920612E-1,2.987550873E0
1.148064362E1,2.713794234E0,1.625857489E0,-3.592938237E-1,3.183894434E0
1.149067063E1,2.969271949E0,1.472016660E0,-8.200252175E-1,3.414066536E0
1.150069762E1,3.224254698E0,1.342359331E0,-1.665510381E0,3.869324458E0
1.151072362E1,3.417636445E0,1.302124055E0,-2.503221672E0,4.431916591E0
1.152075062E1,3.504372581E0,1.236442866E0,-2.791771240E0,4.647946299E0
1.153077762E1,3.566113623E0,9.270696098E-1,-2.461418758E0,4.431163136E0
1.154080462E1,3.775788929E0,4.731952822E-1,-2.222177006E0,4.406650254E0
1.155083062E1,4.162475825E0,9.805078983E-2,-2.655054567E0,4.938130588E0
1.156085762E1,4.419381723E0,-2.734625816E-2,-3.640860043E0,5.726040908E0
1.157088462E1,4.555209035E0,9.788414419E-2,-4.216459951E0,6.207901834E0
1.158091162E1,4.617767810E0,4.538345665E-1,-3.597990596E0,5.871565523E0
1.159093862E1,4.605338969E0,1.106550479E0,-2.659666266E0,5.432073787E0
1.160096462E1,4.304808456E0,1.925761764E0,-3.155221885E0,5.674095467E0
1.161099162E1,3.801295946E0,2.043028843E0,-4.724923300E0,6.399118526E0
1.162101862E1,4.197348327E0,2.656904626E-1,-3.386646495E0,5.399786929E0
1.163104562E1,5.043267939E0,-2.330084447E0,-3.948851310E-2,5.555664171E0
1.164107162E1,5.127437439E0,-4.601833563E0,2.374745042E0,7.287448171E0
1.165109862E1,4.021950276E0,-6.580995609E0,3.629247472E0,8.523908988E0
1.166112562E1,1.952777947E0,-8.053557229E0,4.373389864E0,9.370147526E0
1.167115263E1,-4.551279706E-1,-8.661931366E0,5.449195683E0,1.024353113E1
1.168117962E1,-2.410022902E0,-8.402555312E0,6.094510775E0,1.065618167E1
1.169120562E1,-2.918931516E0,-7.364041865E0,5.635537090E0,9.721550909E0
1.170123262E1,-3.365283985E0,-5.824287550E0,4.389287859E0,8.032017784E0
1.171125962E1,-3.890087669E0,-4.299973978E0,3.040398650E0,6.547257612E0
1.172128662E1,-3.642355760E0,-3.085525414E0,2.048583698E0,5.194604675E0
1.173131262E1,-2.817487294E0,-2.102668689E0,1.847878898E0,3.971662963E0
1.174133962E1,-1.927540487E0,-1.100138422E0,2.359876303E0,3.239557538E0
1.175136662E1,-9.774556518E-1,-1.650943798E-1,2.905840477E0,3.070274350E0
1.176139362E1,-4.549160090E-1,1.267676353E-1,3.148281240E0,3.183503318E0
1.177142062E1,-3.131295079E-1,1.429445422E-1,3.125713327E0,3.144609202E0
1.178144663E1,-7.150296897E-2,3.073664922E-1,3.150686200E0,3.166450752E0
1.179147362E1,3.002048224E-1,6.812573415E-1,3.460338369E0,3.539516369E0
1.180150062E1,6.903523931E-1,1.139656245E0,3.842569979E0,4.067031697E0
1.181152762E1,9.083892176E-1,1.557107096E0,4.090686635E0,4.470287533E0
1.182155362E1,7.572825471E-1,1.872653843E0,4.220162408E0,4.678683578E0
1.183158062E1,2.378211710E-1,2.044407032E0,4.300866848E0,4.767978048E0
1.184160762E1,-5.602299178E-1,2.085764388E0,4.448911332E0,4.945410264E0
1.185163462E1,-1.366861211E0,2.042832962E0,4.701639979E0,5.305364697E0
1.186166162E1,-1.904080873E0,2.061884360E0,4.978901789E0,5.715448723E0
1.187168762E1,-2.359958164E0,2.122962036E0,5.119312148E0,6.023597531E0
1.188171462E1,-2.760043370E0,2.208463531E0,4.905290022E0,6.046240218E0
1.189174162E1,-3.190283252E0,2.285501182E0,4.336384883E0,5.848560227E0
1.190176862E1,-3.825413079E0,2.174984713E0,3.758207814E0,5.786922299E0
1.191179562E1,-4.389625535E0,1.896607547E0,3.423705271E0,5.881130020E0
1.192182162E1,-4.699769747E0,1.510037595E0,3.272722269E0,5.922732500E0
1.193184862E1,-4.727578228E0,1.112843837E0,3.127355225E0,5.776570610E0
1.194187562E1,-4.421568290E0,7.713641042E-1,2.890012064E0,5.338299210E0
1.195190262E1,-3.843926826E0,3.765256047E-1,2.537506821E0,4.621307806E0
1.196192863E1,-2.878086083E0,-1.433860070E-1,2.144192837E0,3.591866085E0
1.197195562E1,-1.477579701E0,-7.151150590E-1,1.255631089E0,2.066698031E0
1.198198262E1,-3.928685725E-2,-1.365666917E0,-2.736110278E-1,1.393360176E0
1.199200962E1,1.885567127E0,-1.881767313E0,-2.855265570E0,3.904990792E0
1.200203662E1,4.911331365E0,-2.319652430E0,-7.758473983E0,9.470790976E0
1.201206262E1,6.766283348E0,-2.648277059E0,-9.102757047E0,1.164715191E1
1.202208963E1,5.554018718E0,-2.556560558E0,-4.615155859E0,7.660469268E0
1.203211662E1,1.755715377E0,-2.583388753E0,2.046819009E0,3.734421239E0
1.204214362E1,-2.668775935E0,-2.738369789E0,7.462630599E0,8.385218515E0
1.205216962E1,-4.898944916E0,-2.178818148E0,8.747425261E0,1.025984203E1
1.206219662E1,-5.039862521E0,-1.302649135E0,7.305925219E0,8.970710803E0
1.207222362E1,-4.622318991E0,-1.093911722E0,5.272375882E0,7.096507813E0
1.208225063E1,-4.765896201E0,-1.659335137E0,1.525779469E0,5.272111786E0
1.209227762E1,-8.740620271E0,-2.864893595E0,-1.138215608E1,1.463419061E1
1.210230362E1,-9.105635047E0,-4.094423883E0,-1.175447519E1,1.542221072E1
1.211233062E1,-5.329451723E0,-4.303433776E0,-4.361205436E0,8.120511732E0
1.212235762E1,-2.210482721E0,-4.724855472E0,-3.889148314E-1,5.230845805E0
1.213238462E1,7.811762436E-1,-5.534972582E0,2.788290392E0,6.246656796E0
1.214241163E1,3.245345897E0,-5.117897707E0,5.045263009E0,7.885418553E0
1.215243762E1,5.042765079E0,-3.054077919E0,6.194725034E0,8.551695143E0
1.216246462E1,6.017452074E0,3.577525342E-1,6.268444390E0,8.696614940E0
1.217249162E1,6.827171574E0,4.064446378E0,5.605475385E0,9.723751866E0
1.218251862E1,7.322188665E0,7.624100874E0,4.428479991E0,1.146092474E1
1.219254462E1,7.511578225E0,1.024669345E1,2.769728991E0,1.300345850E1
1.220257163E1,6.215533521E0,9.227144866E0,1.639042375E0,1.124542215E1
1.221259862E1,3.545936636E0,5.171780384E0,-1.055406053E0,6.358841160E0
1.222262562E1,1.096127232E0,6.926465482E-1,-3.900622598E0,4.110487903E0
1.223265262E1,-1.023309882E-1,-2.367572116E0,-3.146099060E0,3.938757247E0
1.224267862E1,-1.354243212E0,-4.783082630E0,-2.083380844E-1,4.975465695E0
1.225270521E1,-1.275768315E0,-4.526206845E0,2.856779999E0,5.502301805E0
1.226273221E1,-1.133904631E0,-3.000542566E0,4.046636928E0,5.163745330E0
1.227275921E1,-1.996358707E0,-3.173461690E0,3.024923117E0,4.817309108E0
1.228278521E1,-2.612790892E0,-2.378826252E0,1.922757465E0,4.022746183E0
1.229281221E1,-3.146340842E0,-2.831215972E-1,1.362242203E0,3.440250333E0
1.230283921E1,-3.818065175E0,1.850521547E0,1.292900072E0,4.435497974E0
1.231286621E1,-3.213196152E0,3.385980497E0,1.367993524E0,4.864247086E0
1.232289321E1,-1.759263760E0,3.203918082E0,1.237572548E0,3.858974717E0
1.233291921E1,2.414486374E-1,2.411137966E0,5.737685974E-1,2.490199618E0
1.234294621E1,2.007074022E0,1.732225943E0,-2.382225823E-1,2.661898354E0
1.235297321E1,3.172790430E0,1.458047662E0,-2.692524950E-2,3.491880162E0
1.236300021E1,4.153493333E0,2.430474123E0,1.175834137E0,4.953917364E0
1.237302621E1,4.698962247E0,3.197946905E0,1.668018837E0,5.923630428E0
1.238305321E1,4.439328915E0,2.404841684E0,1.442123355E0,5.250773706E0
1.239308021E1,3.900066528E0,1.051926960E0,8.675303364E-1,4.131546700E0
1.240310721E1,3.626837250E0,4.894031793E-1,4.262737520E-1,3.684450193E0
1.241313421E1,2.693041003E0,-1.033908180E0,-1.405916957E-1,2.888113917E0
1.242316021E1,2.344915471E0,-1.194472722E0,-1.994472834E-1,2.639161395E0
1.243318721E1,2.601111371E0,-1.026789195E0,1.270506406E-1,2.799324612E0
1.244321421E1,2.755067682E0,-1.229079468E0,5.885701660E-1,3.073670300E0
1.245324121E1,2.287321274E0,-1.549332054E0,9.006518894E-1,2.905760184E0
1.246326721E1,1.197237578E0,-1.437300571E0,9.372314858E-1,2.092274745E0
1.247329421E1,-1.031356455E0,-1.940183337E0,4.193143594E-1,2.236924686E0
1.248332121E1,-3.751646360E0,-2.362346460E0,-5.542634189E-1,4.467968123E0
1.249334821E1,-4.758461759E0,-1.902168249E0,-9.645928737E-1,5.214560554E0
1.250337521E1,-3.127414282E0,-5.178680098E-1,-4.909426781E-1,3.207792400E0
1.251340121E1,-5.767722756E-1,1.231504308E0,1.045400298E-1,1.363890661E0
1.252342821E1,1.656348818E0,2.153166997E0,5.838520112E-1,2.778579259E0
1.253345521E1,2.934342729E0,1.604787632E0,8.959630072E-1,3.462435603E0
1.254348221E1,3.325788674E0,-1.448098040E-1,5.213371629E-1,3.369515191E0
1.255350921E1,3.180141549E0,-1.158660865E0,4.009326138E-2,3.384878542E0
1.256353521E1,1.611262692E0,5.182878399E-1,6.866881623E-1,1.826562449E0
1.257356221E1,-1.141281040E0,2.063000593E0,5.690844295E-1,2.425355839E0
1.258358921E1,-1.460125908E0,1.323692679E-2,-1.528308975E0,2.113733949E0
1.259361621E1,6.161398244E-1,-2.069301553E0,-4.350012696E-1,2.202467549E0
1.260364221E1,1.570161005E0,-3.259152635E0,1.725412767E0,4.008058221E0
1.261366921E1,2.248366831E0,-3.387356932E0,2.243484260E0,4.643550583E0
1.262369621E1,3.320542552E0,-2.709673408E0,2.059910194E0,4.755161704E0
1.263372321E1,2.443833696E0,-2.520396699E0,1.429986728E0,3.790723505E0
1.264375021E1,5.181869754E-1,-3.258649190E0,4.339774221E-1,3.328009719E0
1.265377621E1,6.579813302E-1,-3.444716948E0,-5.203448904E-1,3.545387579E0
1.266380321E1,1.533704054E0,-3.691379986E0,-8.306120400E-1,4.082701396E0
1.267383021E1,2.211076067E0,-3.560333358E0,-5.765781480E-1,4.230516914E0
1.268385721E1,2.805380049E0,-2.853056492E0,9.797119461E-2,4.002460109E0
1.269388321E1,3.550993600E0,-1.602058736E0,9.679825777E-1,4.014117339E0
1.270391021E1,3.221824595E0,-7.033580625E-1,1.479765975E0,3.614494934E0
1.271393721E1,3.337371424E-2,-1.750759277E0,1.282317781E0,2.170394145E0
1.272396421E1,-3.584278876E0,-2.990202935E0,6.819758181E-1,4.717357276E0
1.273399121E1,-4.287447488E0,-3.538920270E0,5.283576954E-1,5.584382194E0
1.274401721E1,-3.227354892E0,-3.363925384E0,5.376478247E-1,4.692640917E0
1.275404421E1,-1.962203074E0,-1.994556595E0,2.100834417E-1,2.805821086E0
1.276407121E1,-3.810800010E-1,-1.904239333E-1,1.029401585E-1,4.382692298E-1
1.277409821E1,1.375182676E0,1.018193788E0,4.968927316E-1,1.781782357E0
1.278412421E1,2.208775480E0,7.716114414E-1,1.092137750E0,2.582022115E0
1.279415121E1,2.086060258E0,-6.088863534E-1,1.834914159E0,2.844169468E0
1.280417821E1,1.688392875E0,-2.512307661E0,2.502130582E0,3.927215009E0
1.281420521E1,1.284854888E0,-3.647102530E0,2.521426393E0,4.616253893E0
1.282423221E1,4.427745581E-1,-3.891923110E0,1.798874846E0,4.310344014E0
1.283425821E1,-1.059904608E0,-4.198550515E0,1.129943435E0,4.475264949E0
1.284428521E1,-2.575847599E0,-3.721843979E0,1.998771268E-1,4.530680338E0
1.285431221E1,-3.455096633E0,-2.757825814E0,1.139797747E-1,4.422249128E0
1.286433921E1,-3.861594188E0,-1.824973308E0,2.960971352E-1,4.281367861E0
1.287436621E1,-2.917566775E0,-1.918957359E0,9.994236410E-1,3.632277639E0
1.288439221E1,-6.358402634E-1,-2.613072728E0,2.517224000E0,3.683593162E0
1.289441921E1,8.814934874E-1,-1.469547381E0,8.375317812E-1,1.907369853E0
1.290444621E1,1.024966618E0,-1.065749193E0,-8.142236102E-1,1.687998222E0
1.291447321E1,1.379896116E0,-6.499794155E-1,-1.638055365E0,2.238260912E0
1.292449921E1,9.915281457E-1,-9.376068771E-1,-1.549288784E0,2.064589658E0
1.293452621E1,-2.021832102E0,-2.743245197E0,-1.141492270E0,3.593912055E0
1.294455321E1,-7.479090511E0,-5.012144964E0,-1.166139271E-1,9.003998602E0
1.295458021E1,-1.060456761E1,-4.685396706E0,-9.220772570E-1,1.163013426E1
1.296460721E1,-7.577229009E0,-2.824464777E0,-1.075624555E0,8.157755139E0
1.297463321E1,-3.727085131E0,-1.607438759E0,-1.352148739E0,4.278239025E0
1.298466021E1,1.865086377E-2,-1.261083033E0,-2.287944149E0,2.612540277E0
1.299468721E1,3.919788017E0,-1.556254572E0,-2.667143978E0,4.990022383E0
1.300471421E1,6.244563192E0,-1.342089189E0,-2.292060589E0,6.785964529E0
1.301474021E1,6.750443240E0,-5.432425869E-1,-2.768237074E0,7.316196618E0
1.302476721E1,6.427136654E0,-7.971041322E-2,-2.806004240E0,7.013422781E0
1.303479421E1,7.412296597E0,1.929569471E-1,-2.977831396E0,7.990422582E0
1.304482121E1,8.354921554E0,2.721346790E-1,-4.165270210E0,9.339606383E0
1.305484821E1,9.534496740E0,7.479805040E-1,-3.790540577E0,1.028757993E1
1.306487421E1,1.060827825E1,2.820771090E0,-3.891322017E0,1.164623133E1
1.307490121E1,9.840653443E0,4.903258699E0,-4.241900602E0,1.178448670E1
1.308492821E1,9.937296224E0,5.349889496E0,-3.437274027E0,1.179771277E1
1.309495521E1,1.001851405E1,5.776245657E0,-1.793386649E0,1.170264386E1
1.310498121E1,1.004611291E1,6.568986012E0,-4.355509079E-1,1.201106433E1
1.311500821E1,1.058839889E1,7.977738723E0,4.729485297E-1,1.326582777E1
1.312503521E1,1.095229919E1,9.134833118E0,1.612448069E0,1.435263120E1
1.313506221E1,1.094577486E1,8.943825048E0,3.581389182E0,1.458178118E1
1.314508921E1,9.505297499E0,7.917114791E0,5.430410918E0,1.351002405E1
1.315511521E1,7.028203526E0,6.592601747E0,6.466834570E0,1.160508475E1
1.316514221E1,4.156112008E0,5.277464713E0,7.030025518E0,9.723484952E0
1.317516921E1,1.901329173E0,4.257045475E0,7.093035114E0,8.488146790E0
1.318519621E1,2.073732573E-1,3.472663130E0,6.866374231E0,7.697368899E0
1.319522321E1,-1.026185178E0,2.431431897E0,6.353638907E0,6.879945091E0
1.320524921E1,-2.092319117E0,1.361234728E0,5.641415881E0,6.168981473E0
1.321527621E1,-3.470454637E0,4.502151400E-1,5.250276915E0,6.309687531E0
1.322530321E1,-4.580170214E0,-5.312312365E-2,5.054214512E0,6.820987141E0
1.323533021E1,-5.669236348E0,-6.417895129E-1,4.657668040E0,7.365188805E0
1.324535662E1,-6.541553800E0,-1.260545674E0,4.014087818E0,7.777776194E0
1.325538362E1,-6.788384653E0,-1.813565098E0,3.649250212E0,7.917588754E0
1.326541062E1,-6.562078696E0,-2.520149946E0,3.350811249E0,7.787166917E0
1.327543763E1,-6.147960173E0,-3.086099318E0,2.514434878E0,7.324193201E0
1.328546462E1,-5.956601270E0,-3.797974435E0,1.437361382E0,7.209141158E0
1.329549062E1,-6.062441720E0,-4.665608559E0,3.352471858E-1,7.657251042E0
1.330551762E1,-6.371722591E0,-5.214848635E0,-7.942857742E-1,8.271903345E0
1.331554462E1,-6.081786064E0,-5.059789832E0,-1.680833595E0,8.087941422E0
1.332557162E1,-5.204849896E0,-4.589351219E0,-1.851712040E0,7.182022315E0
1.333559763E1,-4.324071231E0,-4.621127036E0,-1.737190229E0,6.562791859E0
1.334562462E1,-3.266831784E0,-4.564445589E0,-1.265581881E0,5.753959587E0
1.335565162E1,-2.353525935E0,-4.845781739E0,-1.177224605E0,5.514212796E0
1.336567862E1,-1.682425207E0,-5.437601824E0,-1.794525687E0,5.968114494E0
1.337570562E1,-1.837794205E0,-5.540271914E0,-2.390598451E0,6.307698580E0
1.338573162E1,-2.314082665E0,-5.787033770E0,-2.940514466E0,6.891397809E0
1.339575863E1,-2.297677132E0,-6.038420189E0,-3.365422856E0,7.284772445E0
1.340578562E1,-2.111423433E0,-5.804633889E0,-3.414330722E0,7.057587249E0
1.341581262E1,-2.141015899E0,-5.403739429E0,-2.754999270E0,6.432291183E0
1.342583962E1,-1.647655616E0,-5.154015373E0,-1.841986367E0,5.715903889E0
1.343586562E1,-1.100820208E0,-4.809424337E0,-9.373759121E-1,5.022055474E0
1.344589262E1,-8.159839144E-1,-4.427894685E0,-5.005719459E-1,4.530193523E0
1.345591963E1,-2.056407273E-1,-4.444617429E0,-8.954092759E-1,4.538575765E0
1.346594662E1,8.439128476E-1,-4.625214824E0,-1.695241719E0,4.997864099E0
1.347597262E1,1.637992654E0,-4.599347327E0,-2.227063524E0,5.366267577E0
1.348599962E1,3.661729048E0,-4.689674822E0,-1.118293442E0,6.054080424E0
1.349602662E1,3.244311817E0,-4.359431391E0,-6.347912729E-1,5.471120651E0
1.350605362E1,9.232373446E-1,-4.531168500E0,-9.391160434E-1,4.718664442E0
1.351608063E1,1.812769584E0,-5.090226928E0,-1.007901519E0,5.496581594E0
1.352610662E1,1.645299627E0,-3.939852737E0,-1.357659155E0,4.480255443E0
1.353613362E1,1.254065790E0,-2.921731747E0,-2.075531176E0,3.796976043E0
1.354616062E1,8.369447207E-1,-2.631224532E0,-2.552046508E0,3.759888347E0
1.355618762E1,3.132781734E-1,-2.401602619E0,-2.304630933E0,3.343226300E0
1.356621362E1,6.528406043E-1,-2.254873759E0,-9.251733577E-1,2.523212687E0
1.357624062E1,1.926993041E0,-2.123029279E0,1.194643461E0,3.106079281E0
1.358626762E1,3.134167231E0,-2.034863791E0,2.707912227E0,4.614809152E0
1.359629462E1,3.326772176E0,-2.085924310E0,2.351462452E0,4.576884202E0
1.360632162E1,3.001266451E0,-1.632511035E0,2.705687946E-1,3.427229211E0
1.361634762E1,2.518719133E0,-1.321987924E0,-9.562273353E-1,3.000994644E0
1.362637462E1,2.370258766E0,-1.187324501E0,-1.133077542E0,2.883007250E0
1.363640163E1,2.237348046E0,-8.497928077E-1,-8.475977629E-1,2.538955703E0
1.364642862E1,1.624961110E0,-7.760328135E-1,-5.893075365E-1,1.894731883E0
1.365645562E1,3.123930511E-1,-1.009031786E0,-2.738490826E-1,1.091204785E0
1.366648162E1,-5.745945532E-1,-1.359273571E0,5.732715476E-1,1.583168914E0
1.367650862E1,-6.922236483E-1,-1.319288264E0,1.448094531E0,2.077660433E0
1.368653562E1,-6.181036118E-1,-1.243561559E0,1.652250651E0,2.158339556E0
1.369656263E1,-6.092433259E-1,-1.414575952E0,1.140326920E0,1.916389324E0
1.370658862E1,-3.538845279E-1,-1.295050678E0,4.082900190E-1,1.403243121E0
1.371661562E1,-2.218637540E-1,-1.053535236E0,-3.318318272E-1,1.126619892E0
1.372664262E1,-1.192503818E-1,-9.767297199E-1,-6.588385320E-1,1.184183183E0
1.373666962E1,-1.452915414E-1,-9.715806618E-1,-6.092833793E-1,1.155986527E0
1.374669662E1,-2.839706860E-1,-1.027047934E0,-3.766747087E-1,1.130199383E0
1.375672262E1,-2.894629756E-1,-1.000581682E0,6.965554118E-2,1.043936977E0
1.376674962E1,-4.434413599E-1,-1.022212287E0,6.508623451E-1,1.290418533E0
1.377677662E1,-7.229308860E-1,-1.164392306E0,1.065960862E0,1.736292333E0
1.378680362E1,-7.547831547E-1,-1.269323806E0,1.390065009E0,2.028093012E0
1.379682962E1,-5.318855399E-1,-1.224358718E0,1.306091976E0,1.867574027E0
1.380685662E1,-3.073967515E-1,-1.220548965E0,6.819163227E-1,1.431517520E0
1.381688362E1,-1.509859255E-1,-1.177671040E0,-7.158512235E-2,1.189466375E0
1.382691062E1,-4.044022053E-2,-1.070350074E0,-6.375125670E-1,1.246477824E0
1.383693762E1,-3.201028973E-2,-9.556385207E-1,-1.038674830E0,1.411777264E0
1.384696362E1,-1.177635080E-1,-8.772332060E-1,-9.396960872E-1,1.290904752E0
1.385699062E1,-1.701473974E-1,-9.977513373E-1,-4.480522549E-1,1.106891454E0
1.386701762E1,-2.934258530E-1,-1.020885846E0,-1.000084376E-1,1.066915334E0
1.387704462E1,-6.494391328E-1,-1.164978781E0,-4.745880890E-1,1.415690857E0
1.388707162E1,-1.179909354E0,-1.561774344E0,-7.560976088E-1,2.098334763E0
1.389709762E1,-1.582108329E0,-1.804160144E0,-3.040593070E-1,2.418783300E0
1.390712462E1,-1.845999311E0,-1.897795116E0,1.394256878E-1,2.651184505E0
1.391715162E1,-1.421948122E0,-1.806593755E0,4.540661162E-1,2.343478930E0
1.392717862E1,-7.903485516E-1,-1.611273948E0,5.159676647E-1,1.867371736E0
1.393720462E1,-2.020955604E-1,-1.489931652E0,2.787011021E-1,1.529187120E0
1.394723162E1,2.052977881E-1,-1.375912116E0,-1.771706343E-4,1.391143905E0
1.395725862E1,5.620144880E-1,-1.268333288E0,-3.145281619E-1,1.422482892E0
1.396728562E1,9.777152681E-1,-1.224111966E0,-4.107166135E-1,1.619588030E0
1.397731262E1,1.248969356E0,-1.194077450E0,9.734444618E-3,1.727958382E0
1.398733863E1,1.139413877E0,-1.163705550E0,6.176805657E-1,1.741839221E0
1.399736562E1,4.696691188E-1,-1.226642641E0,8.409816384E-1,1.559644628E0
1.400739262E1,-1.720473039E-1,-1.249860472E0,5.685458279E-1,1.383833745E0
1.401741962E1,-5.379523185E-1,-1.205735044E0,1.833201510E-1,1.332965105E0
1.402744562E1,-5.529159281E-1,-1.081921422E0,7.358253121E-2,1.217244583E0
1.403747262E1,-8.146896333E-1,-1.008384791E0,3.064321071E-1,1.332088481E0
1.404749963E1,-1.143595514E0,-9.610936806E-1,8.088780856E-1,1.698762938E0
1.405752662E1,-1.170085155E0,-9.288641202E-1,1.223982450E0,1.931326192E0
1.406755362E1,-8.266729170E-1,-8.474577221E-1,1.188348348E0,1.677421980E0
1.407757962E1,-5.312379608E-1,-8.701162675E-1,8.363664311E-1,1.318645099E0
1.408760662E1,-2.609629887E-1,-9.709933090E-1,7.717155218E-1,1.267467765E0
1.409763362E1,-1.441633943E-1,-8.886718217E-1,8.357448721E-1,1.228409615E0
1.410766062E1,-3.113882071E-1,-8.371113664E-1,5.622565627E-1,1.055391159E0
1.411768662E1,-7.436620429E-1,-7.226489040E-1,3.309389573E-1,1.088473824E0
1.412771362E1,-1.205503494E0,-6.830079979E-1,3.715396839E-1,1.434496545E0
1.413774062E1,-1.260723429E0,-6.408671147E-1,6.715766913E-1,1.565614728E0
1.414776762E1,-8.547758049E-1,-5.360668838E-1,1.006911001E0,1.425439982E0
1.415779462E1,-3.664534834E-1,-5.685317945E-1,1.297566150E0,1.463282089E0
1.416782063E1,-8.919284284E-2,-6.589078215E-1,1.361471540E0,1.515163237E0
1.417784762E1,1.229812708E-1,-6.179261488E-1,1.127264825E0,1.291388053E0
1.418787462E1,1.207230762E-1,-5.169426879E-1,6.642676717E-1,8.503266098E-1
1.419790162E1,1.822869480E-2,-4.105312568E-1,2.363947427E-1,4.740787619E-1
1.420792762E1,-1.766060856E-1,-2.867176348E-1,1.501933354E-1,3.687204220E-1
1.421795462E1,-4.008438823E-1,-1.487923425E-1,-6.520890909E-1,7.797660942E-1
1.422798163E1,-1.055363953E-2,-2.309404600E-1,-7.046426958E-1,7.415970632E-1
1.423800862E1,2.170503992E-1,-3.233542415E-1,1.443525517E-1,4.153390188E-1
1.424803550E1,5.990133297E-1,-3.025109643E-1,1.119221395E-1,6.803355187E-1
1.425806150E1,7.638036543E-1,-2.812844020E-1,1.370721835E-1,8.254124549E-1
1.426808850E1,6.484357506E-1,-2.393464172E-1,3.604603797E-1,7.795430170E-1
1.427811550E1,5.085177273E-1,-1.879154778E-1,8.497015911E-1,1.007916316E0
1.428814250E1,3.645312113E-1,-1.111064529E-1,1.297556795E0,1.352361373E0
1.429816950E1,2.807914817E-1,-1.102480817E-1,1.727827667E0,1.753963210E0
1.430819550E1,1.351700842E-1,-1.360132527E-1,1.382909771E0,1.396141107E0
1.431822250E1,-1.111356890E-1,-1.008077520E-1,3.926452088E-1,4.203374885E-1
1.432824950E1,-3.592789498E-1,8.218115419E-2,-5.088831782E-3,3.685932746E-1