"Time (s)","Linear Acceleration x (m/s^2)","Linear Acceleration y (m/s^2)","Linear Acceleration z (m/s^2)","Absolute acceleration (m/s^2)"
1.550416695E-3,-4.632807434E-2,6.504439768E-1,-2.514889791E0,2.598055873E0
1.157741668E-2,3.609442368E-1,4.861845794E-1,-2.382234010E0,2.457985977E0
2.160341665E-2,7.954774368E-1,2.812075111E-1,-1.878439078E0,2.059222035E0
3.163041675E-2,1.097612717E0,1.054711989E-1,-1.099426816E0,1.557118228E0
4.165741673E-2,8.859996441E-1,-1.373660061E-1,-1.594828069E-1,9.106588575E-1
5.168441671E-2,5.216806868E-1,-2.517363748E-1,1.061037506E0,1.208851741E0
6.171141670E-2,4.966529958E-1,-2.308790642E-1,2.005204960E0,2.078657324E0
7.173900004E-2,6.210301432E-1,-2.429883555E-1,2.251333562E0,2.348025679E0
8.176600002E-2,7.738418618E-1,-3.913298777E-1,2.240508027E0,2.402466757E0
9.179199999E-2,7.472729909E-1,-6.102066547E-1,2.011793017E0,2.231161184E0
1.018190001E-1,-1.808251441E-1,-8.141487658E-1,1.461579965E0,1.682781013E0
1.118460001E-1,-1.270280849E0,-7.521372896E-1,8.810087532E-1,1.719156875E0
1.218730001E-1,-1.644174330E0,-5.351971105E-1,1.106035924E-1,1.732621808E0
1.319000000E-1,-1.045950082E0,-2.364546767E-1,-1.084746212E0,1.525318567E0
1.419270000E-1,-2.616225547E-1,5.066486648E-1,-1.875266964E0,1.960042198E0
1.519540000E-1,4.743167782E-1,1.189240926E0,-1.887281823E0,2.280592700E0
1.619800001E-1,1.066084823E0,1.236937248E0,-1.527378682E0,2.235941915E0
1.720070001E-1,1.537700772E0,8.696218854E-1,-7.622599894E-1,1.924007843E0
1.820340001E-1,1.847056780E0,3.505411631E-1,-9.953305900E-2,1.882658940E0
1.920610000E-1,1.701449854E0,7.612811655E-2,2.513519204E-1,1.721599513E0
2.020880000E-1,1.433120397E0,-2.152995966E-1,6.665814149E-1,1.595154780E0
2.121150000E-1,1.369718891E0,-5.937085895E-1,1.212281002E0,1.923082151E0
2.221410001E-1,1.336733140E0,-9.176257718E-1,2.305046670E0,2.818178968E0
2.321680001E-1,1.304283870E0,-9.951845558E-1,3.252828287E0,3.643136091E0
2.421950001E-1,1.092732631E0,-9.249544526E-1,3.332006019E0,3.626550627E0
2.522220000E-1,1.017852018E0,-7.373276080E-1,2.986198177E0,3.239915783E0
2.622490000E-1,9.832996514E-1,-5.150701171E-1,2.600893562E0,2.827865406E0
2.722760000E-1,8.730020146E-1,-3.323669936E-1,2.043138771E0,2.246556559E0
2.823030000E-1,6.157501075E-1,-1.621106918E-1,1.450801207E0,1.584377548E0
2.923290001E-1,6.964805675E-1,7.053057700E-3,9.157260114E-1,1.150516864E0
3.023560001E-1,8.036214387E-1,1.868599091E-1,5.781142116E-2,8.270829480E-1
3.123830000E-1,5.586043918E-1,3.495790038E-1,-6.654792148E-1,9.365398719E-1
3.224100000E-1,6.301532614E-1,5.184441067E-1,-1.406336056E0,1.625933125E0
3.324370000E-1,7.151165208E-1,5.715254228E-1,-1.493309296E0,1.751572322E0
3.424640000E-1,7.490438202E-1,2.698715141E-1,-7.761161363E-1,1.111869388E0
3.524910001E-1,8.427910593E-1,-1.940603167E-1,-3.326235402E-1,9.266037965E-1
3.625170001E-1,4.296805957E-1,-7.009488635E-1,2.598338914E-1,8.622461218E-1
3.725440000E-1,-2.027510333E-1,-9.940257838E-1,5.500686264E-1,1.154023715E0
3.825710000E-1,-9.570927233E-2,-1.323218616E0,8.278546393E-2,1.329255884E0
3.925980000E-1,-7.011326122E-1,-1.403914432E0,1.857099080E-1,1.580205949E0
4.026250000E-1,6.028830171E-2,-5.236808731E-1,9.045268393E-1,1.046921744E0
4.126520001E-1,2.009097159E0,3.978131242E-1,1.718790795E0,2.673755500E0
4.226780001E-1,2.740766562E0,9.659258196E-1,2.014255865E0,3.535822496E0
4.327050000E-1,2.242887844E0,1.003336890E0,9.845103174E-1,2.646977779E0
4.427320000E-1,5.473941100E-1,6.384229785E-1,-7.890899384E-1,1.153207328E0
4.527590000E-1,-8.564840689E-1,-6.709387600E-2,-2.437983118E0,2.584923254E0
4.627860000E-1,-1.243550157E0,-5.823910113E-1,-3.338892285E0,3.610235168E0
4.728130001E-1,-1.034543772E0,-6.054356191E-1,-3.149261234E0,3.369670522E0
4.828400001E-1,-3.922057906E-1,-2.728588566E-1,-2.384054248E0,2.431458820E0
4.928660000E-1,2.261068591E-1,1.803208217E-1,-1.731311438E0,1.755300318E0
5.028930000E-1,2.496559355E-1,2.739499471E-1,5.834901416E-1,6.912578426E-1
5.129200000E-1,3.151532292E-1,-6.064211673E-1,2.916346754E0,2.995354166E0
5.229470000E-1,2.069343653E0,-1.404104612E0,1.273401362E0,2.806286504E0
5.329740001E-1,1.659380745E0,-1.696072024E0,1.806297886E0,2.982099398E0
5.430010001E-1,1.869023892E0,-1.222915918E0,-1.144533992E-1,2.236486805E0
5.530270000E-1,2.451121519E0,-4.135241541E-1,-2.561275753E0,3.569192123E0
5.630540000E-1,3.804341176E0,-2.906064717E-1,-4.066758367E0,5.576377634E0
5.730810000E-1,3.627721057E0,-2.918535367E-2,-4.587955781E0,5.848978552E0
5.831080000E-1,-2.287836560E0,1.515686882E0,-3.794755835E0,4.683126594E0
5.931350001E-1,-6.662582978E0,2.886185646E0,-2.186565709E0,7.582951214E0
6.031620001E-1,-2.569700421E0,1.969617782E0,-1.903578013E0,3.755843941E0
6.131890001E-1,9.236679921E-1,-1.065772728E-1,-1.556586694E0,1.813141862E0
6.232150000E-1,1.238261350E0,-2.216751082E-1,-8.632507592E-1,1.525658185E0
6.332420000E-1,8.698358935E-1,-1.127381039E0,-6.661984223E-1,1.572075960E0
6.432690000E-1,1.028518217E0,-2.112371266E0,-1.039047883E0,2.568965276E0
6.532960001E-1,8.216182914E-1,-2.044506727E0,-1.180348188E-1,2.206580294E0
6.633230001E-1,3.110652946E-1,-1.354650763E0,-9.941517913E-1,1.708852858E0
6.733500001E-1,5.657499817E-1,-1.140428516E0,-5.556538868E-1,1.389028971E0
6.833760000E-1,1.089825103E0,-4.141385138E-1,2.411491138E-1,1.190538685E0
6.934030000E-1,2.042933972E0,-1.206450889E-1,1.564647666E0,2.576093316E0
7.034300000E-1,2.142097926E0,-6.081102086E-1,2.134191028E0,3.084339945E0
7.134570001E-1,1.449344958E0,-9.640811692E-1,2.270291989E0,2.860817895E0
7.234840001E-1,8.842242102E-1,-1.200897789E0,2.194094583E0,2.652934035E0
7.335110001E-1,8.636249080E-1,-9.968841221E-1,1.484653078E0,1.985905510E0
7.435380000E-1,1.118758150E0,-7.176881263E-1,5.645042324E-1,1.444077932E0
7.535640000E-1,8.101445925E-1,-4.879481728E-1,-7.470595676E-1,1.205207732E0
7.635910000E-1,4.107925542E-1,-2.091663425E-1,-1.688421527E0,1.750219510E0
7.736180001E-1,1.819502580E-1,-3.395434641E-1,-2.294993552E0,2.327099281E0
7.836450001E-1,-7.307415236E-2,-5.813271469E-1,-2.541818558E0,2.608471327E0
7.936720001E-1,-7.437357727E-2,-8.765151680E-1,-2.525929334E0,2.674720410E0
8.036990000E-1,7.192764128E-2,-1.096554079E0,-2.638395849E0,2.858100259E0
8.137260000E-1,-6.862065710E-2,-1.020525219E0,-2.715821171E0,2.902044994E0
8.237520000E-1,-1.032097078E0,3.741639874E-1,-2.126613037E0,2.393262643E0
8.337790001E-1,-1.323491097E0,-1.306182461E-1,-1.953864067E0,2.363530115E0
8.438060001E-1,4.075459608E-1,-2.592713015E0,-2.500019737E0,3.624686631E0
8.538330001E-1,1.465679155E0,-4.321675335E0,-3.655328978E0,5.846924236E0
8.638600000E-1,5.676886261E-2,-3.860507483E0,-4.788762031E0,6.151339896E0
8.738870000E-1,-8.646687090E-1,-2.408089812E0,-4.216183378E0,4.931810094E0
8.839130000E-1,-5.591984689E-3,-1.197855628E0,-2.587880584E0,2.851668861E0
8.939400001E-1,5.878322840E-1,-8.560063514E-1,-1.671044186E0,1.967404976E0
9.039670001E-1,2.126136781E0,-1.256750977E0,-7.940840453E-1,2.594311104E0
9.139940001E-1,2.590418860E0,-1.467122833E0,-3.954542112E-1,3.003182198E0
9.240210000E-1,1.471437201E0,-1.324780700E0,9.036287069E-3,1.979962877E0
9.340480000E-1,6.883921140E-1,-1.401980465E0,5.084504843E-1,1.642545227E0
9.440750000E-1,7.790210330E-1,-1.523330655E0,1.239430209E0,2.112722721E0
9.541010001E-1,1.000003685E0,-8.064041287E-1,2.359807599E0,2.686817242E0
9.641280001E-1,1.140790020E0,-7.029149897E-1,2.750609180E0,3.059631059E0
9.741550001E-1,1.320775504E0,-1.260606046E0,2.369474216E0,2.991318036E0
9.841820000E-1,1.142920745E0,-1.064392493E0,1.913431740E0,2.469902879E0
9.942090000E-1,5.525045764E-1,-8.694482231E-1,1.490085726E0,1.811506829E0
1.004236000E0,-4.411542946E-1,-8.368894646E-1,7.890607023E-1,1.231916344E0
1.014263000E0,-1.741614232E0,-8.667808695E-1,-3.048375714E-1,1.969125479E0
1.024289000E0,-1.829743466E0,-1.370542325E0,-1.168274272E0,2.567335621E0
1.034316000E0,-1.410565932E0,-1.958875862E0,-5.339320654E-1,2.472240753E0
1.044343000E0,-8.805772287E-1,-2.048822849E0,1.085446708E0,2.480178598E0
1.054370000E0,-4.300907779E-1,-1.785050712E0,2.673505456E0,3.243303184E0
1.064396792E0,-3.616853714E-2,-1.588583535E0,3.643594785E0,3.975008022E0
1.074423792E0,1.917185068E-1,-1.530663648E0,4.209764305E0,4.483503395E0
1.084449792E0,-5.102163434E-1,-1.747581900E0,4.342921193E0,4.709068666E0
1.094476792E0,-1.746042913E0,-2.101437704E0,3.991194799E0,4.836769811E0
1.104503792E0,-2.157967561E0,-2.629181222E0,3.575216861E0,4.934733377E0
1.114530792E0,-1.983228199E0,-3.188413605E0,2.868690777E0,4.725310803E0
1.124557792E0,-1.009863260E0,-3.361174854E0,2.421747154E0,4.264056693E0
1.134584792E0,-5.746702015E-2,-3.032836154E0,2.034049859E0,3.652226228E0
1.144611792E0,-1.597447622E-1,-2.194127182E0,1.610166193E0,2.726233234E0
1.154637792E0,-6.320372343E-1,-1.362124528E0,1.161361401E0,1.898318888E0
1.164664792E0,-3.649153733E-1,-1.219798182E0,5.653620189E-1,1.393091902E0
1.174691792E0,6.214835948E-1,-1.255358317E0,9.707623440E-1,1.704272833E0
1.184718792E0,1.255656817E0,-7.543598163E-1,1.808026907E0,2.326949521E0
1.194745792E0,2.320211424E0,-4.032213601E-1,2.172837323E0,3.204245707E0
1.204772792E0,3.227143807E0,3.465884453E-1,2.095975966E0,3.863637658E0
1.214798792E0,3.102235002E0,8.474454430E-1,2.300688155E0,3.954136034E0
1.224825792E0,3.375512227E0,8.882654402E-1,2.253383304E0,4.154616059E0
1.234852792E0,3.712958550E0,9.112713102E-1,2.093606674E0,4.358860574E0
1.244879792E0,4.394594792E0,9.384269491E-1,2.155229018E0,4.983785774E0
1.254906792E0,6.035222932E0,1.516925323E0,2.087534341E0,6.563747245E0
1.264933792E0,6.864193804E0,2.572172332E0,1.664251184E0,7.516845022E0
1.274960792E0,7.684399701E0,3.509054154E0,8.015969865E-1,8.485635954E0
1.284986792E0,7.224201025E0,4.409458706E0,-6.606675410E-1,8.489339676E0
1.295013792E0,5.487793154E0,4.535441645E0,-1.871841080E0,7.361378515E0
1.305040792E0,4.742321690E0,3.802068363E0,-2.423916617E0,6.543753557E0
1.315067792E0,4.096611911E0,2.740870643E0,-2.241071699E0,5.414517835E0
1.325094792E0,3.673085217E0,1.767256612E0,-9.023411500E-1,4.174801851E0
1.335121792E0,3.376031460E0,1.533540186E0,2.189712095E-1,3.714469317E0
1.345147792E0,2.856666563E0,1.668781314E0,2.042724788E-2,3.308442563E0
1.355174792E0,1.924936137E0,1.965698247E0,-6.185097009E-1,2.819911875E0
1.365201792E0,1.231503723E0,2.601624757E0,-1.822489557E0,3.406834452E0
1.375228792E0,7.216966850E-1,3.289495884E0,-3.720454681E0,5.018307714E0
1.385255792E0,6.697623003E-1,3.233868105E0,-6.493937584E0,7.285445066E0
1.395282792E0,4.481306076E-2,2.787518560E0,-9.024837052E0,9.445631357E0
1.405309792E0,-1.553742608E0,1.664883560E0,-8.780400633E0,9.070908920E0
1.415335792E0,-2.153071103E0,4.589315844E-1,-4.706403998E0,5.195822550E0
1.425362792E0,-2.385926526E0,-7.419300976E-1,-1.664262001E0,3.002144844E0
1.435389792E0,-2.485591732E0,-6.442810115E-1,-4.275519168E-1,2.603087575E0
1.445416792E0,-2.322970140E0,5.981011641E-1,-3.587138164E-1,2.425405301E0
1.455443792E0,-2.655561520E0,1.454219197E0,-1.430729470E0,3.348693369E0
1.465470792E0,-2.890060011E0,1.935058837E0,-3.073551486E0,4.641510347E0
1.475497792E0,-2.226478218E0,2.470940949E0,-2.251737020E0,4.016599810E0
1.485523792E0,-2.398921378E0,5.965536985E-1,5.740679749E-1,2.537765579E0
1.495550792E0,-2.686169940E0,-1.756222623E0,2.374087669E0,3.992006902E0
1.505577792E0,-2.711165033E0,-2.384325559E0,2.801047555E0,4.569605192E0
1.515604792E0,-2.350480120E0,-1.183234081E0,1.637346683E0,3.099306994E0
1.525631792E0,-1.994133257E0,5.911783531E-1,-2.719623323E-1,2.097623131E0
1.535658792E0,-1.779053369E0,1.296458395E0,-1.142106228E0,2.479968124E0
1.545684792E0,-1.674768863E0,1.155506877E0,-8.859338629E-1,2.219217361E0
1.555711792E0,-1.715426892E0,1.007261541E0,-3.615030845E-1,2.021867878E0
1.565738792E0,-1.654010662E0,1.015798476E0,-1.641523203E-1,1.947958880E0
1.575765792E0,-1.175970962E0,8.892553738E-1,3.946940732E-1,1.526258902E0
1.585792792E0,-6.663580513E-1,-1.011612162E-1,8.178523191E-1,1.059787271E0
1.595819792E0,-8.451723379E-1,-1.092326250E0,1.618803992E0,2.127914303E0
1.605846792E0,-6.606523383E-1,-1.358978287E0,2.085465596E0,2.575354393E0
1.615872792E0,-2.143238425E-1,-1.262213885E0,3.583400624E0,3.805243570E0
1.625899792E0,-2.718604445E-1,-1.688932866E0,4.261076546E0,4.591641934E0
1.635926792E0,-3.702117813E-1,-1.576697315E0,2.363236406E0,2.864946334E0
1.645953792E0,-2.854528821E-1,-6.895057163E-1,-4.562254564E-1,8.746674498E-1
1.655980792E0,-1.749434298E-1,2.729103121E-1,-3.046595821E0,3.063793619E0
1.666007792E0,-8.295737207E-1,5.758191794E-2,-2.779713696E0,2.901433520E0
1.676033792E0,-1.206739596E0,-7.794405708E-1,-1.034713926E0,1.770418302E0
1.686060792E0,-5.709238905E-1,-8.409018239E-1,3.475890501E-1,1.074191842E0
1.696087792E0,9.855066830E-1,-3.253531122E-1,8.643155372E-1,1.350599651E0
1.706114792E0,2.636194957E0,-1.381305295E-1,1.069949248E0,2.848402235E0
1.716141792E0,2.995717444E0,-4.464077255E-1,1.307471334E0,3.298951977E0
1.726168792E0,2.455277427E0,-3.546497092E-1,8.473820738E-1,2.621491949E0
1.736195792E0,1.960526969E0,2.343221971E-1,1.352857860E-1,1.979109682E0
1.746221792E0,2.657440231E0,2.495442536E-1,-1.954958081E-1,2.676280913E0
1.756248792E0,3.326226046E0,8.754392803E-2,-6.476025224E-2,3.328008044E0
1.766275792E0,2.001499579E0,2.747764510E-1,-9.323611937E-2,2.022423209E0
1.776302792E0,6.627912498E-1,5.134749967E-1,-4.444492006E-1,9.489383041E-1
1.786329792E0,5.851864189E-1,-2.169682458E-1,-4.815017637E-1,7.882653823E-1
1.796356792E0,1.595630892E0,-1.988085774E0,-6.485239705E-1,2.630419421E0
1.806383792E0,3.019670563E0,-2.898088823E0,-3.509744418E-1,4.200060975E0
1.816409792E0,4.046202480E0,-2.159740437E0,-3.254631130E-1,4.598060407E0
1.826436792E0,6.088154851E0,-4.636192971E-1,-6.011815504E-1,6.135306969E0
1.836463792E0,8.457622050E0,8.789914638E-1,-1.044359493E-1,8.503817002E0
1.846490792E0,9.445371725E0,1.014719957E-1,1.382314525E0,9.546524867E0
1.856517792E0,6.985781391E0,-7.423566520E-2,1.525754911E0,7.150844749E0
1.866544792E0,1.110954017E0,6.875121081E-1,-1.394455683E0,1.910863255E0
1.876570792E0,-2.592520934E0,9.597970605E-2,-1.671618383E0,3.086208826E0
1.886597792E0,-4.173322703E0,1.491054609E-1,-1.956279369E-1,4.180565166E0
1.896624792E0,-5.468492664E0,1.203194429E0,8.555400360E-1,5.664277324E0
1.906651792E0,-6.576847009E0,1.943731427E0,7.123896718E-1,6.894962472E0
1.916678792E0,-5.810284638E0,2.504460697E0,8.841458575E-1,6.388540120E0
1.926705792E0,-6.412706310E0,1.672788996E0,1.375064123E0,6.768443439E0
1.936732792E0,-7.295082727E0,4.049483353E-1,9.046251456E-1,7.362103083E0
1.946758792E0,-7.093467223E0,-3.909097552E-1,-3.257144701E-1,7.111693019E0
1.956785792E0,-5.491248858E0,-2.580200851E-1,-1.208603030E0,5.628597487E0
1.966812792E0,-3.708632780E0,4.057897496E-1,-1.420295699E0,3.991974736E0
1.976839792E0,-2.698442076E0,7.727598345E-1,-1.263886188E0,3.078336515E0
1.986866792E0,-1.578484517E0,-6.968126893E-3,-6.474060559E-1,1.706105661E0
1.996893792E0,-5.119833720E-1,-1.313820240E0,8.871161699E-2,1.412841233E0
2.006920792E0,8.805205107E-2,-1.393709579E0,3.375738295E-1,1.436710007E0
2.016946792E0,2.202195901E-1,-5.366855192E-1,5.120523691E-1,7.737736382E-1
2.026973792E0,-4.642443645E-1,1.176208359E-1,8.808187187E-1,1.002596183E0
2.037000792E0,-1.087084513E0,5.772207570E-1,5.924691625E-1,1.366000091E0
2.047027792E0,-1.649251029E0,7.999523109E-1,1.038703043E-2,1.833046793E0
2.057054792E0,-1.808467788E0,8.655621636E-1,-1.123063016E-1,2.008075273E0
2.067081500E0,-1.526488152E0,7.719049716E-1,-4.225361753E-1,1.761970539E0
2.077107500E0,-1.259764486E0,3.199801058E-1,-1.023938677E0,1.654643237E0
2.087134500E0,-7.608455479E-1,-1.391017520E-1,-1.191477778E0,1.420512070E0
2.097161500E0,-2.797658801E-2,-2.397925597E-1,-5.093848328E-1,5.636985622E-1
2.107188500E0,9.128374869E-1,1.494261807E-1,7.175983715E-1,1.170704012E0
2.117215500E0,1.160331414E0,2.102758151E-1,1.667700748E0,2.042501088E0
2.127242500E0,2.306872755E-1,-2.700922465E-1,1.565362195E0,1.605155832E0
2.137269500E0,-8.614357835E-1,-7.226176214E-1,5.132691747E-1,1.235998819E0
2.147295500E0,-1.105220237E0,-5.792941797E-1,-5.501359059E-1,1.363723958E0
2.157322500E0,-4.229238456E-1,4.023802382E-1,-1.292949774E0,1.418623823E0
2.167349500E0,1.253759980E-1,1.245690823E-2,-1.444129534E0,1.449615269E0
2.177376500E0,-7.510561395E-1,6.053446949E-2,2.969771594E-1,8.099044264E-1
2.187403500E0,-1.296135044E0,6.390386903E-1,1.358099450E0,1.983121433E0
2.197430500E0,-1.152744360E0,1.238609844E0,1.304060068E0,2.136245905E0
2.207456500E0,-7.119175091E-1,1.610339563E0,6.650283945E-1,1.882095325E0
2.217483500E0,-3.184624609E-1,1.994550163E0,2.315269357E-1,2.033040436E0
2.227510500E0,2.025862880E-1,2.376441173E0,-1.623287199E-1,2.390578270E0
2.237537500E0,1.387279103E0,2.189034403E0,-1.174363562E0,2.845267071E0
2.247564500E0,2.418569777E0,3.120772430E0,-2.193543776E0,4.516672959E0
2.257591500E0,2.488541360E0,5.086689363E0,1.742033477E0,5.924687959E0
2.267618500E0,2.791911573E0,4.846007441E0,2.546024460E0,6.144981603E0
2.277644500E0,2.829494551E0,4.755977277E0,1.066657265E0,5.635877660E0
2.287671500E0,2.580073089E0,4.616742209E0,3.372744155E-1,5.299513166E0
2.297698500E0,2.229428577E0,4.297236312E0,-4.219942845E-2,4.841319292E0
2.307725500E0,2.019086249E0,4.063006793E0,1.647827232E-1,4.540031589E0
2.317752500E0,1.670757088E0,3.674156427E0,5.994395918E-1,4.080463518E0
2.327779500E0,1.310608950E0,3.167703937E0,1.090490005E0,3.597389679E0
2.337806500E0,7.992100069E-1,3.812676966E-2,1.696531615E0,1.875742468E0
2.347832500E0,-9.251172245E-1,-1.001263877E1,1.169792209E0,1.012310184E1
2.357859500E0,-2.962552914E0,-1.765816559E1,4.677048929E-1,1.791106585E1
2.367886500E0,-5.281747799E0,-2.085364556E1,1.289123502E0,2.155071303E1
2.377913500E0,-7.506002905E0,-2.083177229E1,1.863107679E0,2.222102578E1
2.387940500E0,-8.000894866E0,-1.416147684E1,1.090078142E0,1.630184085E1
2.397967500E0,-4.303342852E0,-4.584076738E0,-1.639704426E0,6.497780379E0
2.407993500E0,-1.445088770E0,1.123174113E0,-3.307042501E0,3.779726411E0
2.418020500E0,-3.704333907E-1,4.213550962E0,-2.758911057E0,5.050031963E0
2.428047500E0,-2.400422359E-1,5.639580440E0,-1.088904752E0,5.748756507E0
2.438074500E0,-1.706007028E-1,5.546001016E0,8.999478847E-1,5.621133165E0
2.448101500E0,4.465711552E-1,3.299731143E0,2.365829646E0,4.084703334E0
2.458128500E0,5.568791708E-1,4.995475137E-1,2.154452800E0,2.280642234E0
2.468155500E0,5.066808245E-1,-9.983635408E-1,9.422647691E-1,1.463324336E0
2.478181500E0,3.809636414E-1,-1.319713649E0,1.562509046E-1,1.382458591E0
2.488208500E0,2.865773016E-1,-8.578531945E-1,-2.477607067E-1,9.377761038E-1
2.498235500E0,3.060111076E-1,-2.095630395E-1,-3.491245289E-1,5.093597964E-1
2.508262500E0,2.769565853E-1,2.011693615E-1,-1.591214490E-1,3.774833741E-1
2.518289500E0,1.674961236E-1,3.391233051E-1,1.031513160E-1,3.920456115E-1
2.528316500E0,3.959062010E-2,3.269020396E-1,2.568174590E-1,4.175973754E-1
2.538343500E0,-3.886059523E-3,2.939547336E-1,3.316143107E-1,4.431619771E-1
2.548369500E0,-1.041994295E-1,1.684752399E-1,3.587195174E-1,4.097817953E-1
2.558396500E0,-2.739364985E-1,-3.777769089E-2,4.032894802E-1,4.889895336E-1
2.568423500E0,-3.597364944E-1,-1.293129283E-1,4.291854827E-1,5.747454719E-1
2.578450500E0,-4.258538854E-1,-1.475837231E-1,4.543380117E-1,6.399652459E-1
2.588477500E0,-3.006837094E-1,-4.803019881E-2,3.344841242E-1,4.523242448E-1
2.598504500E0,-2.909504342E-1,1.687974215E-2,1.738704658E-1,3.393641403E-1
2.608530500E0,-5.277807945E-1,-5.405926287E-2,3.525537747E-1,6.370001060E-1
2.618557500E0,-4.199882510E-1,4.239582181E-2,3.051509821E-1,5.208691377E-1
2.628584500E0,-3.680655608E-1,1.131711048E-1,1.421183306E-1,4.104602001E-1
2.638611500E0,-4.491029996E-1,1.412400788E-1,1.446951985E-1,4.925230599E-1
2.648638500E0,-4.725494573E-1,1.839960891E-1,1.992454813E-1,5.448452186E-1
2.658665500E0,-4.829498997E-1,2.454286909E-1,2.814656657E-1,6.104905969E-1
2.668692500E0,-4.677795911E-1,3.301285332E-1,3.752528121E-1,6.845562557E-1
2.678718500E0,-4.471570462E-1,4.613564247E-1,4.570790403E-1,7.884925007E-1
2.688745500E0,-4.600840706E-1,5.879989296E-1,5.372130843E-1,9.197923630E-1
2.698772500E0,-5.128168926E-1,6.584853601E-1,5.959973359E-1,1.025571528E0
2.708799500E0,-5.608921149E-1,6.790815926E-1,6.579836690E-1,1.099406332E0
2.718826500E0,-4.863143876E-1,6.763170290E-1,5.992257299E-1,1.026147106E0
2.728853500E0,-2.910510063E-1,6.552881026E-1,4.288225168E-1,8.354651020E-1
2.738879500E0,-8.960974932E-2,5.341022193E-1,1.257002992E-1,5.559637156E-1
2.748906500E0,4.444205493E-2,2.616816115E-1,-1.295111489E-1,2.953396346E-1
2.758933500E0,1.870199767E-1,-6.907549739E-2,-2.767664047E-1,3.410975502E-1
2.768960500E0,3.062812489E-1,-2.801430255E-1,-3.869396420E-1,5.674597825E-1
2.778987500E0,3.880484203E-1,-3.375878263E-1,-5.414416444E-1,7.467972758E-1
2.789014500E0,4.549075305E-1,-3.153233832E-1,-7.638656348E-1,9.433241253E-1
2.799041500E0,5.905915850E-1,-3.160922921E-1,-9.440598643E-1,1.157567184E0
2.809067500E0,8.064941758E-1,-2.978255904E-1,-9.912182432E-1,1.312115294E0
2.819094500E0,1.119481596E0,-3.317856342E-1,-8.896282069E-1,1.467909772E0
2.829121500E0,1.451847567E0,-4.993820375E-1,-7.459509355E-1,1.706952423E0
2.839148500E0,1.732299618E0,-6.568458009E-1,-6.119245666E-1,1.951092014E0
2.849175500E0,1.947594390E0,-8.096317917E-1,-6.159316635E-1,2.197270889E0
2.859202500E0,2.105982014E0,-9.759856617E-1,-7.860406154E-1,2.450626063E0
2.869229500E0,2.296489562E0,-1.094112867E0,-1.162930063E0,2.797025850E0
2.879255500E0,2.536880292E0,-1.282046471E0,-1.772242532E0,3.349663918E0
2.889282500E0,2.727016835E0,-1.537244689E0,-2.409435257E0,3.950331671E0
2.899309500E0,2.824770878E0,-1.829908943E0,-3.129918060E0,4.596116221E0
2.909336500E0,2.854340248E0,-2.192725750E0,-4.009605342E0,5.388157335E0
2.919363500E0,2.940183513E0,-2.486858239E0,-4.944382752E0,6.267061815E0
2.929390500E0,3.076023981E0,-2.528191037E0,-5.811573949E0,7.044718960E0
2.939416500E0,3.214472599E0,-2.353767425E0,-6.398230358E0,7.537267867E0
2.949443500E0,3.370580685E0,-2.039338666E0,-6.753542265E0,7.818570807E0
2.959470500E0,3.590098902E0,-1.754126689E0,-6.964590497E0,8.029401681E0
2.969497500E0,3.882707899E0,-1.887504017E0,-6.805966646E0,8.059731635E0
2.979524500E0,4.080635271E0,-2.728996702E0,-5.948298224E0,7.712409414E0
2.989551500E0,3.846575614E0,-4.103826790E0,-3.723002898E0,6.745241942E0
2.999578500E0,2.830749949E0,-5.383817965E0,-1.059000921E-1,6.083572633E0
3.009604500E0,1.509670682E0,-6.398612766E0,1.690299067E0,6.788111802E0
3.019631500E0,8.305852890E-2,-7.256010463E0,6.157597554E-1,7.282564564E0
3.029658500E0,-1.453769839E0,-7.652585000E0,-1.988498733E0,8.039255634E0
3.039685500E0,-2.785933964E0,-6.826808462E0,-2.972540835E0,7.950015147E0
3.049712500E0,-2.260677705E0,-5.417334790E0,-1.252737887E0,6.002293905E0
3.059739500E0,-4.656243805E-1,-4.368886338E0,1.398349929E0,4.610786964E0
3.069766125E0,6.700895981E-1,-3.914407994E0,3.129907827E0,5.056474366E0
3.079793125E0,1.143261492E0,-3.904489362E0,3.270005652E0,5.219676329E0
3.089820125E0,7.975081748E-1,-3.931319311E0,2.917439306E0,4.960115212E0
3.099847125E0,-9.975641350E-2,-3.922178943E0,3.246651581E0,5.092561781E0
3.109874125E0,-7.941299459E-1,-4.152020711E0,2.807368395E0,5.074567535E0
3.119901125E0,-1.254938487E0,-4.525137389E0,-2.669797736E-1,4.703511156E0
3.129928125E0,-1.705155965E0,-4.423550788E0,-2.605469886E0,5.409605509E0
3.139954125E0,-2.409858010E0,-3.269647218E0,-1.589814082E0,4.361825005E0
3.149981125E0,-3.106698182E0,-1.427398311E0,5.086624458E-1,3.456555658E0
3.160008125E0,-3.245882379E0,3.608579904E-1,2.261288447E0,3.972328832E0
3.170035125E0,-3.055442659E0,1.901889337E0,3.211468007E0,4.823529791E0
3.180062125E0,-2.749061130E0,2.873686638E0,3.556500508E0,5.335176459E0
3.190089125E0,-2.232219014E0,3.131362322E0,3.733456550E0,5.359750883E0
3.200116125E0,-1.695363341E0,3.013863108E0,3.444011773E0,4.880455387E0
3.210142125E0,-1.537225978E0,3.001654122E0,2.876596212E0,4.432583552E0
3.220169125E0,-1.923970908E0,3.290926405E0,2.749935581E0,4.700426189E0
3.230196125E0,-2.261373816E0,3.757305588E0,3.274592793E0,5.473035244E0
3.240223125E0,-2.333515447E0,4.121371946E0,3.880743234E0,6.123003275E0
3.250250125E0,-2.378488576E0,4.264809993E0,4.196807460E0,6.438866751E0
3.260277125E0,-2.463124391E0,4.370757447E0,4.463149887E0,6.714924373E0
3.270303125E0,-2.668194430E0,4.518572720E0,4.670217335E0,7.024791164E0
3.280330125E0,-2.812397878E0,4.672341628E0,4.842745280E0,7.293321600E0
3.290357125E0,-2.958610136E0,4.812980613E0,4.957985714E0,7.516633466E0
3.300384125E0,-2.999979479E0,5.002272525E0,5.122698271E0,7.763030650E0
3.310411125E0,-3.042018621E0,5.273466387E0,5.262377728E0,8.047107827E0
3.320438125E0,-3.168316140E0,5.582359003E0,5.281736104E0,8.312502360E0
3.330465125E0,-3.329302266E0,5.813567850E0,5.144224210E0,8.446589102E0
3.340491125E0,-3.686436750E0,5.924436321E0,4.814609063E0,8.477571708E0
3.350518125E0,-3.896928327E0,5.913127806E0,4.408571976E0,8.341860566E0
3.360545125E0,-3.883813315E0,5.782359506E0,4.129935193E0,8.097904174E0
3.370572125E0,-3.810581324E0,5.656905740E0,3.985340567E0,7.899623536E0
3.380599125E0,-3.830412156E0,5.587461283E0,3.789502696E0,7.762223365E0
3.390626125E0,-3.895151943E0,5.539034643E0,3.463145033E0,7.605687803E0
3.400652125E0,-3.975549989E0,5.383915029E0,3.112399217E0,7.380959804E0
3.410679125E0,-3.991574868E0,5.118780636E0,3.064201788E0,7.178016281E0
3.420706125E0,-3.849962322E0,4.839764954E0,3.174756263E0,6.951590611E0
3.430733125E0,-3.397519685E0,4.566080763E0,3.153525608E0,6.506685585E0
3.440760125E0,-2.710363672E0,4.313253005E0,3.526851032E0,6.195877736E0
3.450787125E0,-2.098085641E0,4.077213773E0,4.294750953E0,6.282556905E0
3.460814125E0,-1.763404466E0,3.833907622E0,5.180312056E0,6.681622255E0
3.470840125E0,-1.622514928E0,3.405444124E0,6.130681066E0,7.198253587E0
3.480867125E0,-1.429664400E0,2.608909510E0,5.585170344E0,6.328070551E0
3.490894125E0,-9.154968005E-1,-3.136300296E-1,-6.878284425E0,6.946027268E0
3.500921125E0,3.656956258E0,-1.935821314E1,-5.841665008E1,6.164915856E1
3.510948125E0,1.960578308E1,-4.956023739E1,-4.393501479E1,6.907162504E1
3.520975125E0,1.858580297E1,-4.409988288E1,2.031526669E1,5.198982403E1
3.531001125E0,4.519515438E-1,-2.686310040E1,3.049062177E1,4.063875538E1
3.541028125E0,-8.107684904E0,-1.554329084E1,2.176802379E1,2.794951349E1
3.551055125E0,-8.595070210E0,-4.216479247E0,2.179260197E0,9.818508245E0
3.561082125E0,-1.211617109E1,8.728498993E0,-2.935299217E1,3.293306007E1
3.571109125E0,-3.395248334E0,1.125846992E1,-3.925996006E-1,1.176583999E1
3.581136125E0,-9.251514307E-1,1.167819476E1,9.921294733E0,1.535148941E1
3.591163125E0,-6.218040953E-1,1.135236685E1,1.087838687E1,1.573537970E1
3.601189125E0,1.070609837E-1,1.018781667E1,8.077869952E0,1.300211727E1
3.611216125E0,-2.035825805E0,7.240279698E0,5.071939176E0,9.071427882E0
3.621243125E0,-1.814803538E0,3.212403561E0,5.543785506E0,6.659324760E0
3.631270125E0,5.087011836E-1,1.796516079E-1,6.600635237E0,6.622645779E0
3.641297125E0,2.428240048E0,-4.223877144E0,4.415268792E0,6.575111130E0
3.651324125E0,5.787658253E0,-9.350252729E0,-3.086503068E0,1.142150232E1
3.661351125E0,4.694593207E0,-1.146141274E1,-2.496514331E0,1.263470503E1
3.671377125E0,2.285950248E0,-1.044394927E1,1.250410841E0,1.076406857E1
3.681404125E0,1.553663086E0,-6.826328990E0,1.643178988E0,7.191152456E0
3.691431125E0,9.154856908E-1,-2.563419342E0,1.647618194E-1,2.726972539E0
3.701458125E0,6.662476120E-1,-3.100603044E-1,-1.677566025E0,1.831461449E0
3.711485125E0,4.058916374E-1,1.040090441E0,-2.619151493E0,2.847189964E0
3.721512125E0,2.710152295E-1,1.906625581E0,-1.966339102E0,2.752300824E0
3.731538125E0,4.885617650E-1,2.258864191E0,-4.030345416E-1,2.345974611E0
3.741565125E0,9.593194892E-1,2.287445966E0,1.178320446E0,2.746113982E0
3.751592125E0,1.788304980E0,2.203789852E0,2.458906209E0,3.755122389E0
3.761619125E0,2.476586728E0,2.143055407E0,2.872503161E0,4.356310677E0
3.771646125E0,2.579416739E0,2.202840264E0,1.798564943E0,3.839366067E0
3.781673125E0,2.047505910E0,2.067415826E0,-1.184411820E-1,2.912132717E0
3.791700125E0,1.058997267E0,1.703758188E0,-1.905581853E0,2.766859117E0
3.801726125E0,2.974824502E-1,1.290525518E0,-3.170131701E0,3.435649418E0
3.811753125E0,-5.759432500E-2,1.105650592E0,-3.682255406E0,3.845098856E0
3.821780125E0,-4.436165571E-2,1.219188318E0,-3.259038030E0,3.479901865E0
3.831807125E0,2.311348799E-1,1.352852159E0,-2.396223473E0,2.761434270E0
3.841834125E0,4.863313080E-1,1.452192845E0,-1.553152040E0,2.181206881E0
3.851861125E0,7.335453366E-1,1.615268181E0,-1.001304617E0,2.037103579E0
3.861887125E0,1.047780041E0,1.913666798E0,-8.683742358E-1,2.348198766E0
3.871914125E0,1.383704554E0,2.146314061E0,-1.109986814E0,2.784487936E0
3.881941125E0,1.575630929E0,2.248764880E0,-1.540101639E0,3.148248620E0
3.891968125E0,1.527473407E0,2.199797958E0,-1.877338048E0,3.270578574E0
3.901995125E0,1.452211848E0,1.962526132E0,-1.882572475E0,3.082938079E0
3.912022125E0,1.459964671E0,1.691032308E0,-1.461295790E0,2.669545372E0
3.922049125E0,1.589397614E0,1.492766089E0,-1.052986329E0,2.421428418E0
3.932075125E0,2.015121253E0,1.291312553E0,-9.218907309E-1,2.564777630E0
3.942102125E0,2.692292852E0,9.311369330E-1,-1.111684334E0,3.057989347E0
3.952129125E0,3.315831743E0,4.512021500E-1,-1.462388635E0,3.651972624E0
3.962156125E0,3.651389124E0,1.412716538E-1,-1.682224063E0,4.022745084E0
3.972183125E0,3.697516054E0,2.582656682E-2,-1.557612296E0,4.012287134E0
3.982210125E0,3.775593340E0,2.871918440E-2,-1.161161207E0,3.950218375E0
3.992237125E0,3.931889999E0,-8.059626639E-2,-1.099261925E0,4.083458277E0
4.002263125E0,4.081880436E0,-1.173658973E-1,-1.465140773E0,4.338451352E0
4.012290125E0,4.431070892E0,-1.143083882E-1,-2.295891100E0,4.991850519E0
4.022317125E0,5.127552629E0,-5.915335715E-2,-3.149320875E0,6.017766783E0
4.032344125E0,6.210834698E0,-9.828111166E-1,-3.064365510E0,6.995049772E0
4.042371125E0,6.978685210E0,-3.189121118E0,-1.866020177E0,7.896491124E0
4.052398125E0,7.620310124E0,-4.840292957E0,-8.196386435E-1,9.064732197E0
4.062424125E0,8.266173100E0,-4.905846092E0,-6.607780534E-1,9.635017967E0
4.072450375E0,8.475223923E0,-4.943539583E0,-1.875646448E0,9.989296960E0
4.082477375E0,8.158089073E0,-6.936492287E0,-7.397717734E0,1.301520535E1
4.092504375E0,5.038225885E0,-9.664803110E0,-1.358242707E1,1.741477719E1
4.102531375E0,2.121608990E0,-1.136767486E1,-1.242967774E1,1.697710650E1
4.112558375E0,1.105235952E0,-1.331759498E1,-8.967774074E0,1.609350349E1
4.122585375E0,-1.117231003E0,-1.472272066E1,-5.390681427E0,1.571833818E1
4.132611375E0,-4.662949830E0,-1.484057013E1,-9.253394186E-1,1.558338461E1
4.142638375E0,-7.518686101E0,-1.421248327E1,2.586224653E0,1.628538852E1
4.152665375E0,-8.701503568E0,-1.254761725E1,4.617574267E0,1.595245609E1
4.162692375E0,-7.977397245E0,-9.344955736E0,4.607526412E0,1.312236123E1
4.172719375E0,-6.090105482E0,-5.243232189E0,3.574715170E0,8.795422510E0
4.182746375E0,-4.061015816E0,-1.849032846E0,3.302889516E0,5.551562940E0
4.192772375E0,-2.557340284E0,2.177953345E-1,3.630008780E0,4.445715677E0
4.202799375E0,-9.339726864E-1,1.116238146E0,4.735881274E0,4.954479187E0
4.212826375E0,1.205217419E0,6.865338689E-1,5.181811867E0,5.364238250E0
4.222853375E0,2.824960036E0,-6.864689648E-1,4.004234382E0,4.948285747E0
4.232880375E0,3.753237388E0,-2.264730118E0,2.860304115E0,5.234227071E0
4.242907375E0,3.604375171E0,-3.467411746E0,2.574772588E0,5.625292745E0
4.252934375E0,1.945474775E0,-3.925441105E0,2.588699487E0,5.088744933E0
4.262960375E0,2.825301513E-1,-3.404995642E0,2.821143558E0,4.430876842E0
4.272987375E0,-3.873564023E-1,-2.146330433E0,3.151358338E0,3.832471615E0
4.283014375E0,-7.669120342E-1,-4.876074994E-1,3.433090929E0,3.551341784E0
4.293041375E0,-1.472741422E0,1.360254734E0,4.097314162E0,4.561495761E0
4.303068375E0,-2.458766461E0,3.110818714E0,4.979508145E0,6.365392914E0
4.313095375E0,-3.470295300E0,4.522775114E0,5.474667324E0,7.903823537E0
4.323122375E0,-4.323647308E0,5.615461845E0,5.468664572E0,8.951738936E0
4.333148375E0,-4.952723805E0,6.491733184E0,5.206259660E0,9.683863509E0
4.343175375E0,-5.403079278E0,7.052300486E0,4.957660024E0,1.017381938E1
4.353202375E0,-5.627460916E0,7.224184653E0,4.826314604E0,1.035135126E1
4.363229375E0,-5.640589085E0,7.106324081E0,4.757720917E0,1.024460812E1
4.373256375E0,-5.634813205E0,6.858196315E0,4.724897572E0,1.005537834E1
4.383283375E0,-5.545832031E0,6.496340790E0,4.673871844E0,9.736722991E0
4.393309375E0,-5.361800274E0,6.045182494E0,4.524865494E0,9.261076682E0
4.403336375E0,-5.157427808E0,5.586369023E0,4.393063990E0,8.780978971E0
4.413363375E0,-4.991002017E0,5.149663290E0,4.362595904E0,8.394127481E0
4.423390375E0,-4.859391133E0,4.817947823E0,4.475662344E0,8.176665385E0
4.433417375E0,-4.824285620E0,4.706598710E0,4.656171153E0,8.191808895E0
4.443444375E0,-4.807185145E0,4.852396109E0,4.746824046E0,8.317879270E0
4.453470375E0,-4.786546521E0,5.138854712E0,4.721606174E0,8.462412198E0
4.463497375E0,-4.874517880E0,5.431185674E0,4.703179259E0,8.682084861E0
4.473524375E0,-5.050910250E0,5.615074174E0,4.802094267E0,8.949908474E0
4.483551375E0,-5.256453329E0,5.709130147E0,4.803274235E0,9.126659411E0
4.493578375E0,-5.308629788E0,5.716547924E0,4.659904016E0,9.087088413E0
4.503605375E0,-5.321824615E0,5.604519365E0,4.440581681E0,8.913541396E0
4.513632375E0,-5.227209649E0,5.204159340E0,4.210198168E0,8.493100951E0
4.523658375E0,-5.098591370E0,4.470363597E0,4.111052780E0,7.929725065E0
4.533685375E0,-4.915201637E0,3.457784890E0,4.126214025E0,7.289795996E0
4.543712375E0,-4.527095622E0,2.061135331E0,1.144548902E0,5.104200801E0
4.553739375E0,-2.952845951E0,-2.116732997E0,-2.184479539E1,2.214486269E1
4.563766375E0,1.244898876E1,-2.503727222E1,-6.556446424E1,7.127791589E1
4.573793375E0,2.659473191E1,-4.170266480E1,1.029494351E1,5.052106371E1
4.583819375E0,1.611922521E1,-3.841592617E1,3.640316719E1,5.532452789E1
4.593846375E0,-3.092287719E0,-2.812308649E1,2.360872260E1,3.684890799E1
4.603873375E0,-8.405398228E0,-1.629320560E1,1.265026395E1,2.227438992E1
4.613900375E0,-1.462131006E1,-8.475708658E-1,-2.939648844E1,3.284287772E1
4.623927375E0,-1.064944265E1,5.570628319E0,-1.590481951E1,1.993503981E1
4.633954375E0,-4.789602275E0,7.431573113E0,8.388817863E0,1.218773293E1
4.643981375E0,-5.076452642E0,7.946298829E0,1.199218088E1,1.525537410E1
4.654007375E0,-5.448450748E0,8.215485926E0,9.525673292E0,1.370832872E1
4.664034375E0,-4.069643383E0,7.764084386E0,6.767689018E0,1.107450307E1
4.674061375E0,-2.711600943E0,5.795920368E0,5.366745265E0,8.351492521E0
4.684088375E0,-1.841571507E0,3.371084715E0,5.068674091E0,6.359799903E0
4.694115375E0,-8.979696254E-1,9.720007843E-1,5.727279904E0,5.878168939E0
4.704142375E0,9.282352522E-2,-2.120462936E0,6.391521263E0,6.734725186E0
4.714169375E0,1.291845527E0,-5.159222319E0,5.959712573E0,7.987779025E0
4.724195375E0,5.556092725E0,-7.529302890E0,-1.196464283E0,9.433562168E0
4.734222375E0,8.744014580E0,-8.161120269E0,-4.199520568E0,1.267665760E1
4.744249375E0,6.038538888E0,-6.019741843E0,1.105033857E0,8.597810395E0
4.754276375E0,3.848604306E0,-3.286818151E0,3.571813781E0,6.194576850E0
4.764303375E0,2.607646512E0,-1.077480462E0,3.108427788E0,4.197988541E0
4.774330375E0,1.373529083E0,5.136422271E-1,1.350232022E0,1.993373270E0
4.784356375E0,1.227650701E-1,1.757468957E0,-1.202415580E0,2.132972486E0
4.794383375E0,-7.430890158E-1,2.381671507E0,-3.268991160E0,4.112279619E0
4.804410375E0,-4.854504615E-1,2.219663288E0,-3.508941010E0,4.180339014E0
4.814437375E0,2.740202598E-1,1.801682678E0,-2.344648107E0,2.969599691E0
4.824464375E0,6.381227240E-1,1.557160306E0,-1.087456396E0,2.003624277E0
4.834491375E0,4.617424140E-1,1.457232560E0,-1.641593735E-1,1.537426776E0
4.844518375E0,-1.853866301E-1,1.462469326E0,2.287039731E-1,1.491807709E0
4.854544375E0,-7.765373551E-1,1.449349344E0,4.639539041E-2,1.644924411E0
4.864571375E0,-1.101896534E0,1.425191572E0,-6.215058142E-1,1.905680053E0
4.874598375E0,-1.033444934E0,1.474095345E0,-1.276005127E0,2.206616098E0
4.884625375E0,-7.547516529E-1,1.479131552E0,-1.490241262E0,2.231210260E0
4.894652375E0,-4.196168797E-1,1.571678942E0,-1.365125465E0,2.123633810E0
4.904679375E0,3.699569888E-3,1.566261497E0,-1.208947358E0,1.978570817E0
4.914706375E0,3.553691360E-1,1.528032986E0,-1.517892745E0,2.182927029E0
4.924732375E0,6.881441921E-1,1.508261796E0,-2.370107030E0,2.892369860E0
4.934759375E0,1.219757252E0,1.480222058E0,-3.231958990E0,3.758247464E0
4.944786375E0,1.823036418E0,1.507622110E0,-3.387613624E0,4.131865472E0
4.954813375E0,2.237684845E0,1.649324704E0,-2.901645684E0,4.018339598E0
4.964840375E0,2.495763841E0,1.888143702E0,-2.023616672E0,3.726787923E0
4.974867375E0,2.633493544E0,2.149304911E0,-1.023468707E0,3.549970147E0
4.984893375E0,2.729934888E0,2.307767379E0,-2.663829191E-1,3.584591278E0
4.994920375E0,3.185471871E0,2.031659517E0,-2.457599357E-2,3.778290012E0
5.004947375E0,4.060674631E0,1.219967752E0,-2.174866015E-1,4.245550635E0
5.014974375E0,4.913497759E0,2.995224524E-1,-5.960628247E-1,4.958574877E0
5.025001375E0,5.459354051E0,-1.356746989E-1,-1.119677478E0,5.574641866E0
5.035028375E0,5.983991382E0,2.398644805E-2,-1.762578985E0,6.238221933E0
5.045055375E0,6.595188555E0,4.550648206E-1,-2.462243215E0,7.054518957E0
5.055081375E0,7.238533135E0,8.234394068E-1,-3.234086791E0,7.970804964E0
5.065108375E0,7.901461210E0,1.052739138E0,-3.919487470E0,8.882777210E0
5.075136125E0,8.595053837E0,8.882967228E-1,-3.563658085E0,9.346854042E0
5.085163125E0,9.593530814E0,-6.601635110E-1,-1.549122139E0,9.740196545E0
5.095190125E0,1.078210896E1,-3.413730213E0,4.792348713E-1,1.131976562E1
5.105217125E0,1.098511259E1,-5.111440626E0,6.928260577E-1,1.213587788E1
5.115243125E0,9.904058311E0,-5.659346368E0,-3.861103022E0,1.204270272E1
5.125270125E0,6.592232203E0,-7.544451857E0,-1.277240995E1,1.623301374E1
5.135297125E0,1.976740714E0,-9.663935384E0,-1.316349161E1,1.644921464E1
5.145324125E0,3.645393243E-1,-1.103431808E1,-7.652681479E0,1.343326462E1
5.155351125E0,7.788652048E-2,-1.270147855E1,-3.201324842E0,1.309893524E1
5.165378125E0,-1.532945378E0,-1.400787750E1,1.171431184E-2,1.409151130E1
5.175405125E0,-4.272254960E0,-1.465215647E1,1.585815171E0,1.534446680E1
5.185431125E0,-5.445466329E0,-1.434399651E1,2.592147882E0,1.556028823E1
5.195458125E0,-5.005311323E0,-1.241634024E1,2.773555409E0,1.367154915E1
5.205485125E0,-4.470560355E0,-9.281614603E0,2.052834624E0,1.050468512E1
5.215512125E0,-4.252245496E0,-6.289793159E0,1.066346486E0,7.666823630E0
5.225539125E0,-3.753473908E0,-3.762281569E0,7.700338626E-1,5.369942377E0
5.235566125E0,-2.829268849E0,-1.884865168E0,1.271549257E0,3.629644120E0
5.245592125E0,-1.474153525E0,-9.090163314E-1,2.651900579E0,3.167335787E0
5.255619125E0,7.930338854E-1,-4.011458910E-1,4.087125681E0,4.182632795E0
5.265646125E0,3.668186128E0,-5.394050592E-1,3.613226978E0,5.177060603E0
5.275673125E0,5.715649207E0,-1.423828586E0,1.955919363E0,6.206573472E0
5.285700125E0,4.726913692E0,-2.185279321E0,1.447410407E0,5.405012086E0
5.295727125E0,8.838054764E-1,-2.389574019E0,2.661556086E0,3.684434409E0
5.305754125E0,-1.008527171E0,-1.898045962E0,3.580688685E0,4.176246759E0
5.315780125E0,-1.125755366E0,-1.028851508E0,3.876200825E0,4.165428358E0
5.325807125E0,-1.149439221E0,-4.370208979E-2,4.001091504E0,4.163154287E0
5.335834125E0,-1.585144495E0,1.009777306E0,4.435261884E0,4.817040716E0
5.345861125E0,-2.572924576E0,2.090763758E0,5.062409384E0,6.051381887E0
5.355888125E0,-3.943214301E0,3.169168079E0,5.484987075E0,7.461745677E0
5.365915125E0,-5.205183188E0,4.224889882E0,5.436740529E0,8.631441022E0
5.375941125E0,-6.150962133E0,5.162284505E0,4.973391958E0,9.445535668E0
5.385968125E0,-6.822202610E0,5.940246608E0,4.556537522E0,1.012872215E1
5.395995125E0,-7.259414712E0,6.415837494E0,4.295432446E0,1.059777395E1
5.406022125E0,-7.491317039E0,6.553354651E0,3.983698084E0,1.072082733E1
5.416049125E0,-7.537362692E0,6.359255742E0,3.825977628E0,1.057781049E1
5.426076125E0,-7.382962285E0,5.910684255E0,3.873536541E0,1.022001007E1
5.436103125E0,-7.090608519E0,5.351901523E0,4.062472650E0,9.768483153E0
5.446129125E0,-6.504773644E0,4.787402553E0,4.393763317E0,9.194371075E0
5.456156125E0,-5.697377243E0,4.214291804E0,4.681798330E0,8.493503309E0
5.466183125E0,-4.801377106E0,3.787646205E0,4.778369774E0,7.760947338E0
5.476210125E0,-4.093680994E0,3.622787468E0,4.780916237E0,7.262229216E0
5.486237125E0,-3.710091076E0,3.617323830E0,4.695626995E0,6.992761998E0
5.496264125E0,-3.603687246E0,3.675240501E0,4.535118586E0,6.860120633E0
5.506290125E0,-3.716690828E0,3.739084495E0,4.242723305E0,6.767218381E0
5.516317125E0,-4.051465851E0,3.767337071E0,3.928662336E0,6.785395486E0
5.526344125E0,-4.539224501E0,3.733402755E0,3.602868928E0,6.893730465E0
5.536371125E0,-5.022428463E0,3.603977560E0,3.136585640E0,6.931926961E0
5.546398125E0,-5.384816669E0,3.383520573E0,2.678819698E0,6.900763509E0
5.556425125E0,-5.573986959E0,3.130423844E0,2.217692484E0,6.766612448E0
5.566452125E0,-5.656205828E0,2.851537385E0,1.712308280E0,6.561701721E0
5.576478125E0,-5.501015462E0,2.535539233E0,1.359729362E0,6.207978274E0
5.586505125E0,-4.977117219E0,2.264067628E0,1.033650610E0,5.564722061E0
5.596532125E0,-4.063213492E0,2.130069911E0,3.624232900E-1,4.601983524E0
5.606559125E0,-2.844211701E0,1.981188106E0,-2.058284521E0,4.031275441E0
5.616586125E0,-6.106677076E-1,9.549041104E-1,-1.153503504E1,1.159059059E1
5.626613125E0,6.600587289E0,-6.420077895E0,-5.066794328E1,5.149782160E1
5.636640125E0,3.105096980E1,-2.824290062E1,-3.244027292E1,5.304899120E1
5.646666125E0,3.249480639E1,-3.797420411E1,3.434400471E1,6.064209165E1
5.656693125E0,5.314201015E0,-3.274809842E1,2.727073553E1,4.294614882E1
5.666720125E0,-9.359907067E0,-2.138802494E1,1.211809365E1,2.630406175E1
5.676747125E0,-1.359684397E1,-4.972272801E0,-1.988620268E1,2.459794137E1
5.686774125E0,-1.433912461E1,5.141129279E0,-2.189917449E1,2.667612319E1
5.696801125E0,-8.290178844E0,6.940511663E0,5.859662036E0,1.229769924E1
5.706827125E0,-6.653632060E0,7.214919155E0,1.454784682E1,1.754895225E1
5.716854125E0,-7.932792930E0,7.539871733E0,1.271559255E1,1.677692354E1
5.726881125E0,-7.094275308E0,7.755784264E0,7.792307142E0,1.308437932E1
5.736908125E0,-6.091417013E0,7.150189893E0,3.590297999E0,1.005588467E1
5.746935125E0,-5.514541826E0,4.414071867E0,7.311604035E-1,7.101323647E0
5.756962125E0,-2.899825446E0,1.569405545E0,4.159523274E0,5.307886137E0
5.766989125E0,-1.745306456E0,-1.406468203E0,6.287277102E0,6.674885826E0
5.777015125E0,-1.190850664E0,-4.874046595E0,5.351633720E0,7.335832535E0
5.787042125E0,4.924700439E-2,-7.789897504E0,2.455360458E0,8.167846924E0
5.797069125E0,1.993961349E0,-9.957293701E0,-1.391869021E0,1.024992093E1
5.807096125E0,2.673945751E0,-9.715817143E0,-6.130326140E-1,1.009568708E1
5.817123125E0,1.586551628E0,-6.212381871E0,2.433398316E0,6.858007141E0
5.827150125E0,1.022640157E0,-3.010651817E0,3.516331891E0,4.740718007E0
5.837176125E0,1.407126453E0,-1.491263355E0,3.284211463E0,3.871681312E0
5.847203125E0,1.975111095E0,-4.984055525E-1,2.321683168E0,3.088637995E0
5.857230125E0,2.338683947E0,5.578261274E-1,1.007418539E0,2.606818886E0
5.867257125E0,2.387705395E0,1.727537645E0,-3.438391941E-1,2.967111181E0
5.877284125E0,2.096653658E0,2.792762343E0,-1.439472812E0,3.777242386E0
5.887311125E0,1.531220596E0,3.276704807E0,-1.788955629E0,4.035070402E0
5.897337125E0,7.958721238E-1,2.859955621E0,-1.434690374E0,3.297134371E0
5.907364125E0,1.714549810E-2,1.835415266E0,-8.341152531E-1,2.016132788E0
5.917391125E0,-5.241565441E-1,1.106940488E0,-3.219557337E-1,1.266377835E0
5.927418125E0,-9.110241191E-1,8.368429792E-1,2.965688775E-1,1.272094421E0
5.937445125E0,-1.202525507E0,8.455255097E-1,5.884767933E-1,1.583441164E0
5.947472125E0,-1.347880856E0,1.084322289E0,1.998297644E-1,1.741398738E0
5.957499125E0,-9.299221739E-1,1.287231781E0,-3.826540715E-1,1.633445759E0
5.967525125E0,-2.434374216E-1,1.581376550E0,-1.013856323E0,1.894180090E0
5.977552125E0,3.983778191E-1,2.047879109E0,-1.696651483E0,2.689077906E0
5.987579125E0,8.587774931E-1,2.574839539E0,-2.495281738E0,3.686967370E0
5.997606125E0,1.302444190E0,2.979250515E0,-3.173402633E0,4.543432488E0
6.007633125E0,1.674811109E0,3.154688619E0,-3.407679514E0,4.936530382E0
6.017660125E0,1.907294649E0,3.109598401E0,-3.097256098E0,4.785433149E0
6.027687125E0,2.114351133E0,2.887066237E0,-2.315642994E0,4.262374297E0
6.037713125E0,2.310981009E0,2.627468573E0,-1.347530901E0,3.749675166E0
6.047740125E0,2.461887705E0,2.361889207E0,-4.695109516E-1,3.443813618E0
6.057767125E0,2.632410055E0,2.211074898E0,-3.640388757E-2,3.437987804E0
6.067794125E0,3.132463353E0,2.146090112E0,-2.589131011E-1,3.805925041E0
6.077820625E0,4.108742837E0,1.976409177E0,-1.302602942E0,4.741807183E0
6.087847625E0,5.056736416E0,1.731202095E0,-2.671012495E0,5.975111013E0
6.097873625E0,5.729856772E0,1.394587830E0,-4.012870427E0,7.132970132E0
6.107900625E0,6.170600007E0,8.957589394E-1,-5.199326617E0,8.118601221E0
6.117927625E0,6.445564154E0,3.006632441E-1,-6.333285334E0,9.041360449E0
6.127954625E0,6.715474552E0,-2.374940193E-1,-7.379396653E0,9.980455743E0
6.137981625E0,7.089307514E0,-6.448888296E-1,-7.885317632E0,1.062320087E1
6.148008625E0,7.341073417E0,-8.196942651E-1,-6.608134875E0,9.911140405E0
6.158035625E0,7.849390585E0,-1.307558457E0,-3.466922334E0,8.679988027E0
6.168061625E0,9.052618927E0,-2.909168712E0,-5.803745990E-1,9.526279794E0
6.178088625E0,1.118915469E1,-4.564607849E0,3.074460143E-1,1.208831463E1
6.188115625E0,1.314422504E1,-5.869135695E0,-4.579875514E0,1.510604731E1
6.198142625E0,1.108537597E1,-8.241261038E0,-1.311319386E1,1.904625415E1
6.208169625E0,4.839744489E0,-1.036862895E1,-9.644712662E0,1.496502841E1
6.218196625E0,1.796234974E0,-1.246270399E1,-3.810069108E0,1.315530605E1
6.228222625E0,4.777011466E-1,-1.550501029E1,-1.981292771E0,1.563838430E1
6.238249625E0,-1.310098488E0,-1.775639648E1,-4.096594369E-1,1.780937379E1
6.248276625E0,-2.595158906E0,-1.816082500E1,1.062088178E0,1.837602910E1
6.258303625E0,-2.350635656E0,-1.717102587E1,1.701873046E0,1.741453385E1
6.268330625E0,-1.863157673E0,-1.499033837E1,1.728303630E0,1.520423080E1
6.278357625E0,-2.851955169E0,-1.232626272E1,1.487763212E0,1.273906748E1
6.288384625E0,-3.805500678E0,-9.624594147E0,1.974867851E0,1.053635378E1
6.298410625E0,-3.681200568E0,-7.148290717E0,3.853560406E0,8.916233824E0
6.308437625E0,-2.501927683E0,-4.990019100E0,6.170710520E0,8.320913476E0
6.318464625E0,-2.294178450E-1,-3.279978663E0,6.787656090E0,7.542093064E0
6.328491625E0,2.717004063E0,-2.165422177E0,4.507806534E0,5.691351688E0
6.338518625E0,5.136046295E0,-1.719545671E0,1.008898177E0,5.509417790E0
6.348545625E0,4.358955427E0,-1.804247852E0,2.279507786E-2,4.717660686E0
6.358571625E0,9.533230233E-1,-2.196779040E0,1.028661181E0,2.606301357E0
6.368598625E0,-8.703492790E-1,-2.143300990E0,2.376368083E0,3.316379391E0
6.378625625E0,-1.617625194E0,-1.877870729E0,3.418778114E0,4.222695056E0
6.388652625E0,-2.467878762E0,-1.410878758E0,4.488990194E0,5.313382860E0
6.398679625E0,-3.597102404E0,-5.205162138E-1,5.559553692E0,6.642192416E0
6.408706625E0,-4.880309547E0,6.642097843E-1,6.016527044E0,7.775422406E0
6.418733625E0,-6.085649319E0,1.964234689E0,5.851245553E0,8.667780574E0
6.428759625E0,-7.087387873E0,3.191589813E0,5.498025781E0,9.520798280E0
6.438786625E0,-7.971945301E0,4.262127875E0,5.230594602E0,1.044398228E1
6.448813625E0,-8.726928431E0,5.067191237E0,5.198117412E0,1.135148147E1
6.458840625E0,-9.163175742E0,5.658112020E0,5.415001166E0,1.205405571E1
6.468867625E0,-9.301130855E0,6.093633108E0,5.678194867E0,1.248540334E1
6.478894625E0,-9.363161042E0,6.327294277E0,5.772966539E0,1.268978251E1
6.488920625E0,-9.319909773E0,6.396235873E0,5.885113211E0,1.274390478E1
6.498947625E0,-9.069017444E0,6.379507574E0,5.837112249E0,1.253064538E1
6.508974625E0,-8.555738329E0,6.213814439E0,5.579800261E0,1.195601602E1
6.519001625E0,-7.832508504E0,5.871606143E0,5.377434559E0,1.116873988E1
6.529028625E0,-7.114083921E0,5.451421133E0,5.347200946E0,1.043650997E1
6.539055625E0,-6.468054884E0,5.190949311E0,5.396634477E0,9.894713356E0
6.549082625E0,-5.957551442E0,5.156350751E0,5.339214234E0,9.517750832E0
6.559108625E0,-5.668476210E0,5.254210337E0,5.225996937E0,9.330026409E0
6.569135625E0,-5.556183942E0,5.457396403E0,5.049664793E0,9.281889356E0
6.579162625E0,-5.470633914E0,5.639868123E0,4.843311290E0,9.230038576E0
6.589189625E0,-5.316015991E0,5.663332999E0,4.526143695E0,8.989957921E0
6.599216625E0,-5.149698374E0,5.563815143E0,4.178137300E0,8.656342391E0
6.609243625E0,-5.070514210E0,5.369122742E0,3.850102070E0,8.328317917E0
6.619270625E0,-4.995022563E0,4.978387819E0,3.439528713E0,7.846333758E0
6.629296625E0,-4.769386112E0,4.334478983E0,3.270046290E0,7.226891080E0
6.639323625E0,-4.309299118E0,3.450157197E0,3.475991365E0,6.523508224E0
6.649350625E0,-3.982493557E0,2.407636068E0,4.372522430E0,6.385602459E0
6.659377625E0,-3.966309341E0,1.312544378E0,5.250225459E0,6.709638583E0
6.669404625E0,-4.021307375E0,-1.247556084E-1,3.609238300E0,5.404912402E0
6.679431625E0,-3.331406094E0,-4.403359768E0,-9.582577225E0,1.105954927E1
6.689457625E0,1.837959506E1,-2.844632993E1,-6.310082179E1,7.161506065E1
6.699484625E0,5.589377767E1,-4.843533134E1,-3.342631287E0,7.403559203E1
6.709511625E0,3.204342473E1,-4.064005732E1,4.486725743E1,6.849427798E1
6.719538625E0,-1.931252300E0,-3.540072756E1,2.419306526E1,4.292138923E1
6.729565625E0,-1.326702475E1,-2.005458846E1,-2.753405026E0,2.420292757E1
6.739592625E0,-2.219761404E1,1.781892192E-1,-4.028280647E1,4.599424223E1
6.749618625E0,-1.252113638E1,5.781437985E0,-3.457015689E0,1.421811657E1
6.759645625E0,-7.403481919E0,5.799625164E0,1.667800268E1,1.914687886E1
6.769672625E0,-8.659725212E0,7.259188424E0,1.392819866E1,1.793547812E1
6.779699625E0,-8.365883914E0,8.295692768E0,1.048930963E1,1.577441437E1
6.789726625E0,-6.649018607E0,8.637149112E0,7.283593533E0,1.310955865E1
6.799753625E0,-5.059323809E0,7.878928964E0,5.272367696E0,1.074579639E1
6.809780625E0,-3.167672946E0,6.177228996E0,4.718586087E0,8.393888528E0
6.819806625E0,-1.549935194E0,4.007534843E0,5.483769100E0,6.966660474E0
6.829833625E0,-4.387066501E-1,1.235764005E0,5.766921687E0,5.914132392E0
6.839860625E0,7.461754686E-1,-1.660278878E0,5.012911534E0,5.333159086E0
6.849887625E0,3.665216912E0,-5.245949975E0,-8.361810744E-1,6.453913924E0
6.859914625E0,6.375053165E0,-8.992617724E0,-6.308467412E0,1.270059989E1
6.869941625E0,5.342599772E0,-9.820251338E0,4.994714999E-1,1.119062914E1
6.879968625E0,3.002397888E0,-7.375923992E0,6.302252991E0,1.015564083E1
6.889994625E0,1.404956990E0,-4.264969622E0,6.014439003E0,7.505820844E0
6.900021625E0,1.612287855E-1,-1.775548548E0,2.273906153E0,2.889501092E0
6.910048625E0,-3.612933156E-1,6.269349539E-1,-2.413435922E0,2.519574020E0
6.920075625E0,6.135269961E-1,2.390883796E0,-3.686951305E0,4.436930315E0
6.930102625E0,1.428876488E0,2.987881590E0,-1.651377661E0,3.700834040E0
6.940129625E0,1.227998610E0,3.123446361E0,-1.178038355E-1,3.358239941E0
6.950155625E0,5.265061015E-1,2.900395550E0,3.945525706E-1,2.974083850E0
6.960182625E0,-2.847403988E-1,2.179951338E0,3.450933123E-1,2.225388579E0
6.970209625E0,-1.037754478E0,1.283189017E0,1.516329199E-1,1.657257057E0
6.980236625E0,-1.893916366E0,6.232266498E-1,-1.819357496E-2,1.993906132E0
6.990263625E0,-2.619916017E0,3.409669322E-1,-4.442035810E-1,2.679092235E0
7.000290625E0,-2.794061886E0,3.115010583E-1,-1.206972899E0,3.059509489E0
7.010317625E0,-2.601777369E0,4.252791041E-1,-1.756340445E0,3.167781487E0
7.020343625E0,-2.166015084E0,7.421812356E-1,-1.931191489E0,2.995322169E0
7.030370625E0,-1.396799247E0,1.176580827E0,-1.547824641E0,2.393982393E0
7.040397625E0,-6.865043405E-1,1.653516573E0,-9.390132055E-1,2.021670365E0
7.050424625E0,-1.009337595E-1,2.181837065E0,-6.964174906E-1,2.292509089E0
7.060451625E0,5.059104538E-1,2.672564054E0,-8.371857722E-1,2.845948704E0
7.070478542E0,1.124890271E0,3.002282698E0,-1.081158506E0,3.383486845E0
7.080504542E0,1.742537361E0,2.968919070E0,-1.204114854E0,3.647027485E0
7.090531542E0,2.096459092E0,2.651469639E0,-1.164880694E0,3.575245307E0
7.100558542E0,2.101307749E0,2.267465445E0,-1.006964649E0,3.251287685E0
7.110585542E0,1.920000356E0,1.979022297E0,-8.858625269E-1,2.896149692E0
7.120612542E0,2.021193294E0,1.825160419E0,-8.788014293E-1,2.861594806E0
7.130639542E0,2.358837692E0,1.851183452E0,-9.658360648E-1,3.150211855E0
7.140666542E0,2.819693741E0,1.970285972E0,-1.090579394E0,3.608609569E0
7.150692542E0,3.304951537E0,1.959558086E0,-1.226891586E0,4.033340491E0
7.160719542E0,3.780670770E0,1.725763015E0,-1.354293644E0,4.371022847E0
7.170746542E0,4.223532159E0,1.441335150E0,-1.553160957E0,4.725249186E0
7.180773542E0,4.627323330E0,1.222731146E0,-2.000381445E0,5.187361428E0
7.190800542E0,5.167496713E0,1.098072601E0,-2.736889274E0,5.949735172E0
7.200827542E0,5.750570533E0,1.133453518E0,-3.333402334E0,6.742799823E0
7.210853542E0,6.295685399E0,1.169791040E0,-2.820401546E0,6.997051565E0
7.220880542E0,7.567991577E0,2.603174561E-1,-9.243722892E-1,7.628677855E0
7.230907542E0,9.467753112E0,-1.626860871E0,8.404852098E-1,9.643206971E0
7.240934542E0,1.095797566E1,-2.326353924E0,1.268118403E0,1.127374283E1
7.250961542E0,1.106526622E1,-1.470030946E0,1.988813460E-2,1.116250434E1
7.260988542E0,1.137266254E1,-1.406835408E0,-7.795816641E0,1.385970404E1
7.271015542E0,9.496363539E0,-4.665698022E0,-1.800760689E1,2.088596573E1
7.281041542E0,4.732090524E0,-9.022692878E0,-1.673811557E1,1.959505499E1
7.291068542E0,3.943587354E0,-1.183233204E1,-8.622753267E0,1.516271205E1
7.301095542E0,3.770020066E0,-1.433119578E1,-2.501589714E0,1.502844553E1
7.311122542E0,1.584606552E0,-1.609019028E1,8.873629224E-1,1.619236283E1
7.321149542E0,-5.944723821E-1,-1.717017569E1,1.228290678E0,1.722431504E1
7.331176542E0,-9.545585400E-1,-1.716719828E1,5.326122026E-1,1.720196369E1
7.341202542E0,-1.245354315E0,-1.515893698E1,9.091322525E-1,1.523715194E1
7.351229542E0,-2.455013718E0,-1.126301438E1,1.975279495E0,1.169548265E1
7.361256542E0,-3.848727682E0,-7.003059914E0,2.772743230E0,8.458348417E0
7.371283542E0,-4.548062568E0,-3.737470663E0,4.319853927E0,7.301691450E0
7.381310542E0,-3.694595370E0,-1.644075658E0,6.207260295E0,7.408312904E0
7.391337542E0,-1.825696024E0,-4.261076546E-1,6.472742597E0,6.738778111E0
7.401364542E0,7.047795206E-1,-4.330389440E-2,4.411223688E0,4.467379973E0
7.411390542E0,3.622613806E0,-7.910996264E-1,1.345872045E0,3.944685155E0
7.421417542E0,5.230166001E0,-1.921169361E0,6.493280357E-1,5.609559253E0
7.431444542E0,5.071753235E0,-2.959023827E0,1.615789753E0,6.090096831E0
7.441471542E0,3.321825432E0,-3.286745061E0,2.593537765E0,5.344497678E0
7.451498542E0,1.184183961E0,-2.820462942E0,3.322859512E0,4.516491802E0
7.461525542E0,-4.977284449E-1,-1.779861454E0,3.885242374E0,4.302411964E0
7.471551542E0,-2.170752499E0,-5.604766703E-1,4.412875819E0,4.949724588E0
7.481578542E0,-4.203189695E0,4.735320818E-1,4.791333051E0,6.391236864E0
7.491605542E0,-6.121421415E0,1.383475782E0,4.956863633E0,7.997268437E0
7.501632542E0,-7.393405997E0,2.162344202E0,4.953636555E0,9.158422343E0
7.511659542E0,-8.194268135E0,2.852746589E0,4.824898993E0,9.927932497E0
7.521686542E0,-8.835345165E0,3.503853933E0,4.656004508E0,1.058388844E1
7.531713542E0,-9.224792531E0,4.079391861E0,4.551659190E0,1.106597653E1
7.541739542E0,-9.290617561E0,4.480319651E0,4.549731363E0,1.127337103E1
7.551766542E0,-9.134751257E0,4.624178697E0,4.586148407E0,1.121871055E1
7.561793542E0,-8.810496837E0,4.481841681E0,4.693782198E0,1.094273050E1
7.571820542E0,-8.297743971E0,4.063699688E0,4.759440583E0,1.039319416E1
7.581847542E0,-7.582717205E0,3.566815581E0,4.736762742E0,9.625834763E0
7.591874542E0,-6.818108974E0,3.218819126E0,4.760638093E0,8.916898654E0
7.601900542E0,-6.324494630E0,2.948508194E0,4.993321608E0,8.580570702E0
7.611927542E0,-6.095993629E0,2.716925125E0,5.144662752E0,8.426765410E0
7.621954542E0,-6.035221762E0,2.640956930E0,4.967297990E0,8.250612374E0
7.631981542E0,-6.239734561E0,2.771764407E0,4.648054633E0,8.259623308E0
7.642008542E0,-6.607116875E0,3.010571710E0,4.390359069E0,8.484856403E0
7.652035542E0,-6.932974017E0,3.160204298E0,4.303179422E0,8.750449878E0
7.662062542E0,-7.179203192E0,3.213249654E0,4.300824164E0,8.964542392E0
7.672088542E0,-7.055884244E0,3.286113562E0,4.036782031E0,8.768104355E0
7.682115542E0,-6.559787173E0,3.410639375E0,3.556250832E0,8.204278681E0
7.692142542E0,-6.071605477E0,3.487139667E0,3.090371001E0,7.653425968E0
7.702169542E0,-5.540855466E0,3.416662007E0,2.725766115E0,7.057227464E0
7.712196542E0,-5.187569035E0,3.270443024E0,2.669710905E0,6.688350050E0
7.722223542E0,-5.039684765E0,3.063815871E0,3.159546486E0,6.690898611E0
7.732249542E0,-4.990347714E0,2.720305400E0,3.572536205E0,6.713169647E0
7.742276542E0,-4.860545374E0,2.028422499E0,3.791117990E0,6.489373989E0
7.752303542E0,-4.047195922E0,3.626513314E-1,-3.167892802E-1,4.075741193E0
7.762330542E0,-2.948709923E-1,-4.337580346E0,-2.339245748E1,2.379303720E1
7.772357542E0,3.487513070E1,-2.548307798E1,-6.154659913E1,7.519072994E1
7.782384542E0,6.500970381E1,-3.786074006E1,2.978222925E1,8.091154681E1
7.792411542E0,3.687669343E1,-3.314696038E1,4.279891482E1,6.550082909E1
7.802437542E0,2.122479640E0,-2.482420436E1,1.440976248E1,2.878171810E1
7.812464542E0,-1.079626390E1,-1.035887346E1,-1.009409048E1,1.804871840E1
7.822491542E0,-1.728197562E1,2.065844094E0,-2.851759111E1,3.340939084E1
7.832518542E0,-1.259301270E1,6.407726237E0,-7.323140591E0,1.591450007E1
7.842545542E0,-9.878125910E0,6.696051271E0,9.759381824E0,1.541622547E1
7.852572542E0,-1.080997796E1,6.557808475E0,1.198326505E1,1.742007797E1
7.862598542E0,-1.126160169E1,6.141109575E0,9.234956746E0,1.580573711E1
7.872625542E0,-1.003009855E1,4.686915228E0,6.988833053E0,1.309251079E1
7.882652542E0,-9.885843065E0,1.965412903E0,6.948374999E-1,1.010324404E1
7.892679542E0,-6.863372270E0,-7.260382426E-1,5.684559269E-1,6.925038093E0
7.902706542E0,-1.655034218E0,-1.503008072E0,6.806557800E0,7.164314385E0
7.912733542E0,1.188987449E-1,-2.551560604E0,8.028774390E0,8.425308103E0
7.922760542E0,3.268388897E-1,-3.254313480E0,6.854941170E0,7.595235239E0
7.932786542E0,4.068100888E-1,-3.524473554E0,3.642741969E0,5.084975647E0
7.942813542E0,1.130329643E0,-3.721166872E0,-1.027755594E0,4.022562560E0
7.952840542E0,1.111218604E0,-3.588793511E0,-1.653290870E0,4.104584796E0
7.962867542E0,2.654913649E-1,-3.116418008E0,1.611871680E0,3.518618646E0
7.972894542E0,-6.600638160E-1,-2.781093054E0,3.845955809E0,4.791819999E0
7.982921542E0,-1.239066512E0,-2.322955522E0,4.052122786E0,4.832298340E0
7.992948542E0,-1.446214651E0,-1.307802286E0,2.700903754E0,3.331180681E0
8.002974542E0,-1.056727231E0,-2.920514649E-1,4.951762084E-1,1.202982118E0
8.013001542E0,3.655182213E-1,1.896831495E0,-1.236185589E0,2.293409711E0
8.023028542E0,1.741713050E0,4.833169879E0,-1.434008589E0,5.333805027E0
8.033055542E0,-2.882852733E-2,1.360707893E0,-2.863614663E-1,1.390812692E0
8.043082542E0,-1.188988911E0,-1.561321185E0,4.699453267E-1,2.017985897E0
8.053109542E0,-1.299153377E0,-2.741337835E0,5.215178784E-1,3.078102260E0
8.063135542E0,-1.527903470E0,-3.442641186E0,-3.904688752E-1,3.786651990E0
8.073162667E0,-1.838140653E0,-3.211804807E0,-1.364783403E0,3.944247065E0
8.083189667E0,-1.774469737E0,-2.092149548E0,-1.204648046E0,2.996165799E0
8.093216667E0,-1.735650072E0,-1.103395906E0,-5.820996737E-1,2.137476018E0
8.103243667E0,-1.775854357E0,2.643572974E-1,-1.335434071E-1,1.800382549E0
8.113270667E0,-1.555623658E0,1.950662717E0,-1.442087102E-1,2.499169092E0
8.123297667E0,-1.083998353E0,3.028344322E0,-2.687239981E-1,3.227713487E0
8.133323667E0,-2.995122197E-1,3.619116586E0,-3.137441416E-2,3.631624539E0
8.143350667E0,1.104033837E0,4.184741730E0,3.944533506E-2,4.328106976E0
8.153377667E0,3.080644743E0,5.186998347E0,-1.508312666E-1,6.034738930E0
8.163404667E0,4.082063454E0,3.968170218E0,4.235524579E-1,5.708678797E0
8.173431667E0,4.305644023E0,2.100404647E0,1.085610430E0,4.912109541E0
8.183458667E0,3.733476723E0,8.654773790E-1,8.823927891E-1,3.932749238E0
8.193484667E0,2.123623940E0,2.233794254E-1,-7.962504387E-2,2.136824082E0
8.203511667E0,9.832806480E-1,5.921773499E-1,-1.507585273E0,1.894816139E0
8.213538667E0,6.823379070E-1,1.241593094E0,-2.788951128E0,3.128160293E0
8.223565667E0,9.191811311E-1,1.839246361E0,-3.404073536E0,3.976862805E0
8.233592667E0,1.934323550E0,3.215784422E0,-3.398826830E0,5.063092026E0
8.243619667E0,2.462795193E0,3.663665353E0,-2.505164702E0,5.075790989E0
8.253646667E0,2.784128636E0,3.529938946E0,-1.973025978E0,4.909650979E0
8.263672667E0,3.318599523E0,3.883533525E0,-1.922796641E0,5.458212378E0
8.273699667E0,3.752975140E0,4.730933653E0,-1.911694533E0,6.334124376E0
8.283726667E0,4.298855991E0,5.438249695E0,-1.257391686E0,7.045264823E0
8.293753667E0,4.654814599E0,3.797536186E0,-2.118359254E-1,6.011110920E0
8.303780667E0,4.931350477E0,-8.206602252E-1,5.169856650E-1,5.025830768E0
8.313807667E0,5.905705935E0,-4.247967088E0,1.270045061E0,7.384822370E0
8.323833667E0,5.791503966E0,-6.367440675E0,1.287363929E0,8.703052615E0
8.333860667E0,4.444972940E0,-7.836443680E0,7.681019425E-1,9.041991737E0
8.343887667E0,3.597609358E0,-8.650540406E0,9.417198086E-1,9.416022440E0
8.353914667E0,2.961022990E0,-8.042995988E0,1.265181931E0,8.663609348E0
8.363941667E0,1.124217549E0,-7.750494288E0,-1.590987618E0,7.991574839E0
8.373968667E0,-2.605137179E0,-9.678195573E0,-1.041316485E1,1.445296549E1
8.383995667E0,-2.498674585E0,-1.049261682E1,-7.854130923E0,1.334262924E1
8.394021667E0,-1.506571073E0,-1.009090024E1,-9.505151904E-1,1.024692652E1
8.404048667E0,-3.139314828E0,-9.102558242E0,2.620626161E0,9.978955136E0
8.414075667E0,-5.957900521E0,-6.779897420E0,3.595131308E0,9.715377335E0
8.424102667E0,-7.668871250E0,-4.480523134E0,2.979962121E0,9.368396237E0
8.434129667E0,-7.218819832E0,-2.599162202E0,1.564944266E0,7.830456850E0
8.444156667E0,-5.708242539E0,-2.051501459E-1,3.417931437E-1,5.722144879E0
8.454182667E0,-7.991360396E0,2.541626185E0,2.772844680E-1,8.390386840E0
8.464209667E0,-7.804260020E0,1.369800898E0,8.749153697E-1,7.971719129E0
8.474236667E0,-4.321193232E0,-2.306353523E0,2.762681926E0,5.623556610E0
8.484263667E0,-1.873927951E0,-2.326228793E0,4.059937005E0,5.040439946E0
8.494290667E0,-1.200235153E0,-3.969148457E-1,3.921437224E0,4.120166953E0
8.504317667E0,-4.161007297E-1,1.179512621E0,2.620788714E0,2.903949607E0
8.514344667E0,-9.279773900E-1,1.908191466E0,1.956305572E0,2.886081807E0
8.524370667E0,-2.119865642E0,1.548684767E0,2.493379054E0,3.620662088E0
8.534397667E0,-2.873680791E0,8.420814997E-1,3.432860841E0,4.555400761E0
8.544424667E0,-2.619719258E0,9.854107887E-1,3.828403053E0,4.742429056E0
8.554451667E0,-1.493910097E0,1.683035656E0,3.917049181E0,4.517482782E0
8.564478667E0,-3.829902864E-1,1.945113124E0,3.973218119E0,4.440338821E0
8.574505667E0,4.334248602E-2,1.547689571E0,3.551681233E0,3.874488503E0
8.584531667E0,-4.059897244E-2,1.217442339E0,2.659910095E0,2.925565900E0
8.594558667E0,1.990152472E-1,7.502018613E-1,1.915680872E0,2.066940518E0
8.604585667E0,1.056588360E0,2.286723250E-1,1.562526588E0,1.900041929E0
8.614612667E0,1.752290955E0,3.487688720E-2,1.303325804E0,2.184124113E0
8.624639667E0,1.310093810E0,-3.503569758E-1,1.005512785E0,1.688239249E0
8.634666667E0,-1.963182190E-1,-5.590230525E-1,5.373146796E-1,7.998466611E-1
8.644693667E0,-1.608207668E0,-4.442895716E-1,-1.655042696E-1,1.676638539E0
8.654719667E0,-2.613452797E0,-6.502928263E-1,-1.379568672E0,3.025925644E0
8.664746667E0,-3.420946262E0,-1.181559146E0,-3.617457147E0,5.117123367E0
8.674773667E0,-4.102632789E0,-1.722790875E0,-6.798766969E0,8.125443773E0
8.684800667E0,-3.941650756E0,-2.583467690E0,-8.234479437E0,9.487758828E0
8.694827667E0,-1.739306044E0,-3.898188402E0,-6.037811494E0,7.394337426E0
8.704854667E0,1.410099032E0,-4.475296308E0,-1.952026141E0,5.082033292E0
8.714880667E0,3.087752618E0,-4.326722651E0,1.712862449E0,5.584679302E0
8.724907667E0,2.850507690E0,-3.395752364E0,3.250882334E0,5.497705354E0
8.734934667E0,1.859325700E0,-2.566953399E0,3.693751616E0,4.867252081E0
8.744961667E0,9.127041703E-1,-2.083730727E0,3.699518141E0,4.342971001E0
8.754988667E0,-3.802485269E-1,-1.825150478E0,3.153816215E0,3.663648445E0
8.765015667E0,-1.779534010E0,-1.839398974E0,1.506547977E0,2.969817618E0
8.775042667E0,-3.116564773E0,-1.946881322E0,-1.098580505E0,3.835388115E0
8.785068667E0,-4.487888871E0,-1.384107866E0,-4.355623684E0,6.405338303E0
8.795095667E0,-5.073188142E0,-5.235748923E-1,-6.072410638E0,7.930040325E0
8.805122667E0,-4.417394840E0,-3.709292346E-1,-3.821567073E0,5.852806212E0
8.815149667E0,-3.220473304E0,3.656579697E-1,-8.808481009E-1,3.358727055E0
8.825176667E0,-2.037961062E0,1.660337350E0,1.120106810E0,2.857384235E0
8.835203667E0,-7.917679632E-1,2.227224323E0,2.636908318E0,3.541286513E0
8.845229667E0,-4.385663170E-1,2.077446724E0,3.013898484E0,3.686693556E0
8.855256667E0,-2.754243225E-1,1.632878240E0,2.795243901E0,3.248928804E0
8.865283667E0,8.485186994E-2,1.195664969E0,2.117218169E0,2.432987327E0
8.875310667E0,1.573140746E-1,1.138893768E0,1.318633522E0,1.749463088E0
8.885337667E0,-1.034103477E-1,1.122716861E0,7.806560607E-1,1.371353614E0
8.895364667E0,-8.894398534E-1,6.343919080E-1,7.510514617E-2,1.095078595E0
8.905391667E0,-9.887051100E-1,4.876449215E-1,-5.450926459E-1,1.229821677E0
8.915417667E0,-9.282437307E-1,2.365245509E-1,-7.823467831E-1,1.236788897E0
8.925444667E0,-9.401439840E-1,-1.825149894E-1,-6.822763650E-1,1.175875618E0
8.935471667E0,-3.027302349E-1,-5.301459932E-1,-2.040418062E-1,6.436873681E-1
8.945498667E0,3.965271753E-1,-4.881740946E-1,5.105584055E-2,6.309948068E-1
8.955525667E0,4.709610611E-1,-8.541524917E-1,7.987749740E-2,9.786527549E-1
8.965552667E0,3.692434824E-1,-1.176514168E0,4.231013086E-1,1.303664472E0
8.975578667E0,2.038684362E-1,-1.185139981E0,6.218372051E-1,1.353809670E0
8.985605667E0,-5.819850683E-2,-1.548080750E0,5.986180580E-1,1.660808433E0
8.995632667E0,-2.947318286E-1,-1.917380365E0,7.507662638E-1,2.080111607E0
9.005659667E0,-5.348044699E-1,-2.287737742E0,5.624742253E-1,2.415809813E0
9.015686667E0,-6.431668246E-1,-2.670949638E0,-9.832560897E-2,2.749055012E0
9.025713667E0,-4.856258780E-1,-2.549417599E0,-4.066504598E-2,2.595576282E0
9.035740667E0,-3.062093282E-1,-2.321949801E0,4.016544525E-1,2.376245217E0
9.045766667E0,-1.118426174E-1,-2.275141670E0,3.387021594E-1,2.302932379E0
9.055793667E0,2.910895979E-1,-2.100325710E0,6.570516229E-2,2.121418961E0
9.065820667E0,3.836691481E-1,-2.106537207E0,2.019453601E-1,2.150693597E0
9.075848000E0,3.156081426E-1,-2.470396573E0,-6.689083144E-2,2.491373539E0
9.085875000E0,3.806771278E-2,-3.500611067E0,3.498460022E-1,3.518255138E0
9.095902000E0,-2.756926512E0,-4.882736726E0,2.457116961E-2,5.607349238E0
9.105928000E0,-4.366197204E0,-4.913208906E0,-7.699373835E-1,6.617862446E0
9.115955000E0,-2.498206515E0,-2.851367231E0,4.919168973E-1,3.822736338E0
9.125982000E0,-4.010523355E-1,-1.441682475E0,2.213200361E-1,1.512704165E0
9.136009000E0,1.192917362E0,-1.087011423E0,-2.391079970E-1,1.631507984E0
9.146036000E0,2.306339489E0,-8.804749024E-1,-5.721168686E-1,2.534118309E0
9.156063000E0,2.648958845E0,-1.191364342E0,-1.020289138E0,3.078525926E0
9.166090000E0,3.241904519E0,-1.611000298E0,-1.117333329E0,3.788627804E0
9.176116000E0,4.571819220E0,-1.175831214E0,-9.675039831E-1,4.818731574E0
9.186143000E0,5.163270346E0,-1.739476490E-1,-1.236491398E0,5.312111579E0
9.196170000E0,4.594762525E0,9.387301272E-1,-1.639527694E0,4.968008451E0
9.206197000E0,4.138923533E0,1.471633667E0,-2.515789093E0,5.062172303E0
9.216224000E0,5.518760008E0,1.339744456E0,-3.971292046E0,6.929847599E0
9.226251000E0,7.739185188E0,1.902899151E0,-5.381131754E0,9.616267025E0
9.236277000E0,6.769503994E0,3.348225026E0,-4.928488265E0,9.018136821E0
9.246304000E0,6.251719599E0,3.966049433E0,-3.890523872E0,8.363595043E0
9.256331000E0,7.367601650E0,4.491142847E0,-2.624045613E0,9.018732368E0
9.266358000E0,9.011998905E0,4.761337420E0,-1.079540436E0,1.024948125E1
9.276385000E0,9.683117175E0,5.042294962E0,7.389664364E-1,1.094228350E1
9.286412000E0,9.137998801E0,5.058415151E0,2.236748852E0,1.068146204E1
9.296439000E0,8.146314535E0,3.893029988E0,3.372804966E0,9.638150047E0
9.306465000E0,6.582372043E0,2.416602189E0,4.183005107E0,8.164871069E0
9.316492000E0,4.218072029E0,8.716441450E-1,4.393004934E0,6.152266859E0
9.326519000E0,1.322329693E0,-5.890151757E-1,4.034521497E0,4.286357242E0
9.336546000E0,8.108509362E-2,-9.303800109E-1,3.152822773E0,3.288232533E0
9.346573000E0,2.858949316E-1,-5.940835422E-1,2.042514873E0,2.146284737E0
9.356600000E0,9.541007030E-1,-7.493031442E-1,9.097197515E-1,1.516361889E0
9.366626000E0,2.240392837E0,-9.224957715E-1,5.322872436E-1,2.480662859E0
9.376653000E0,3.020327790E0,-1.330907120E0,6.458249688E-1,3.363150846E0
9.386680000E0,3.017070306E0,-2.058725548E0,8.249053037E-1,3.744533732E0
9.396707000E0,2.535415272E0,-2.876019969E0,7.428179973E-1,3.905329697E0
9.406734000E0,2.642855228E0,-3.456521307E0,5.340086639E-1,4.383764199E0
9.416761000E0,2.580309609E0,-3.886440761E0,4.180338192E-1,4.683713457E0
9.426787000E0,1.235813706E0,-4.890687770E0,-3.687897384E-2,5.044543829E0
9.436814000E0,-3.822459358E-1,-5.713447731E0,-9.833549076E-1,5.810041635E0
9.446841000E0,-1.079414428E0,-6.153150746E0,-2.043926976E0,6.572977795E0
9.456868000E0,-1.676500516E0,-6.442113127E0,-3.113172219E0,7.348694904E0
9.466895000E0,-1.875005009E0,-6.488548790E0,-3.750254431E0,7.725368437E0
9.476922000E0,-1.096429826E0,-6.505366552E0,-3.517484962E0,7.476272654E0
9.486949000E0,-5.570747602E-1,-6.677777553E0,-2.613637569E0,7.192645318E0
9.496975000E0,-8.681939954E-1,-6.416918060E0,-1.453564017E0,6.636523679E0
9.507002000E0,-8.355220932E-1,-5.961011825E0,-6.566399789E-1,6.054992585E0
9.517029000E0,-4.080532068E-1,-5.536978762E0,-3.584232098E-1,5.563551782E0
9.527056000E0,2.641345185E-1,-4.675528361E0,-2.251587331E-2,4.683037418E0
9.537083000E0,1.235075787E0,-4.035427524E0,-1.444846988E-3,4.220200183E0
9.547110000E0,1.458292952E0,-4.697232933E0,-4.204206526E-2,4.918575312E0
9.557137000E0,-1.016210997E-1,-6.353738894E0,7.761827946E-2,6.355025522E0
9.567163000E0,-1.589854720E0,-6.963004732E0,-2.092256552E-1,7.145267546E0
9.577190000E0,-2.259382254E0,-6.231961273E0,-1.102973737E0,6.720022362E0
9.587217000E0,-1.947879442E0,-4.820813543E0,-2.134473449E0,5.620538626E0
9.597244000E0,-5.184138474E-1,-3.758276811E0,-2.718119711E0,4.667073201E0
9.607271000E0,4.586962339E-1,-3.214167666E0,-2.817876134E0,4.299035000E0
9.617298000E0,5.504027948E-1,-3.042745138E0,-2.321845720E0,3.866808601E0
9.627324000E0,-7.888157040E-2,-3.317310504E0,-1.278533463E0,3.556039806E0
9.637351000E0,-7.361985107E-1,-3.738305353E0,-3.017572582E-1,3.822037755E0
9.647378000E0,-1.227035866E0,-3.740117698E0,2.446515960E-1,3.943849872E0
9.657405000E0,-1.839390641E0,-3.177660868E0,2.300417429E-1,3.678832114E0
9.667432000E0,-1.917813644E0,-2.554297101E0,-1.803708154E-1,3.199214979E0
9.677459000E0,-1.199883443E0,-2.086470147E0,-1.417681993E0,2.793367177E0
9.687485000E0,-3.930048126E-1,-1.669142087E0,-2.489209405E0,3.022689456E0
9.697512000E0,3.313549867E-1,-1.297189005E0,-2.903803307E0,3.197588011E0
9.707539000E0,5.247231393E-1,-1.418746186E0,-2.929709980E0,3.297176926E0
9.717566000E0,5.299185365E-2,-1.904401301E0,-2.683902390E0,3.291334758E0
9.727593000E0,-7.721420762E-1,-2.726095313E0,-1.759912509E0,3.335429670E0
9.737620000E0,-1.379517217E0,-3.156880741E0,-1.034356077E0,3.597062170E0
9.747647000E0,-1.429250417E0,-2.729464479E0,-8.729670775E-1,3.202312386E0
9.757673000E0,-1.155992634E0,-2.052765042E0,-1.000917020E0,2.559687123E0
9.767700000E0,-7.971574880E-1,-1.847152382E0,-1.427770194E0,2.466973796E0
9.777727000E0,4.096170446E-1,-3.194681820E0,-1.435724747E0,3.526341391E0
9.787754000E0,8.346681804E-1,-3.103838308E0,-1.318540113E0,3.474051129E0
9.797781000E0,9.749193489E-1,-2.603096209E0,-1.293495319E0,3.065894282E0
9.807808000E0,1.272797930E0,-2.519589198E0,-1.757510473E0,3.325234933E0
9.817834000E0,1.133118473E0,-2.819760692E0,-2.394954627E0,3.869213809E0
9.827861000E0,7.563719894E-1,-2.750962937E0,-2.373371385E0,3.711170623E0
9.837888000E0,-1.177968663E0,6.232781053E-2,-3.193704166E0,3.404591198E0
9.847915000E0,-4.286205832E0,2.898622674E0,-5.418470904E0,7.492222686E0
9.857942000E0,-4.227037565E0,1.081933116E0,-5.218605471E0,6.802372300E0
9.867969000E0,-1.925065799E0,-4.706306934E-2,-2.368954398E0,3.052873762E0
9.877996000E0,1.388898489E0,-1.585090701E0,-7.598158532E-1,2.240283838E0
9.888022000E0,2.585746643E0,-2.854162200E0,-1.133144785E0,4.014516742E0
9.898049000E0,2.239829165E0,-3.265554752E0,-1.205818074E0,4.139405725E0
9.908076000E0,1.825662841E0,-3.856746846E0,-1.527806114E0,4.532298817E0
9.918103000E0,1.105620625E0,-3.697509037E0,-8.554312778E-1,3.952939757E0
9.928130000E0,3.255736984E-1,-4.144988850E0,2.325899595E-1,4.164256102E0
9.938157000E0,-3.398033363E-1,-4.277832912E0,7.691456705E-1,4.359691020E0
9.948184000E0,-9.147170743E-1,-3.211858016E0,1.255051630E0,3.567617389E0
9.958210000E0,-1.136642590E0,-1.163985339E0,2.207427989E0,2.742180989E0
9.968237000E0,-1.411512450E0,1.514794890E0,3.169447576E0,3.785811524E0
9.978264000E0,-1.573877057E0,1.592662261E0,2.516086716E0,3.368138125E0
9.988291000E0,-1.039982706E0,7.888741761E-1,9.460011399E-1,1.612080845E0
9.998318000E0,-7.966886875E-1,7.298903883E-2,-1.203233605E0,1.444926079E0
1.000834500E1,-9.325595605E-1,-2.862796783E-2,-3.342447392E0,3.470222105E0
1.001837100E1,-1.899302967E0,1.157818281E0,-3.983826138E0,4.562758555E0
1.002839800E1,-2.687672675E0,2.442846832E0,-3.205427248E0,4.844156159E0
1.003842500E1,-1.695814454E0,2.034248080E0,3.685581887E-1,2.673908572E0
1.004845200E1,-8.443037340E-1,-2.797436607E-1,-3.344431937E-2,8.900695666E-1
1.005847900E1,-7.705937335E-1,-5.297969145E-1,1.613258493E0,1.864699021E0
1.006850600E1,5.622409214E-1,-2.286968833E-1,2.883790042E0,2.946975080E0
1.007853163E1,1.945782630E0,-2.716031671E-3,4.010721576E0,4.457798221E0
1.008855863E1,2.216834551E0,-6.058826387E-2,4.310573226E0,4.847583718E0
1.009858563E1,1.033766970E0,-1.132137895E-1,3.999129471E0,4.132133593E0
1.010861263E1,-2.690300998E-1,-1.596055984E-2,3.041427467E0,3.053344555E0
1.011863963E1,-9.279556091E-1,-2.000250614E-1,1.317226828E0,1.623637322E0
1.012866663E1,-9.841898900E-1,-9.146273196E-2,8.691769123E-2,9.922448569E-1
1.013869362E1,-1.013923859E0,1.968032455E-1,-6.047897941E-1,1.196889219E0
1.014871963E1,-1.332262651E0,7.749069321E-1,-6.648342669E-1,1.678513964E0
1.015874663E1,-1.317591841E0,1.806435880E0,-4.142413151E-1,2.273951344E0
1.016877363E1,-6.306517366E-1,2.420332713E0,-5.487705445E-1,2.560640772E0
1.017880063E1,-6.780782104E-2,2.023030781E0,-1.794157312E0,2.704857095E0
1.018882763E1,-1.047091605E-1,1.256664877E0,-3.275791472E0,3.510125410E0
1.019885462E1,-2.255369018E-1,7.023675442E-2,-3.760344386E0,3.767756627E0
1.020888063E1,-4.226880567E-1,-7.303248364E-1,-2.241649988E0,2.395210686E0
1.021890763E1,-1.258919417E-1,-5.666437286E-1,4.429271704E-1,7.301495562E-1
1.022893463E1,-6.577580396E-2,-4.054126042E-1,3.243147052E0,3.269050112E0
1.023896163E1,5.891069770E-5,-3.589202231E-1,4.461821984E0,4.476234930E0
1.024898863E1,-3.204705410E-1,-5.179329139E-1,3.748167560E0,3.797330105E0
1.025901562E1,-5.896889211E-1,-3.777067423E-1,2.381951004E0,2.482757740E0
1.026904263E1,-7.294207107E-1,1.018403703E-1,8.986404473E-1,1.161886693E0
1.027906863E1,-7.176460263E-1,5.456683043E-1,-8.824033141E-2,9.058455020E-1
1.028909563E1,-7.303040788E-1,8.689576417E-1,-9.515992641E-2,1.139072799E0
1.029912263E1,-4.460237096E-1,1.078270420E0,1.092479154E0,1.598472694E0
1.030914963E1,-1.621250175E-1,8.725723904E-1,2.314938989E0,2.479235693E0
1.031917662E1,-7.616436472E-2,3.143717489E-1,2.477981581E0,2.499004466E0
1.032920363E1,2.976716624E-1,-2.009547687E-1,1.725708636E0,1.762685886E0
1.033922963E1,5.275945607E-1,-2.561483914E-1,3.946812093E-1,7.069238119E-1
1.034925663E1,4.153423458E-1,9.701203197E-2,-7.753969288E-1,8.849638387E-1
1.035928363E1,2.629943115E-1,5.229635659E-1,-1.310992527E0,1.435743119E0
1.036931063E1,7.708768118E-2,7.704580781E-1,-1.101116077E0,1.346107267E0
1.037933762E1,1.431924641E-2,7.283163178E-1,-3.476415288E-1,8.071581829E-1
1.038936463E1,2.005010247E-1,4.126020482E-1,3.168255329E-1,5.575119097E-1
1.039939163E1,3.244389731E-1,1.098510557E-1,7.756565452E-1,8.479215635E-1
1.040941763E1,3.274781366E-1,1.568398654E-1,1.055828222E0,1.116518655E0
1.041944463E1,3.895382908E-1,2.163189125E-1,1.289073654E0,1.363907929E0
1.042947163E1,5.027371699E-1,2.268184653E-1,1.721281124E0,1.807484436E0
1.043949862E1,7.496585087E-1,3.412797582E-1,2.562355734E0,2.691491530E0
1.044952563E1,1.059342106E0,4.289646041E-1,3.401126540E0,3.588018683E0
1.045955263E1,1.318550346E0,3.958594233E-1,3.390106877E0,3.658975859E0
1.046957863E1,1.244869581E0,3.289298540E-1,2.428510628E0,2.748737709E0
1.047960563E1,8.164492066E-1,1.129272759E-1,9.768077803E-1,1.278082672E0
1.048963263E1,2.929759097E-1,-1.235016730E-1,-5.653760523E-1,6.486429121E-1
1.049965962E1,-3.174204871E-2,-2.116013789E-1,-1.543484838E0,1.558245214E0
1.050968663E1,2.051557007E-1,-1.374314949E-1,-1.254593793E0,1.278664093E0
1.051971363E1,8.147849429E-1,1.354302853E-1,-1.106415993E-1,8.333411239E-1
1.052974063E1,1.682184594E0,3.067367470E-1,7.431857872E-1,1.864445643E0
1.053976663E1,2.243066184E0,3.030076852E-1,9.287173551E-1,2.446564017E0
1.054979363E1,2.072435953E0,2.264500907E-1,6.069538486E-1,2.171327565E0
1.055982062E1,1.481006900E0,3.638429940E-2,3.389338553E-2,1.481841428E0
1.056984763E1,1.161908847E0,-1.729410508E-1,-3.260138476E-1,1.219108611E0
1.057987463E1,1.233260519E0,-2.073770580E-1,-4.409800476E-1,1.326046815E0
1.058990163E1,1.157797670E0,-3.114724070E-1,-2.294014728E-1,1.220711080E0
1.059992763E1,9.876494683E-1,-5.993352190E-1,1.138669235E-1,1.160870300E0
1.060995463E1,8.318270183E-1,-9.194299302E-1,6.304695958E-1,1.390963514E0
1.061998163E1,7.208394101E-1,-1.240945515E0,1.258457633E0,1.908735403E0
1.063000863E1,9.434459066E-1,-1.544004071E0,1.453632429E0,2.321009692E0
1.064003563E1,1.017275921E0,-1.672404249E0,1.558109894E0,2.501897822E0
1.065006263E1,1.021278925E0,-1.789250036E0,1.859339733E0,2.775170369E0
1.066008963E1,1.168414386E0,-1.813833193E0,1.971305142E0,2.922537766E0
1.067011563E1,1.133670450E0,-1.682634537E0,1.768739465E0,2.691636486E0
1.068014263E1,1.063789425E0,-1.594817252E0,1.262691017E0,2.295534494E0
1.069016962E1,1.071691718E0,-1.538306544E0,5.162214339E-1,1.944580862E0
1.070019663E1,1.035932048E0,-1.404835076E0,-2.956603664E-1,1.770347946E0
1.071022363E1,9.229112162E-1,-1.351731833E0,-9.726182503E-1,1.903924978E0
1.072025063E1,2.241815172E-1,-1.412249930E0,-1.319214297E0,1.945516276E0
1.073027663E1,-8.389875917E-1,-1.189411957E0,-1.300576882E0,1.951948054E0
1.074030363E1,8.791551858E-1,-9.791101214E-1,-1.957394616E0,2.358593681E0
1.075033062E1,2.878725768E0,-8.633410987E-1,-2.343321959E0,3.810981200E0
1.076035763E1,3.547422121E0,-3.675314176E-1,-1.511973023E-2,3.566442437E0
1.077038463E1,2.266839062E0,-6.761690944E-2,-1.214256191E-1,2.271095674E0
1.078041163E1,9.352362697E-1,-3.629445693E-1,-1.007150152E0,1.421529834E0
1.079043863E1,-1.021888644E-1,-6.105191883E-1,-9.981232202E-1,1.174489764E0
1.080046463E1,-8.544609323E-1,-1.071360473E0,-1.442857765E0,1.989913385E0
1.081049162E1,-8.548769617E-1,-1.473467062E0,-1.880438826E0,2.537315507E0
1.082051863E1,-1.456908332E-1,-1.553922995E0,-1.944233118E0,2.493179679E0
1.083054563E1,9.837890634E-1,-1.182505810E0,-1.102994787E0,1.892817586E0
1.084057263E1,1.305584291E0,-6.068936223E-1,-6.175460798E-1,1.566599301E0
1.085059963E1,1.270804760E0,-4.650205824E-1,-9.299733371E-1,1.641962024E0
1.086062563E1,1.037202209E0,-7.616928095E-1,-1.299258335E0,1.828670713E0
1.087065262E1,8.465079881E-1,-1.139858851E0,-1.600709783E0,2.139655529E0
1.088067963E1,8.438627809E-1,-1.397198612E0,-1.488528612E0,2.209068986E0
1.089070663E1,1.294671340E0,-1.375096722E0,-1.496570288E0,2.409727682E0
1.090073363E1,1.681749853E0,-1.079481086E0,-8.275511688E-1,2.162961609E0
1.091076063E1,1.452050904E0,-3.627486876E-1,6.673836529E-2,1.498163024E0
1.092078763E1,6.117317547E-1,7.807351443E-1,8.830798370E-1,1.328003428E0
1.093081362E1,-5.038618818E-1,1.457443644E0,1.755323029E0,2.336488329E0
1.094084063E1,-8.550039925E-1,1.077676928E0,2.236922514E0,2.626069634E0
1.095086763E1,-2.784555191E-1,1.293053269E-1,2.199700309E0,2.221022015E0
1.096089463E1,-9.800806130E-1,-2.663465202E-1,2.486226740E0,2.685669726E0
1.097092163E1,-2.219982107E0,6.675239861E-2,2.484590689E0,3.332561677E0
1.098094863E1,-2.831780228E0,6.821148357E-1,2.167626577E0,3.630821517E0
1.099097462E1,-2.703667148E0,1.319506658E0,1.272307348E0,3.266447590E0
1.100100163E1,-2.501566325E0,1.824060265E0,1.442911559E-1,3.099330552E0
1.101102863E1,-2.064091684E0,1.810455256E0,-8.888387597E-1,2.885871975E0
1.102105563E1,-1.629982553E0,1.466386668E0,-1.669883514E0,2.756019582E0
1.103108263E1,-1.443068411E0,1.198882399E0,-1.678049735E0,2.517065029E0
1.104110963E1,-1.236848809E0,9.316248831E-1,-9.642555624E-1,1.824146016E0
1.105113562E1,-7.899515256E-1,5.317779511E-1,7.578927040E-2,9.552775595E-1
1.106116263E1,-6.628902139E-1,5.392501080E-1,9.274046552E-1,1.261068400E0
1.107118963E1,-6.753247565E-1,8.351338381E-1,1.412621813E0,1.774545700E0
1.108121742E1,-3.202476159E-1,8.288784868E-1,1.272631284E0,1.552156070E0
1.109124442E1,-3.197798386E-1,9.709781063E-1,-5.809851944E-1,1.175840731E0
1.110127142E1,-1.371514133E0,1.433835511E0,-3.994518941E0,4.460170048E0
1.111129842E1,-1.892955668E0,1.013730024E0,-3.526179771E0,4.128543751E0
1.112132442E1,-1.489636952E0,2.747881454E-1,-1.486182125E0,2.122089555E0
1.113135142E1,-8.243623897E-1,2.535399485E-1,-2.797436607E-1,9.067041253E-1
1.114137842E1,-1.328483011E0,1.016743678E0,-2.964421391E-2,1.673174706E0
1.115140542E1,-1.804678499E0,1.438280565E0,-3.315020442E-2,2.307945928E0
1.116143242E1,-1.186848830E0,1.164395229E0,2.869146860E-1,1.687230403E0
1.117145942E1,-5.348977330E-1,6.984914249E-1,5.049392313E-1,1.014381330E0
1.118148542E1,-6.335811916E-1,2.453009292E-1,1.746662718E-1,7.015026577E-1
1.119151242E1,-1.144320861E0,-1.239878690E-1,-6.059007651E-1,1.300753228E0
1.120153942E1,-1.873188279E0,-1.144738644E-1,-1.360005643E0,2.317661309E0
1.121156642E1,-2.515628879E0,1.187589964E-1,-1.996458110E0,3.213773069E0
1.122159342E1,-2.609639243E0,3.922572461E-1,-2.325673892E0,3.517505050E0
1.123162042E1,-1.956458477E0,6.217253771E-1,-2.340384318E0,3.113144868E0
1.124164742E1,-9.949598765E-1,8.724218246E-1,-2.333698611E0,2.682762420E0
1.125167342E1,-2.110423851E-1,1.131777999E0,-1.708954024E0,2.060578604E0
1.126170042E1,6.716182065E-1,1.122982617E0,-5.764044857E-1,1.429826250E0
1.127172742E1,1.319344105E0,8.616702569E-1,1.975984669E-1,1.588140313E0
1.128175442E1,1.216254185E0,6.938285628E-1,9.501678658E-1,1.692185359E0
1.129178142E1,4.860790372E-1,5.649418965E-1,1.183995681E0,1.399027501E0
1.130180842E1,-3.739604312E-1,4.095571107E-1,9.443282515E-1,1.095143496E0
1.131183542E1,-1.073546163E0,3.659248951E-1,3.561790484E-1,1.188808608E0
1.132186142E1,-1.521653089E0,4.153759673E-1,-2.838115686E-1,1.602658518E0
1.133188842E1,-1.575427300E0,4.957184646E-1,-7.432506913E-1,1.811112797E0
1.134191542E1,-1.241764710E0,6.320559454E-1,-9.288161731E-1,1.674566749E0
1.135194242E1,-8.910054454E-1,9.189943126E-1,-9.279835296E-1,1.581010652E0
1.136196942E1,-6.869715330E-1,1.116974895E0,-7.834479600E-1,1.527531836E0
1.137199642E1,-3.065663007E-1,1.130412089E0,-4.290049499E-1,1.247341026E0
1.138202242E1,-1.596830741E-1,1.156335427E0,-2.447995305E-2,1.167565661E0
1.139204942E1,-2.025016496E-1,1.097266270E0,3.901642352E-1,1.182044126E0
1.140207642E1,-2.490621507E-3,8.952911621E-1,6.405273914E-1,1.100830508E0
1.141210342E1,2.542000991E-1,7.022155166E-1,6.137073827E-1,9.666235429E-1
1.142213042E1,4.155215630E-1,7.019851363E-1,4.507881671E-1,9.320146310E-1
1.143215742E1,4.192702129E-1,7.024453121E-1,2.406193560E-1,8.527101515E-1
1.144218342E1,2.256855673E-1,5.691273335E-1,-8.156047225E-2,6.176503927E-1
1.145221042E1,-7.327730656E-3,4.626574302E-1,-4.487048042E-1,6.445475891E-1
1.146223742E1,-2.676709145E-1,5.012961236E-1,-5.996845901E-1,8.261762098E-1
1.147226442E1,-4.061098847E-1,6.828512925E-1,-5.466310483E-1,9.643736978E-1
1.148229142E1,-2.726015791E-1,9.054153237E-1,-6.027941394E-1,1.121360470E0
1.149231842E1,-8.211946607E-2,1.027551964E0,-6.629608190E-1,1.225611559E0
1.150234542E1,2.119323313E-3,1.016890151E0,-6.479241192E-1,1.205767695E0
1.151237142E1,2.067695323E-1,9.169515878E-1,-6.301474142E-1,1.131653488E0
1.152239842E1,4.634573293E-1,7.995073378E-1,-5.646837419E-1,1.082992340E0
1.153242542E1,4.898598468E-1,6.688589054E-1,-2.804961973E-1,8.752216986E-1
1.154245242E1,3.251987457E-1,6.001900819E-1,8.046879709E-2,6.873555019E-1
1.155247942E1,1.267082861E-1,4.580907547E-1,3.432917851E-1,5.863031461E-1
1.156250642E1,-9.246465236E-2,4.377810359E-1,5.869095933E-1,7.380141043E-1
1.157253242E1,-4.515743253E-1,5.789626426E-1,8.444572234E-1,1.119028648E0
1.158255942E1,-5.450028911E-1,6.487652412E-1,9.924455738E-1,1.304941649E0
1.159258642E1,-3.899037418E-1,6.318758512E-1,8.722268200E-1,1.145456959E0
1.160261342E1,-3.207244563E-1,5.751973280E-1,5.247384882E-1,8.420609384E-1
1.161264042E1,-4.388925916E-1,4.409841406E-1,2.471097654E-1,6.694452595E-1
1.162266742E1,-6.385478166E-1,5.597948849E-2,5.534874934E-1,8.468916238E-1
1.163269442E1,-9.662702206E-1,-4.040256447E-1,1.338317735E0,1.699414376E0
1.164272042E1,-1.215099067E0,-8.161119685E-1,1.929052577E0,2.421517775E0
1.165274742E1,-1.195635441E0,-1.094184203E0,2.130287427E0,2.676734522E0
1.166277442E1,-9.972575399E-1,-1.064008477E0,1.902106268E0,2.396798885E0
1.167280142E1,-8.733690736E-1,-7.767230773E-1,1.490551749E0,1.894153318E0
1.168282842E1,-7.987799442E-1,-5.427768561E-1,1.090651315E0,1.456769167E0
1.169285542E1,-7.540803194E-1,-3.654249582E-1,6.892949241E-1,1.085034571E0
1.170288142E1,-8.959992599E-1,-2.178540990E-1,3.113893765E-1,9.732617459E-1
1.171290842E1,-1.355599181E0,-2.413616601E-1,6.346275508E-2,1.378380249E0
1.172293542E1,-1.828001288E0,-3.621739063E-1,5.173616409E-3,1.863541096E0
1.173296242E1,-1.882827414E0,-5.218470401E-1,1.459774929E-1,1.959253131E0
1.174298942E1,-1.503583438E0,-7.143461502E-1,2.364830357E-1,1.681361890E0
1.175301642E1,-1.000949764E0,-9.461853272E-1,1.268623602E-1,1.383206840E0
1.176304342E1,-6.139447796E-1,-1.136620370E0,-2.793250000E-1,1.321686995E0
1.177306942E1,-3.322693451E-1,-1.083185005E0,-5.871294487E-1,1.276093125E0
1.178309642E1,-3.047073247E-1,-8.326724526E-1,-6.717877758E-1,1.112424731E0
1.179312342E1,-5.430718482E-1,-9.166615659E-1,-8.761087865E-1,1.379406417E0
1.180315042E1,-5.614611952E-1,-1.073385949E0,-7.367316306E-1,1.417804487E0
1.181317742E1,-4.932428996E-1,-1.002782866E0,-8.166162908E-2,1.120504644E0
1.182320442E1,-3.598440832E-1,-1.129164293E0,5.043679583E-1,1.287977796E0
1.183323042E1,-1.127167761E-1,-1.183179994E0,6.789213789E-1,1.368778364E0
1.184325742E1,2.128982913E-1,-1.013751073E0,7.151975048E-1,1.258778929E0
1.185328442E1,5.944856845E-1,-8.507926816E-1,7.469174802E-1,1.278728720E0
1.186331142E1,7.990203378E-1,-6.993804941E-1,7.744496799E-1,1.314282649E0
1.187333842E1,8.305776145E-1,-4.685768589E-1,9.178912354E-1,1.323611637E0
1.188336542E1,7.624549940E-1,-3.351659095E-1,1.215910369E0,1.473808613E0
1.189339242E1,5.967730422E-1,-3.917137474E-1,1.559147190E0,1.714793773E0
1.190341842E1,3.317498200E-1,-4.854905149E-1,1.487091367E0,1.599124672E0
1.191344542E1,-5.182825774E-2,-6.860228223E-1,1.238229775E0,1.416519134E0
1.192347242E1,-4.908255145E-1,-8.450407755E-1,9.194378239E-1,1.341778488E0
1.193349942E1,-9.093348585E-1,-8.310977975E-1,6.790763301E-1,1.406683367E0
1.194352642E1,-1.156569316E0,-7.866990119E-1,3.680073810E-1,1.446366949E0
1.195355342E1,-1.061150504E0,-7.784778267E-1,3.360979557E-3,1.316084881E0
1.196357942E1,-7.439041176E-1,-7.728662539E-1,-2.835326564E-1,1.109552320E0
1.197360642E1,-4.209267291E-1,-7.134322304E-1,-5.203016210E-1,9.782017355E-1
1.198363342E1,-1.992824650E-1,-6.118587855E-1,-7.399382436E-1,9.806086266E-1
1.199366042E1,-1.316141000E-1,-4.897516733E-1,-1.015984710E0,1.135519222E0
1.200368742E1,-2.199681598E-1,-3.687616718E-1,-1.190038778E0,1.265133770E0
1.201371442E1,-4.737788343E-1,-3.288286972E-1,-1.241753308E0,1.369140596E0
1.202374142E1,-7.612519294E-1,-3.663771772E-1,-1.260517023E0,1.517445189E0
1.203376742E1,-8.585430197E-1,-3.434373808E-1,-1.177048019E0,1.496825772E0
1.204379442E1,-6.655540591E-1,-4.202259403E-1,-1.093928679E0,1.347676520E0
1.205382142E1,-3.579826221E-1,-5.455458051E-1,-9.922608018E-1,1.187582958E0
1.206384842E1,3.616035104E-2,-6.068091300E-1,-9.472740787E-1,1.125545677E0
1.207387542E1,1.636526026E-1,-6.417930213E-1,-8.710532838E-1,1.094264264E0
1.208390188E1,5.167988464E-2,-5.810825506E-1,-6.807112116E-1,8.964906551E-1
1.209392788E1,-1.667789626E-1,-3.376211554E-1,-3.436537278E-1,5.098050133E-1
1.210395488E1,-3.497029647E-1,-1.013532972E-1,-1.894790232E-2,3.645869957E-1
1.211398188E1,-1.996337365E-1,1.019578993E-2,1.081886923E-1,2.272935899E-1
1.212400887E1,4.946057394E-2,-4.630439311E-2,8.096113265E-2,1.055705934E-1
1.213403588E1,6.704475939E-2,-2.077258444E-1,1.030250162E-1,2.413693853E-1
1.214406288E1,-1.689202130E-1,-2.448509860E-1,3.183113104E-1,4.356697534E-1
1.215408988E1,-4.383761363E-1,-1.378288132E-1,6.201416588E-1,7.718459014E-1
1.216411588E1,-4.305699572E-1,1.272061765E-2,8.636787754E-1,9.651390207E-1
1.217414288E1,-2.176089545E-1,1.270091254E-1,1.046949225E0,1.076841518E0
1.218416987E1,2.185396850E-3,1.665895128E-1,1.198161145E0,1.209688791E0
1.219419688E1,2.918539752E-1,2.711541009E-1,1.496197820E0,1.548325291E0
1.220422388E1,6.473912917E-1,3.891842419E-1,1.755851617E0,1.911437878E0
1.221425088E1,9.504087710E-1,4.777482167E-1,1.807318810E0,2.097122188E0
1.222427688E1,1.118352791E0,5.180554131E-1,1.768390971E0,2.155528011E0
1.223430388E1,1.117088185E0,4.316566622E-1,1.526774080E0,1.940425876E0
1.224433087E1,9.178184375E-1,2.302735850E-1,1.143416004E0,1.484188926E0
1.225435788E1,5.178615779E-1,3.080547094E-2,8.183505750E-1,9.689309854E-1
1.226438488E1,7.920740649E-2,-1.697724447E-1,6.912297678E-1,7.161669415E-1
1.227441188E1,-1.650363462E-1,-3.615216494E-1,6.224618340E-1,7.385077070E-1
1.228443888E1,-3.027065536E-1,-4.786770469E-1,4.258240646E-1,7.085824630E-1
1.229446488E1,-5.661440109E-1,-5.329938796E-1,1.982024843E-1,8.024249134E-1
1.230449187E1,-1.019981574E0,-5.294647926E-1,-2.447527528E-2,1.149475714E0
1.231451888E1,-1.338888716E0,-4.453294989E-1,-1.217051160E-1,1.416246268E0
1.232454588E1,-1.417729063E0,-2.355574214E-1,-1.803790015E-1,1.448440396E0
1.233457288E1,-1.186120340E0,-4.220812619E-3,-2.653425533E-1,1.215444752E0
1.234459988E1,-7.721351326E-1,1.807219407E-1,-4.059335911E-1,8.908620338E-1
1.235462588E1,-4.000173783E-1,2.212633181E-1,-7.811482501E-1,9.050767633E-1
1.236465287E1,-2.015564471E-1,8.627157390E-2,-1.154744985E0,1.175373883E0
1.237467988E1,5.421830714E-3,-2.221246129E-1,-1.394273250E0,1.411866366E0
1.238470688E1,2.985703795E-1,-3.934731746E-1,-1.516401705E0,1.594816460E0
1.239473388E1,4.266822897E-1,-3.391887939E-1,-1.386232159E0,1.489545707E0
1.240476088E1,4.300643192E-1,-2.502000189E-1,-1.341154804E0,1.430472501E0
1.241478688E1,4.780503716E-1,-1.797574425E-1,-1.374017910E0,1.465868382E0
1.242481387E1,5.558807588E-1,-1.338223010E-2,-1.122925606E0,1.253054037E0
1.243484088E1,5.972063939E-1,1.672894245E-1,-7.484026730E-1,9.719813730E-1
1.244486788E1,5.866793592E-1,1.924295282E-1,-4.401579291E-1,7.582616939E-1
1.245489488E1,4.633378999E-1,6.326453447E-2,4.698062360E-2,4.699910529E-1
1.246492188E1,3.577545807E-1,-8.035302222E-2,8.073414373E-1,8.867046547E-1
1.247494888E1,3.666680031E-1,-2.207221583E-1,1.269995359E0,1.340168612E0
1.248497487E1,5.077105191E-1,-3.916675544E-1,1.389346971E0,1.530182489E0
1.249500188E1,6.412142200E-1,-5.608517691E-1,1.216890947E0,1.485440662E0
1.250502888E1,6.916148800E-1,-6.777433111E-1,8.836569571E-1,1.310922101E0
1.251505588E1,6.691311664E-1,-6.990398937E-1,6.098067051E-1,1.143790850E0
1.252508288E1,3.927277277E-1,-7.057712084E-1,4.983038110E-1,9.490283213E-1
1.253510988E1,-5.321419403E-2,-5.838341041E-1,3.487033832E-1,6.821202687E-1
1.254513587E1,-3.660468826E-1,-2.415721598E-1,2.162271112E-1,4.889801553E-1
1.255516288E1,-5.533184358E-1,1.933314613E-1,2.023288643E-1,6.200607346E-1
1.256518988E1,-6.897824357E-1,5.083007956E-1,4.315239304E-1,9.593656289E-1
1.257521688E1,-5.102259913E-1,5.356676652E-1,4.819976807E-1,8.829451704E-1
1.258524388E1,-3.070329085E-1,4.249317795E-1,3.496816224E-1,6.301693909E-1
1.259527088E1,-1.224749751E-1,3.288576409E-1,1.720478886E-1,3.908298140E-1
1.260529788E1,9.347578213E-3,2.271219358E-1,-1.157777935E-1,2.551004673E-1
1.261532388E1,1.353784644E-1,1.949144487E-1,-4.027924669E-1,4.675048046E-1
1.262535088E1,3.364625296E-1,2.823079571E-1,-6.182863373E-1,7.584080770E-1
1.263537788E1,2.870876174E-1,5.085072023E-1,-6.084676927E-1,8.433456041E-1
1.264540488E1,6.056765243E-2,7.492743467E-1,-2.321993655E-1,7.867636446E-1
1.265543188E1,-1.897402476E-1,8.140698284E-1,1.075320500E-1,8.427776627E-1
1.266545888E1,-3.117985354E-1,6.037603918E-1,2.176327819E-1,7.135187209E-1
1.267548587E1,-2.594109184E-1,2.761582942E-1,1.403396076E-1,4.040453360E-1
1.268551188E1,-1.117723777E-1,-3.197696060E-3,3.878224254E-2,1.183526595E-1
1.269553888E1,9.511050831E-2,-1.268981744E-1,-1.588741118E-1,2.244774796E-1
1.270556588E1,3.486840874E-2,-1.499310878E-1,-3.197105491E-1,3.548379521E-1
1.271559288E1,-2.241349588E-1,-1.679861203E-1,-1.551295549E-1,3.201889991E-1
1.272561988E1,-2.085531523E-1,-6.041942552E-2,4.650115192E-2,2.220524295E-1
1.273564687E1,-4.223648518E-2,1.088136135E-1,1.158380198E-1,1.644468607E-1
1.274567288E1,-1.368833184E-2,2.835171613E-1,1.102703011E-1,3.045141877E-1
1.275569988E1,2.982598923E-2,4.044355345E-1,8.265448630E-2,4.138713028E-1
1.276572688E1,1.944155168E-1,4.216630398E-1,2.328419745E-2,4.649078039E-1
1.277575388E1,4.114986786E-1,3.218971154E-1,-1.175261110E-1,5.355009824E-1
1.278578088E1,5.582835989E-1,1.939465883E-1,-3.683687389E-1,6.964132277E-1
1.279580787E1,4.927920062E-1,1.245749295E-1,-6.359004897E-1,8.140837225E-1
1.280583388E1,2.525402939E-1,1.596015054E-1,-6.559511769E-1,7.207781816E-1
1.281586088E1,-8.758230038E-2,2.748602124E-1,-5.251132947E-1,5.991350165E-1
1.282588788E1,-3.910986203E-1,3.777652144E-1,-3.919137222E-1,6.702693889E-1
1.283591488E1,-3.834773594E-1,4.732531697E-1,-1.722057635E-1,6.329915266E-1
1.284594188E1,-1.233520574E-1,4.746942160E-1,1.435865664E-1,5.110454293E-1
1.285596887E1,3.043844122E-1,3.314488345E-1,3.435432154E-1,5.661538140E-1
1.286599588E1,5.859871220E-1,1.746719728E-1,7.087152815E-1,9.360387574E-1
1.287602188E1,7.090136357E-1,6.771865100E-2,8.675075322E-1,1.122432835E0
1.288604888E1,7.312627298E-1,-4.478411704E-2,6.565534401E-1,9.837749828E-1
1.289607588E1,7.108064651E-1,-2.218867774E-1,2.827304184E-1,7.965023932E-1
1.290610288E1,6.964188062E-1,-3.644075426E-1,-3.277422845E-2,7.866804694E-1
1.291612987E1,6.492154037E-1,-4.850436415E-1,-1.872763771E-1,8.317574262E-1
1.292615688E1,5.369934482E-1,-5.525026761E-1,-2.920514649E-1,8.239631234E-1
1.293618288E1,4.250066970E-1,-4.982906547E-1,-3.608720237E-1,7.477652616E-1
1.294620988E1,3.762823606E-1,-3.241756292E-1,-3.497810251E-1,6.074742948E-1
1.295623688E1,3.394033136E-1,-1.083160155E-1,-1.398256373E-1,3.827246757E-1
1.296626388E1,2.328304993E-1,7.487359643E-3,2.425366580E-2,2.342100388E-1
1.297629087E1,1.365820041E-1,-1.898006201E-2,1.306086713E-1,1.899302809E-1
1.298631788E1,1.711662747E-1,-7.912189096E-2,3.938310242E-1,4.366475041E-1
1.299634488E1,3.489288665E-1,-1.189028379E-1,4.311485392E-1,5.672550586E-1
1.300637088E1,6.348601238E-1,-1.923774880E-1,3.140802652E-1,7.339638191E-1
1.301639788E1,8.314041185E-1,-2.643733773E-1,2.170410436E-1,8.990177448E-1
1.302642488E1,7.141246869E-1,-3.470506677E-1,5.436273336E-2,7.958476871E-1
1.303645187E1,2.797640163E-1,-5.871534222E-1,-6.306923747E-2,6.534483719E-1
1.304647888E1,-2.060501786E-1,-8.822849080E-1,-2.161236155E-1,9.314465911E-1
1.305650588E1,-5.915569603E-1,-9.445318808E-1,-2.609477860E-1,1.144628262E0
1.306653188E1,-7.386769261E-1,-8.608367363E-1,-2.168691355E-1,1.154866100E0
1.307655838E1,-5.811334579E-1,-6.987438785E-1,-2.721703470E-2,9.092303727E-1
1.308658538E1,-1.570842425E-1,-5.454646750E-1,2.889501017E-1,6.369453133E-1
1.309661237E1,1.896948220E-1,-5.235326461E-1,4.694062865E-1,7.282944589E-1
1.310663938E1,3.955565375E-1,-5.452008194E-1,5.207120955E-1,8.513812273E-1
1.311666638E1,4.542285226E-1,-5.144434418E-1,4.705459088E-1,8.320991875E-1
1.312669338E1,3.565561207E-1,-5.389805514E-1,4.211439532E-1,7.713588862E-1
1.313671938E1,3.086664013E-1,-7.655452475E-1,4.236418837E-1,9.277968091E-1
1.314674638E1,1.426743277E-1,-9.388692909E-1,4.267338914E-1,1.041121186E0
1.315677337E1,-2.615263680E-1,-9.114657301E-1,6.184085441E-1,1.132075503E0
1.316680038E1,-7.313193016E-1,-7.967430666E-1,8.058211613E-1,1.348693879E0
1.317682738E1,-9.511591150E-1,-6.403516826E-1,7.203880781E-1,1.354146566E0
1.318685438E1,-5.539288120E-1,-4.928916281E-1,3.780815488E-1,8.323009933E-1
1.319688038E1,7.630294830E-2,-3.486694694E-1,1.202462357E-1,3.766320432E-1
1.320690738E1,4.988897020E-1,-1.523549049E-1,2.614933312E-2,5.222898998E-1
1.321693437E1,6.010466259E-1,-1.145147949E-2,2.841805279E-2,6.018270255E-1
1.322696138E1,3.407366250E-1,-4.004334077E-2,1.720104665E-1,3.837870729E-1
1.323698838E1,3.797307012E-2,-3.564486051E-1,4.457116145E-1,5.719758783E-1
1.324701538E1,-6.711733796E-2,-8.146302840E-1,6.372465187E-1,1.036441201E0
1.325704238E1,-1.327551842E-2,-9.722582079E-1,5.946062833E-1,1.139745101E0
1.326706838E1,1.682303146E-1,-8.295859998E-1,4.175256962E-1,9.438443075E-1
1.327709538E1,2.848244525E-1,-5.565436868E-1,2.034053367E-1,6.574492947E-1
1.328712238E1,2.310921952E-1,-2.256747499E-1,7.135298789E-2,3.307929025E-1
1.329714938E1,4.125710580E-1,-6.016580254E-2,1.357220614E-1,4.384692459E-1
1.330717638E1,3.991375186E-1,-6.441409707E-2,3.257138854E-1,5.191815384E-1
1.331720338E1,2.662890713E-1,-8.690044194E-2,7.051438022E-1,7.587419443E-1
1.332722938E1,1.465382409E-1,-1.446016431E-1,7.990471619E-1,8.251420837E-1
1.333725638E1,-2.096837115E-1,-8.693581760E-2,7.934882140E-1,8.253172972E-1
1.334728338E1,-5.153924449E-1,-1.202324948E-1,6.255158347E-1,8.193627307E-1
1.335731038E1,-4.588442416E-1,-3.158601576E-1,1.414587647E-1,5.747314671E-1
1.336733738E1,-1.666989288E-1,-4.200107628E-1,-2.482271683E-1,5.155718193E-1
1.337736438E1,1.212677443E-1,-4.403929871E-1,-4.078468001E-1,6.123649739E-1
1.338739038E1,2.605710791E-1,-4.308199257E-1,-3.346501851E-1,6.045608671E-1
1.339741738E1,3.832056832E-1,-5.602650011E-1,-2.441680312E-2,6.792198814E-1
1.340744437E1,2.854468887E-1,-6.116152489E-1,2.018388677E-1,7.044799979E-1
1.341747138E1,-7.062698297E-2,-4.304059428E-1,4.913584882E-1,6.570164459E-1
1.342749838E1,-3.962140569E-1,-1.850447872E-1,5.427145833E-1,6.969693473E-1
1.343752538E1,-5.046837810E-1,-7.537294865E-2,3.381754714E-1,6.121678281E-1
1.344755238E1,-3.890488788E-1,-3.441291064E-2,1.900894725E-1,4.343699876E-1
1.345757838E1,-1.395535956E-1,-3.396939933E-3,8.086523831E-2,1.613255467E-1
1.346760537E1,2.597389472E-1,-6.477779388E-2,1.873056132E-1,3.267168132E-1
1.347763238E1,5.742398465E-1,-1.570208368E-1,4.158990008E-1,7.262085949E-1
1.348765938E1,5.997678398E-1,-2.295944309E-1,5.805963546E-1,8.657523846E-1
1.349768638E1,3.865805499E-1,-2.048130539E-1,7.647462255E-1,8.810389878E-1
1.350771338E1,2.480284361E-1,-7.511040866E-2,6.884739751E-1,7.356331239E-1
1.351773938E1,-5.722976938E-2,4.786413789E-2,2.757552749E-1,2.856697286E-1
1.352776637E1,-3.836264634E-1,1.393455809E-1,-8.180973905E-1,9.142591508E-1
1.353779338E1,-8.263481773E-1,1.858976036E-1,-8.556710136E-1,1.203985927E0
1.354782038E1,-3.116362752E-1,-1.831590602E-1,-3.318177938E-1,4.906806066E-1
1.355784738E1,2.623996496E-1,-2.603323665E-1,-9.814025223E-2,3.824369573E-1
1.356787438E1,5.267899107E-1,1.602631178E-1,-6.907198906E-2,5.549439761E-1
1.357790138E1,7.469014004E-1,4.641265431E-1,-2.372975528E-1,9.108157215E-1
1.358792737E1,7.325795227E-1,4.826753730E-1,-1.980101109E-1,8.993643738E-1
1.359795438E1,2.593694032E-1,3.531303102E-1,2.055892718E-1,4.839839377E-1
1.360798138E1,-3.460825150E-1,9.673399687E-2,7.088942063E-1,7.947713942E-1
1.361800838E1,-6.789310268E-1,-1.022052366E-1,1.097082667E0,1.294211586E0
1.362803538E1,-6.217686465E-1,-3.555662602E-1,1.136412794E0,1.343301029E0
1.363806238E1,-3.380647398E-1,-6.898761374E-1,6.353683931E-1,9.969502736E-1
1.364808837E1,-2.608712605E-1,-8.189177549E-1,-2.340353912E-1,8.907596018E-1
1.365811538E1,-3.118103030E-1,-8.550322053E-1,-9.269602668E-1,1.299061613E0
1.366814238E1,-4.747390202E-1,-4.523096126E-1,-1.228212910E0,1.392288790E0
1.367816938E1,-4.631522508E-1,-3.125599891E-2,-1.009631125E0,1.111234428E0
1.368819638E1,-1.834783912E-1,2.891223022E-1,-2.787706840E-1,4.415530772E-1
1.369822338E1,1.423606977E-1,4.178496319E-1,5.800589955E-1,7.289261426E-1
1.370825037E1,4.403950337E-1,3.109286159E-1,1.210744938E0,1.325340596E0
1.371827638E1,4.940781378E-1,1.552003062E-1,1.439673956E0,1.529987399E0
1.372830338E1,3.564882199E-1,-4.994399250E-2,1.321766022E0,1.369906446E0
1.373833038E1,2.500449580E-1,-4.689925960E-1,9.640848237E-1,1.100879686E0
1.374835738E1,1.289542016E-1,-1.170824828E0,6.418845302E-1,1.341445382E0
1.375838438E1,4.382108063E-2,-1.763029075E0,2.168223578E-1,1.776852200E0
1.376841138E1,-3.135978699E-1,-1.912989691E0,-1.235124904E-1,1.942454251E0
1.377843738E1,-7.077450822E-1,-1.606958703E0,-1.024818099E-1,1.758897921E0
1.378846438E1,-7.130863675E-1,-9.363894868E-1,2.502163911E-1,1.203297836E0
1.379849138E1,-4.413449138E-1,-2.008983430E-1,6.980072755E-1,8.499174276E-1
1.380851838E1,6.873518944E-2,3.020963967E-1,8.526444948E-1,9.071876287E-1
1.381854538E1,6.976096648E-1,5.184030300E-1,4.422792989E-1,9.751984025E-1
1.382857238E1,1.069247436E0,6.065515602E-1,-1.668520528E-1,1.240578285E0
1.383859938E1,1.041456058E0,6.122403163E-1,-6.626210958E-1,1.377873595E0
1.384862538E1,1.237772085E0,6.655803716E-1,-8.220121014E-1,1.628121881E0
1.385865238E1,1.424620592E0,5.736969325E-1,-5.691340578E-1,1.637860060E0
1.386867938E1,1.402189649E0,5.733387905E-1,-3.716443491E-1,1.559798930E0
1.387870638E1,1.087421313E0,7.662273252E-1,-2.419899434E-1,1.352090440E0
1.388873338E1,3.250511035E-1,9.297920734E-1,7.206108570E-3,9.849992120E-1
1.389876037E1,-3.931153250E-1,7.252605629E-1,1.200141013E-1,8.336341688E-1
1.390878638E1,-8.097364569E-1,1.696443906E-1,2.684754914E-1,8.697881572E-1
1.391881338E1,-7.436554648E-1,-4.279857802E-1,2.952691877E-1,9.074024309E-1
1.392884038E1,-6.232310352E-1,-7.318211389E-1,2.212598097E-1,9.863746782E-1
1.393886738E1,-5.538837884E-1,-6.585324302E-1,2.294277853E-1,8.905556251E-1
1.394889438E1,-3.338270433E-1,-3.437847054E-1,1.667064571E-1,5.073652150E-1
1.395892137E1,1.500374340E-1,-6.395128995E-2,1.115946954E-1,1.976217983E-1
1.396894738E1,5.524705164E-1,2.417695034E-1,2.253072524E-1,6.437697743E-1
1.397897438E1,5.013067947E-1,4.090413862E-1,4.037800616E-1,7.626674873E-1
1.398900138E1,5.218482095E-1,2.366450036E-1,5.362732905E-1,7.848028119E-1
1.399902838E1,4.181001851E-1,-1.225626102E-1,5.136053896E-1,6.735130692E-1
1.400905538E1,1.393606375E-1,-3.094463468E-1,4.895949680E-1,5.957194486E-1
1.401908237E1,-2.404787305E-1,-2.597254255E-1,5.443120426E-1,6.492787662E-1
1.402910938E1,-5.059724343E-1,-2.664049923E-2,6.097207510E-1,7.927655484E-1
1.403913538E1,-6.076211621E-1,3.792428058E-1,4.559565210E-1,8.490729836E-1
1.404916238E1,-5.162233342E-1,5.805074769E-1,2.263995123E-1,8.091552390E-1
1.405918938E1,-2.622150238E-1,3.800856820E-1,-4.872484803E-3,4.617852157E-1
1.406921638E1,1.251698837E-2,5.422824740E-2,-3.616175437E-1,3.658751505E-1
1.407924317E1,3.775379039E-1,-2.780076224E-1,-6.736442667E-1,8.207433857E-1
1.408927017E1,4.411338294E-1,-3.726278508E-1,-6.819087213E-1,8.935603364E-1
1.409929617E1,1.391586162E-1,-2.500035524E-1,-5.519116688E-1,6.216698375E-1
1.410932317E1,-3.160550161E-1,-1.427819896E-1,-2.916965389E-1,4.531714251E-1
1.411935017E1,-6.397682767E-1,1.658913553E-2,5.473227739E-2,6.423194450E-1
1.412937717E1,-8.446348326E-1,1.569015536E-1,4.224122143E-1,9.573182212E-1
1.413940417E1,-6.924442345E-1,1.172156239E-1,6.853240800E-1,9.812683705E-1
1.414943117E1,-9.705924824E-2,-2.274830014E-2,6.579784065E-1,6.654874652E-1
1.415945817E1,5.094031419E-1,-2.018564093E-1,3.455295146E-1,6.477871690E-1
1.416948417E1,7.621091312E-1,-1.965825132E-1,2.651566118E-1,8.305197416E-1
1.417951117E1,6.692829747E-1,-5.109530926E-2,2.266947967E-1,7.084779190E-1
1.418953817E1,3.182759348E-1,1.088622916E-1,1.992269164E-1,3.909500395E-1
1.419956517E1,9.192802414E-2,-1.855394617E-1,-1.348683679E-1,2.471135976E-1
1.420959217E1,-1.253964194E0,-4.161366901E-1,-2.872106135E0,3.161422085E0
1.421961917E1,-1.824757838E0,-2.910255709E-1,-2.290694679E0,2.943079877E0
1.422964617E1,-1.222596952E0,3.638429940E-3,6.945235044E-1,1.406100794E0
1.423967217E1,-3.746233593E-1,2.573441470E-1,1.449789639E0,1.519361270E0
1.424969917E1,4.706596372E-1,4.273925802E-1,6.945316905E-1,9.415727167E-1
1.425972617E1,9.506321347E-1,4.753964666E-1,-3.032482982E-1,1.105288553E0
1.426975317E1,1.074211722E0,2.306931227E-1,-4.763831842E-1,1.197535418E0
1.427978017E1,7.977252527E-1,2.940134981E-1,5.815055966E-2,8.521684126E-1
1.428980717E1,5.939581195E-1,5.670588809E-1,7.259037566E-1,1.096028415E0
1.429983317E1,2.927759349E-2,6.279029605E-1,6.430767775E-1,8.992591656E-1
1.430986017E1,-8.531749834E-1,1.517831933E-1,-2.690578741E-1,9.073796503E-1
1.431988717E1,-6.844455358E-1,-2.493831629E-1,-1.174886888E0,1.382395332E0