"Time (s)","Linear Acceleration x (m/s^2)","Linear Acceleration y (m/s^2)","Linear Acceleration z (m/s^2)","Absolute acceleration (m/s^2)"
9.113833308E-3,3.027132779E-1,-2.741759419E0,-2.002128155E0,3.408430312E0
1.914083341E-2,-5.325442287E-1,-3.398115224E0,-3.345931748E0,4.798546622E0
2.916783339E-2,-3.810992968E-1,-4.870904301E0,-4.070181912E0,6.359035003E0
3.919583338E-2,2.636497843E-1,-5.665681241E0,-3.162589377E0,6.493953088E0
4.922283336E-2,2.388681734E0,-5.724862665E0,-3.646651710E0,7.195687712E0
5.924983334E-2,5.447094194E0,-7.299878029E0,-4.061024587E0,9.972510972E0
6.927783333E-2,2.447786559E0,-7.090685703E0,-5.287023157E0,9.177259756E0
7.930483331E-2,1.653773265E0,-8.005365062E0,-6.574785866E0,1.049040728E1
8.933183330E-2,-5.487494946E-2,-9.451250516E0,-7.544519100E0,1.209334180E1
9.935983340E-2,-2.656777157E0,-1.114376860E1,-7.818772810E0,1.386994058E1
1.093868334E-1,-6.402097707E0,-1.234588831E1,-8.001305341E0,1.604458477E1
1.194138334E-1,-1.141385383E1,-1.318980525E1,-8.734850823E0,1.950755343E1
1.294418334E-1,-1.410899223E1,-1.554076251E1,-8.745492756E0,2.273901063E1
1.394682500E-1,-1.383851875E1,-1.822789256E1,-7.612038653E0,2.411853645E1
1.494952500E-1,-1.257148325E1,-1.854884155E1,-6.644009882E0,2.337187586E1
1.595232501E-1,-1.101838559E1,-1.779608270E1,-6.386829457E0,2.188371474E1
1.695502501E-1,-8.617734602E0,-1.857486166E1,-5.722812631E0,2.126126571E1
1.795772500E-1,-4.937498240E0,-1.944588512E1,-4.869788067E0,2.064548795E1
1.896042500E-1,3.401775581E-1,-1.878270094E1,-3.011513697E0,1.902563508E1
1.996322500E-1,2.740495251E0,-1.639372158E1,-9.198794349E-1,1.664663929E1
2.096592500E-1,4.243479935E0,-1.378514302E1,8.344502985E-2,1.442373922E1
2.196862500E-1,7.580085374E0,-1.365338537E1,1.600037938E0,1.569817658E1
2.297142501E-1,1.211643889E1,-1.340423084E1,7.063056439E0,1.940021294E1
2.397412501E-1,1.816118986E1,-1.066817479E1,1.054947164E1,2.355695486E1
2.497682500E-1,2.325966955E1,-7.808539013E0,1.414989584E1,2.832322477E1
2.597962500E-1,2.889396235E1,-5.129704404E0,1.550703577E1,3.319100911E1
2.698232500E-1,3.147526716E1,-2.119176548E0,1.298141633E1,3.411305501E1
2.798502500E-1,3.129270305E1,6.039390242E-1,8.105115638E0,3.233095894E1
2.898782500E-1,2.898609576E1,1.803280138E0,2.696382687E0,2.916703698E1
2.999052500E-1,2.512765848E1,1.381086609E0,-2.116775243E0,2.525445225E1
3.099322501E-1,2.246712858E1,1.432017027E0,-3.931209383E0,2.285337933E1
3.199602501E-1,2.150316363E1,2.918663421E0,-2.959231988E0,2.190118025E1
3.299872500E-1,2.167302992E1,4.896626787E0,-7.269582435E0,2.337828070E1
3.400142500E-1,2.157703969E1,6.801959549E0,-1.720849834E1,2.842477283E1
3.500422500E-1,2.077180793E1,8.844349877E0,-9.323188307E0,2.442564983E1
3.600692500E-1,2.005451595E1,9.054456707E0,1.971332624E0,2.209192044E1
3.700962500E-1,1.682807849E1,6.139161283E0,-2.839750568E0,1.813663999E1
3.801242501E-1,1.335396466E1,4.294944203E0,-7.868452508E0,1.608376395E1
3.901512501E-1,9.834740739E0,5.176772152E0,-7.584484234E0,1.345531480E1
4.001782500E-1,6.387928734E0,4.581418009E0,-6.626488116E0,1.028131165E1
4.102062500E-1,3.091963783E0,3.556169556E0,-5.703507464E0,7.398417353E0
4.202332500E-1,-6.387018907E-1,3.461042958E0,-2.936826627E0,4.583853085E0
4.302602500E-1,-2.392432723E0,2.973396868E0,1.491867372E0,4.097620227E0
4.402882500E-1,-2.960510189E0,2.377229378E0,3.594736036E0,5.228572201E0
4.503152500E-1,-3.592690095E0,3.564297186E0,4.117873557E0,6.524455470E0
4.603422501E-1,-4.620659258E0,3.136078101E0,2.886523030E0,6.286294063E0
4.703702501E-1,-5.836862572E0,2.312769672E0,1.100323779E0,6.374055276E0
4.803972500E-1,-5.181011968E0,3.206175107E0,1.273383236E0,6.224463727E0
4.904242500E-1,-3.358126116E0,2.601843735E0,1.177960623E0,4.408422968E0
5.004522500E-1,-2.514983346E0,1.826483644E0,3.614865661E-1,3.129194189E0
5.104792500E-1,-2.984395480E0,1.604522168E0,8.848825336E-1,3.502017257E0
5.205062500E-1,-4.193279250E0,9.318269044E-1,4.876788354E-1,4.323161215E0
5.305342500E-1,-2.782420372E0,-1.292258633E0,3.082043982E-1,3.083307551E0
5.405612501E-1,-1.637267160E-1,-2.583058970E0,3.632103252E-1,2.613603225E0
5.505882500E-1,-3.133306521E-1,-3.358781004E0,1.312204070E0,3.619594653E0
5.606162500E-1,-9.588065422E-1,-3.745119991E0,8.666766429E-1,3.961863467E0
5.706432500E-1,-1.818931380E0,-3.018026326E0,-1.338896171E-1,3.526318292E0
5.806702500E-1,-2.062044573E0,-9.915123582E-1,-1.322433189E0,2.642717185E0
5.906972500E-1,-3.060609843E0,-2.877075684E-1,-2.198909765E0,3.779591567E0
6.007252500E-1,-2.530733407E0,6.788395178E-1,-8.298684204E-1,2.748475261E0
6.107522501E-1,-4.476423651E-1,1.144325831E0,4.530224613E-1,1.309616220E0
6.207792500E-1,1.704337648E0,8.573620284E-1,2.184897498E0,2.900622957E0
6.308072500E-1,2.072328656E0,1.019578993E-1,5.469459794E0,5.849780501E0
6.408342500E-1,6.683677393E-1,7.229386336E-1,5.155201188E0,5.248376415E0
6.508612500E-1,-4.632398129E-1,2.447070860E0,1.813773551E0,3.080993576E0
6.608892500E-1,-3.520771097E0,3.710872264E0,-2.129637802E0,5.540916823E0
6.709162500E-1,-4.524773108E0,3.712284951E0,-2.582043893E0,6.396997882E0
6.809432501E-1,-3.404032606E0,3.521889085E0,-1.863652639E0,5.240643268E0
6.909712501E-1,-2.580028943E0,2.725831604E0,-3.985251689E-1,3.774325051E0
7.009982500E-1,-1.702157806E0,2.215165025E0,1.033207684E0,2.978559283E0
7.110252500E-1,-1.039106355E0,2.018919019E0,1.783169224E0,2.887121145E0
7.210532500E-1,-1.122856609E0,1.931097933E0,1.105219653E0,2.492279413E0
7.310802500E-1,-1.295120845E0,2.201941547E0,4.671907765E-1,2.596950481E0
7.411072500E-1,-5.677131844E-1,2.694829667E0,9.680007771E-1,2.919148968E0
7.511352500E-1,4.629962763E-1,3.718073695E0,7.942389965E-2,3.747632013E0
7.611622501E-1,4.419793367E-1,5.250611960E0,-1.865224371E0,5.589573655E0
7.711892501E-1,1.079480794E-1,5.556934140E0,1.135687155E0,5.672826027E0
7.812172500E-1,-5.133118594E-1,4.947711571E0,2.717974700E0,5.668397069E0
7.912442500E-1,-1.334234186E0,5.614460801E0,6.197896564E-1,5.804006390E0
8.012712500E-1,-1.454946299E0,6.287215707E0,-5.437220951E-1,6.476232222E0
8.112992500E-1,-1.114335754E0,6.872463521E0,-9.080111951E-1,7.021181051E0
8.213262500E-1,-7.960016397E-1,6.894732057E0,-1.620796723E0,7.127266711E0
8.313532501E-1,-3.566674737E-1,6.614848064E0,-3.764825692E0,7.619536671E0
8.413812501E-1,1.350085549E-1,6.172283421E0,-4.643037137E0,7.724836813E0
8.514082500E-1,-8.917588592E-1,-8.197778803E-1,-1.656030291E0,2.051756798E0
8.614352500E-1,-1.308526171E1,-2.613397131E1,1.052845557E0,2.924580337E1
8.714632500E-1,-1.451497143E1,-4.625709849E1,-3.889006519E-1,4.848252057E1
8.814902500E-1,5.085553833E0,-4.460106411E1,1.687532165E0,4.492177136E1
8.915172500E-1,1.594495947E0,-2.326407601E1,8.034833275E0,2.466410744E1
9.015452500E-1,-6.276225865E0,-9.257170318E0,1.090955882E0,1.123727717E1
9.115722501E-1,-2.996452146E0,1.823874616E0,-9.101803367E0,9.754387147E0
9.215992501E-1,-1.132966591E0,8.265266197E0,-6.859169877E0,1.080029861E1
9.316272500E-1,-7.057391949E-1,1.022147324E1,-5.689009877E0,1.171927542E1
9.416542500E-1,-1.482712094E0,9.222214494E0,-6.126205607E0,1.117041049E1
9.516812500E-1,-2.733659272E0,6.282209905E0,-6.635372375E0,9.537673766E0
9.617092500E-1,-2.817320064E0,3.328006523E0,-6.938228910E0,8.194628739E0
9.717362500E-1,-2.615267773E0,-6.437807822E-1,-7.168943667E0,7.658187287E0
9.817632500E-1,-1.162141858E0,-5.717709766E0,-8.029070259E0,9.925157324E0
9.917912501E-1,-6.811871749E-1,-1.023675903E1,-8.636498902E0,1.341060643E1
1.001818250E0,-6.713783245E-1,-1.140014094E1,-6.226133938E0,1.300687150E1
1.011845250E0,-1.541060729E0,-1.062593684E1,-3.865721737E0,1.141180120E1
1.021872250E0,-1.763443204E0,-9.336120009E0,-4.339955777E0,1.044548155E1
1.031900250E0,7.957885087E-1,-5.478501343E0,-3.057391536E0,6.324152063E0
1.041927250E0,1.047133120E0,-4.063410836E0,-5.979617080E-1,4.238555603E0
1.051954250E0,-1.555055308E-1,-4.985965226E0,1.179471982E0,5.125932633E0
1.061982250E0,-5.833841608E-1,-6.997598029E0,4.060203638E0,8.111224867E0
1.072009250E0,-3.269013087E-1,-7.760217038E0,4.780121308E0,9.120164070E0
1.082036250E0,1.988605591E0,-6.730697778E0,2.543116055E0,7.464869995E0
1.092064250E0,5.227710171E0,-5.531166045E0,2.637727220E0,8.054834346E0
1.102091250E0,5.724636962E0,-4.137877466E0,2.374138539E0,7.451847562E0
1.112118250E0,4.554931000E0,-2.368894172E0,1.605734296E0,5.379352994E0
1.122146250E0,3.569217910E0,9.868696690E-2,1.133197410E0,3.746090225E0
1.132173250E0,2.587572436E0,2.135393216E0,1.756646839E0,3.786983419E0
1.142200958E0,2.434009350E0,3.148675343E0,3.314055651E0,5.178949970E0
1.152228958E0,1.274757332E0,4.260394760E0,5.187878938E0,6.833012340E0
1.162255958E0,9.036971194E-1,4.820636957E0,7.386229125E0,8.866317716E0
1.172282958E0,7.283277199E-1,5.075888970E0,6.855537001E0,8.561162169E0
1.182310958E0,1.039334981E0,4.834576135E0,5.647986397E0,7.506869784E0
1.192337958E0,1.475140827E0,4.153799434E0,4.998630295E0,6.664562628E0
1.202364958E0,2.199004490E0,3.138166727E0,4.752564257E0,6.104963405E0
1.212392958E0,2.815860306E0,2.749528615E0,4.353961321E0,5.869067733E0
1.222419958E0,3.192404914E0,2.746157695E0,4.544354848E0,6.195481596E0
1.232446958E0,2.726693484E0,3.499779593E0,5.003454832E0,6.687142500E0
1.242474958E0,2.404713338E0,4.358594654E0,4.840894051E0,6.943648091E0
1.252501958E0,2.401689743E0,5.014991389E0,5.019742252E0,7.491065647E0
1.262528958E0,2.461059447E0,5.555357730E0,5.382841480E0,8.117499338E0
1.272556958E0,2.179606060E0,5.779293811E0,5.376702488E0,8.189007826E0
1.282583958E0,2.138353077E0,5.450845183E0,4.961128008E0,7.674441882E0
1.292610958E0,2.041594521E0,4.956743765E0,4.699427685E0,7.128957674E0
1.302638958E0,1.688553089E0,4.565867339E0,4.505945658E0,6.633392976E0
1.312665958E0,1.682311771E0,4.143677904E0,4.197920769E0,6.133740967E0
1.322692958E0,1.796540637E0,3.856655045E0,3.508600702E0,5.514673633E0
1.332720958E0,2.128058176E0,3.715340121E0,3.659300991E0,5.632305706E0
1.342747958E0,2.297959844E0,3.833876047E0,4.168816254E0,6.112139882E0
1.352774958E0,2.056975330E0,4.233409275E0,4.326080042E0,6.392798302E0
1.362802958E0,1.703262637E0,4.691983010E0,4.604258403E0,6.790802870E0
1.372829958E0,1.500180944E0,5.188831449E0,4.380626963E0,6.954452333E0
1.382856958E0,1.597657537E0,5.847122682E0,4.568117348E0,7.590062540E0
1.392884958E0,1.800927803E0,6.540851550E0,5.712567140E0,8.869019296E0
1.402911958E0,1.911838082E0,7.105560434E0,6.078882921E0,9.544471254E0
1.412938958E0,8.063091114E-1,7.251232703E0,1.760524127E0,7.505328460E0
1.422965958E0,-9.972643812E0,6.010878049E0,-2.757787105E1,2.993531779E1
1.432993958E0,-3.547407503E1,-1.627298827E1,-6.782972704E1,7.825657811E1
1.443020958E0,-2.141412691E1,-6.114750561E1,-7.153145660E0,6.518243449E1
1.453047958E0,-2.010006693E-1,-6.024724957E1,2.434497826E1,6.498037742E1
1.463075958E0,2.520473414E1,-1.213420039E1,3.540603683E1,4.512321893E1
1.473102958E0,1.310395526E1,1.509263190E1,8.910444463E0,2.188372001E1
1.483129958E0,4.021852920E0,2.263424902E1,2.387620465E0,2.311244819E1
1.493157958E0,-3.611036611E0,2.375196301E1,-2.369830311E0,2.414148769E1
1.503184958E0,-1.016526747E1,1.733570101E1,-8.342167608E0,2.175892811E1
1.513211958E0,-8.670447836E0,5.624304589E0,1.056620871E1,1.478019737E1
1.523239958E0,-4.001168979E0,-5.286245477E-1,7.679143639E0,8.675139430E0
1.533266958E0,-5.108428726E-1,-4.854176586E0,4.710353208E0,6.783171685E0
1.543293958E0,1.745824666E0,-9.956410772E0,4.565979314E0,1.109171701E1
1.553321958E0,2.320575705E0,-9.220077921E0,6.067098443E0,1.127850132E1
1.563348958E0,3.345480927E0,-9.110933209E0,3.965096629E0,1.048443312E1
1.573375958E0,3.664830703E0,-1.089013276E1,-1.156076688E0,1.154826779E1
1.583403958E0,4.844494182E-1,-1.040600318E1,-1.782315531E0,1.056864429E1
1.593430958E0,2.134055373E-1,-5.956866733E0,4.939645922E-1,5.981120649E0
1.603457958E0,5.163428367E-1,-1.265664911E0,1.702369182E0,2.183249511E0
1.613485958E0,2.642222267E-1,1.477653961E0,1.758293999E0,2.311898008E0
1.623512958E0,3.800714294E-1,2.582784151E0,1.665503657E0,3.096632153E0
1.633539958E0,6.660298763E-1,2.303715259E0,1.251336602E0,2.704910919E0
1.643567958E0,1.180987654E0,1.121196000E0,3.231547053E-1,1.660193143E0
1.653594958E0,1.089513154E0,5.811243582E-1,-5.285520422E-1,1.343172250E0
1.663621958E0,1.029288076E0,4.875882035E-1,-3.828685181E-1,1.201567518E0
1.673649958E0,1.043436510E0,2.107348216E-1,3.647855651E-1,1.125272156E0
1.683676958E0,9.415956283E-1,2.228590232E-1,8.005751856E-1,1.255861895E0
1.693703958E0,1.336514892E0,3.368107313E-1,6.302738602E-1,1.515572059E0
1.703731958E0,1.627853582E0,3.478087592E-1,4.261465386E-2,1.665140903E0
1.713758958E0,2.194944038E0,7.758606130E-1,-4.093997475E-1,2.363757004E0
1.723785958E0,2.342413301E0,1.339830995E0,-1.047306490E0,2.894632628E0
1.733813958E0,1.835796212E0,1.479178914E0,-2.019632964E0,3.104357470E0
1.743840958E0,1.357801242E0,1.279165547E0,-2.228343480E0,2.906097620E0
1.753867958E0,1.452962923E0,1.430551715E0,-2.736589311E0,3.412696958E0
1.763895958E0,1.343405982E0,1.601634813E0,-2.207989322E0,3.040590494E0
1.773922958E0,5.907963838E-1,1.366696027E0,-2.289643350E0,2.731183821E0
1.783949958E0,9.399973650E-1,1.434612606E0,-3.564602995E0,3.955768306E0
1.793976958E0,1.364059664E0,1.432939133E0,-4.175212523E0,4.620213516E0
1.804004958E0,1.639109618E0,1.039220960E0,-3.285109595E0,3.815574085E0
1.814031958E0,3.026352761E0,1.220013360E0,-1.772217389E0,3.713219372E0
1.824058958E0,3.938314919E0,1.620611367E0,-9.217376069E-1,4.357327831E0
1.834086958E0,3.715776908E0,2.174405254E0,-3.305607156E-1,4.317905352E0
1.844113958E0,3.086776718E0,2.483281497E0,9.475003660E-2,3.962808987E0
1.854140958E0,2.276096228E0,2.020205407E0,-1.855497674E-1,3.048978950E0
1.864168958E0,1.703513483E0,1.401424395E0,-4.990727198E-1,2.261641461E0
1.874195958E0,1.129837015E0,7.774908167E-1,-9.717904307E-1,1.680892707E0
1.884222958E0,2.424876876E-1,2.486136693E-1,-2.066698957E0,2.095674978E0
1.894250958E0,-8.515606403E-1,-3.473152542E-1,-3.302787482E0,3.428438210E0
1.904277958E0,-1.362443201E0,-1.228542109E0,-3.606696516E0,4.046458568E0
1.914304958E0,-1.188455206E0,-2.029590772E0,-3.693358684E0,4.378648518E0
1.924332958E0,-7.921629426E-1,-2.638263702E0,-4.028230186E0,4.880020074E0
1.934359958E0,-6.018417741E-1,-3.033409181E0,-5.265903014E0,6.106842010E0
1.944386958E0,-6.067146975E-1,-3.173452334E0,-8.643813769E0,9.227915198E0
1.954414958E0,7.333859999E-1,-3.572168707E0,-1.263614293E1,1.315181936E1
1.964441958E0,2.858856345E0,-5.965815897E0,-1.024117602E1,1.219203450E1
1.974468958E0,5.382545026E0,-8.038212381E0,-2.549389533E0,1.000420093E1
1.984496958E0,8.916495747E0,-6.924114316E0,8.458237177E-1,1.132089543E1
1.994523958E0,1.009282748E1,-7.669849489E0,-1.690765821E0,1.278868433E1
2.004550958E0,6.554037021E0,-9.380243098E0,-3.971093826E0,1.211255332E1
2.014578958E0,2.743777294E0,-9.200508460E0,-5.247796526E0,1.094152814E1
2.024605958E0,-1.779167390E0,-7.419588659E0,-1.122646694E1,1.357384590E1
2.034632958E0,-4.355517849E0,-4.408556188E0,-1.151069659E1,1.307295067E1
2.044660958E0,-4.957985129E0,-3.939712989E0,-5.294308788E0,8.254251057E0
2.054687958E0,-5.974277403E0,-7.390619799E0,-1.876943361E0,9.686907034E0
2.064714958E0,-3.834466031E0,-9.141075606E0,-2.917753302E-2,9.912781865E0
2.074742958E0,-1.451257144E0,-8.160462458E0,2.319120333E0,8.606835303E0
2.084769958E0,-8.726355404E-2,-8.174729079E0,3.779627334E0,9.006630515E0
2.094796958E0,8.578796531E-1,-8.607143540E0,4.492599388E0,9.746913701E0
2.104824958E0,1.900577514E0,-6.975662200E0,6.143399929E0,9.487540287E0
2.114851958E0,8.293985966E-1,-4.293705178E0,6.049425234E0,7.464539627E0
2.124878958E0,-2.455513947E0,-3.842474962E0,1.077930990E0,4.685733432E0
2.134906958E0,-4.018078835E0,-3.111850748E0,-2.294479289E0,5.576128389E0
2.144934083E0,-1.977333037E0,-1.300360535E0,-1.664390347E0,2.893264365E0
2.154961083E0,-9.293140635E-1,-1.637371241E0,2.488173863E0,3.120195247E0
2.164989083E0,-3.045872228E0,-5.874890524E-1,5.472413222E0,6.290452090E0
2.175016083E0,-8.716874143E-1,7.694409549E-1,4.232298597E0,4.389103524E0
2.185043083E0,2.015935770E-1,1.241819966E0,3.469957623E0,3.690983975E0
2.195071083E0,1.271382026E0,8.219162071E-1,3.908568672E0,4.191523299E0
2.205098083E0,1.971730235E0,6.023515052E-1,4.404633876E0,4.863265059E0
2.215125083E0,2.197179136E0,7.469432080E-1,4.559645317E0,5.116237458E0
2.225153083E0,2.340800055E0,-2.625148398E-1,5.528147128E0,6.009048976E0
2.235180083E0,3.397102486E0,-1.403067462E0,5.972302798E0,7.012653158E0
2.245207083E0,4.210384694E0,-1.766362572E0,5.866438374E0,7.433873499E0
2.255234083E0,4.032435211E0,-9.817668039E-1,7.905211614E0,8.928424858E0
2.265262083E0,2.302942695E0,2.780900681E-1,8.538453375E0,8.847941296E0
2.275289083E0,8.857333034E-1,1.597972117E0,6.937699737E0,7.174239751E0
2.285316083E0,-2.192308259E-1,3.308428876E0,6.922222157E0,7.675345163E0
2.295344083E0,-7.210081753E-1,5.722718491E0,6.261316050E0,8.513133289E0
2.305371083E0,-1.326350824E0,6.056196309E0,6.216608824E0,8.779689374E0
2.315398083E0,-1.293780371E0,5.624533215E0,6.859693787E0,8.964632753E0
2.325426083E0,-6.323909909E-1,5.327725625E0,7.384632835E0,9.127835494E0
2.335453083E0,1.844232282E-1,4.408090165E0,7.337503107E0,8.561788521E0
2.345480083E0,5.597364128E-1,3.859993220E0,7.166955614E0,8.159540752E0
2.355508083E0,1.522152734E0,3.739109638E0,7.018923410E0,8.097109093E0
2.365535083E0,2.334930912E0,3.440620973E0,6.957845734E0,8.105639537E0
2.375562083E0,2.971965177E0,3.176415119E0,6.169187320E0,7.548580145E0
2.385590083E0,3.261446790E0,3.566164786E0,5.014904265E0,6.964469200E0
2.395617083E0,2.842713644E0,4.040347078E0,5.038314763E0,7.056205852E0
2.405644083E0,1.664384500E0,4.690643998E0,5.088456976E0,7.117914812E0
2.415672083E0,1.314381281E0,5.161536646E0,5.372570845E0,7.565287582E0
2.425699083E0,8.784757394E-1,5.536053733E0,6.140782131E0,8.314374043E0
2.435726083E0,4.440355101E-1,6.063968428E0,6.089806690E0,8.605499762E0
2.445754083E0,2.897269043E-1,6.503474393E0,6.534839442E0,9.224058076E0
2.455781083E0,2.018458843E-3,7.008765627E0,6.930440419E0,9.856662928E0
2.465808083E0,-2.937044728E-1,7.439597831E0,6.634267836E0,9.972331118E0
2.475836083E0,-1.084860817E0,7.833920606E0,4.263274514E0,8.984583721E0
2.485863083E0,-6.715908415E0,7.584284844E0,-1.158972638E1,1.539306857E1
2.495890083E0,-3.087063699E1,-1.181731054E0,-6.376270321E1,7.085248787E1
2.505918083E0,-1.702422217E1,-4.681754242E1,-3.592633845E1,6.141993335E1
2.515945083E0,-3.834171916E0,-7.043329571E1,1.262773346E1,7.165898179E1
2.525972083E0,1.677238493E1,-3.153429831E1,4.636788686E1,5.852952928E1
2.536000083E0,1.264132707E1,6.880401701E0,1.712081817E1,2.236661558E1
2.546027083E0,3.761500381E0,1.850743858E1,4.065507063E0,1.931845014E1
2.556054083E0,-2.864643919E0,2.234957148E1,3.112102178E0,2.274631201E1
2.566082083E0,-7.199021745E0,2.163772209E1,-6.594445374E0,2.373823164E1
2.576109083E0,-5.850584818E0,1.186033786E1,1.139053397E1,1.745397436E1
2.586136083E0,-3.390287556E0,4.500695443E0,1.376185005E1,1.487073724E1
2.596164083E0,-2.117067750E0,3.048802561E-1,1.064451696E1,1.085728645E1
2.606191083E0,-2.987074674E0,-3.727312295E0,9.986854885E0,1.107035422E1
2.616218083E0,-2.569063075E0,-6.254354939E0,7.846752321E0,1.035801925E1
2.626246083E0,-4.719055326E-1,-8.077091687E0,4.727271834E0,9.370656538E0
2.636273083E0,1.055841524E0,-1.067449329E1,1.629143624E0,1.084959526E1
2.646300083E0,2.104495798E0,-1.295751409E1,1.055744022E-2,1.312730686E1
2.656327083E0,2.993619463E0,-1.143498099E1,-1.762746947E-1,1.182165896E1
2.666355083E0,2.419843739E0,-8.320811822E0,1.481186410E0,8.791215290E0
2.676382083E0,1.984955467E0,-5.346555414E0,2.347334464E0,6.167307523E0
2.686409083E0,2.223557680E0,-3.011589711E0,1.691927079E0,4.108101579E0
2.696437083E0,2.491227279E0,-1.155111020E0,8.965595694E-1,2.888652607E0
2.706464083E0,2.878238111E0,8.409857315E-1,7.696772555E-1,3.095789834E0
2.716491083E0,3.216742195E0,2.401894103E0,6.849533665E-1,4.072552854E0
2.726519083E0,3.243953383E0,3.251232582E0,4.346493403E-1,4.613314091E0
2.736546083E0,2.557695210E0,3.731854997E0,3.193714837E-1,4.535476232E0
2.746573083E0,2.166302767E0,4.051757920E0,4.777292863E-1,4.619289468E0
2.756601083E0,3.044614785E0,4.059317200E0,-4.050401366E-1,5.090362741E0
2.766628083E0,3.475050256E0,3.627671648E0,-2.562570326E0,5.639392037E0
2.776655083E0,3.073983302E0,3.084957064E0,-4.448176922E0,6.225159545E0
2.786683083E0,2.406664115E0,1.935523106E0,-5.582388239E0,6.379760208E0
2.796710083E0,1.668596688E0,1.037255126E-1,-4.052644942E0,4.383937148E0
2.806737083E0,9.475417350E-1,-1.568803867E0,-2.164025277E0,2.835839613E0
2.816765083E0,1.633862473E0,-1.924918596E0,-1.513506894E0,2.943725751E0
2.826792083E0,2.755537798E0,-1.226697312E0,-2.911137469E0,4.191956133E0
2.836819083E0,2.572252438E0,-6.112854660E-2,-5.811894962E0,6.355969033E0
2.846847083E0,3.245973596E0,1.528337626E0,-7.629473881E0,8.430956777E0
2.856874083E0,5.595945593E0,2.724004934E0,-5.894952321E0,8.572355151E0
2.866901083E0,6.838137442E0,3.374035220E0,-2.799344553E0,8.122842315E0
2.876929083E0,6.433597827E0,3.101202384E0,1.004963147E0,7.212391292E0
2.886956083E0,5.172371537E0,1.633629023E0,4.091595585E0,6.794359832E0
2.896983083E0,3.023040313E0,4.971665275E-1,3.300970752E0,4.503593587E0
2.907011083E0,-1.122254638E0,9.168878531E-1,-4.240771505E0,4.481549036E0
2.917038083E0,-4.144244207E0,1.720961866E0,-6.076404287E0,7.553751310E0
2.927065083E0,-4.554537190E0,1.326146171E0,-1.363741429E0,4.935814357E0
2.937093083E0,-4.604577076E0,-2.564389980E-1,-3.804970336E-1,4.627382522E0
2.947120083E0,-3.602439158E0,-1.647885704E0,-2.308424753E0,4.584966741E0
2.957147083E0,-2.220926287E0,-2.091998690E0,-3.469124980E0,4.619935088E0
2.967175083E0,-7.626862514E-1,-2.625130271E0,-5.113929201E0,5.798730131E0
2.977202083E0,4.540174381E-1,-3.365732759E0,-7.089994562E0,7.861444633E0
2.987229083E0,1.733767122E0,-3.850904893E0,-8.984502958E0,9.927573235E0
2.997257083E0,2.807715427E0,-3.935543924E0,-1.080200235E1,1.183448464E1
3.007284083E0,3.734045072E0,-3.073229889E0,-1.214937509E1,1.307651137E1
3.017311083E0,5.259540659E0,-2.956401935E0,-9.921438575E0,1.161197760E1
3.027339083E0,8.898055968E0,-5.895801921E0,-2.801128539E0,1.103549733E1
3.037366083E0,1.272771032E1,-8.037894292E0,1.928642541E0,1.517636375E1
3.047393083E0,1.300615123E1,-8.145919847E0,1.683105677E0,1.543854995E1
3.057420083E0,7.770290036E0,-8.378613887E0,-1.034064885E0,1.147379049E1
3.067448083E0,7.663913396E-1,-7.965832622E0,-4.854401119E0,9.359864063E0
3.077475083E0,-4.691669015E0,-9.911350958E0,-9.637874343E0,1.459915264E1
3.087502083E0,-8.682598350E0,-1.040531204E1,-9.290539209E0,1.643082930E1
3.097530083E0,-7.243686286E0,-8.361055284E0,-6.158295711E0,1.266107588E1
3.107557083E0,-5.211860708E0,-7.939594411E0,-1.911312125E0,9.687815311E0
3.117584083E0,-3.963657922E0,-7.598345059E0,1.997244999E0,8.799682911E0
3.127612083E0,-2.078647158E0,-7.662588417E0,2.246973878E0,8.251359092E0
3.137639083E0,-5.223994558E-1,-9.157555983E0,2.539603925E0,9.517527035E0
3.147665208E0,5.404332921E-1,-9.471386572E0,3.979020896E0,1.028746028E1
3.157693208E0,1.434195115E0,-8.933667265E0,5.148936481E0,1.041051744E1
3.167720208E0,-1.411908160E0,-9.195411442E0,2.650087065E0,9.673264066E0
3.177747208E0,-4.254101987E0,-7.484449484E0,2.398311221E0,8.936792741E0
3.187775208E0,-2.743804191E0,-4.866695475E0,2.351934615E0,6.061747497E0
3.197802208E0,4.668840169E-1,-3.368270450E0,-9.619777796E-1,3.533925262E0
3.207829208E0,-8.553665198E-2,-3.346863794E0,4.489214435E-1,3.377920105E0
3.217857208E0,3.763014371E-1,-3.365388942E0,4.631395916E0,5.737357722E0
3.227884208E0,1.408128958E0,-2.932020800E0,4.453076596E0,5.514477700E0
3.237911208E0,2.898337330E0,-2.712107019E0,2.558117087E0,4.722271359E0
3.247939208E0,3.167640787E0,-1.643269327E0,1.771448480E0,3.984007022E0
3.257966208E0,3.588279541E0,-1.363219857E0,3.847766107E0,5.435018165E0
3.267993208E0,3.489484985E0,-1.690278602E0,6.285066270E0,7.384822627E0
3.278021208E0,2.671986934E0,-1.621403080E0,8.096427260E0,8.678743947E0
3.288048208E0,2.525264506E0,-7.443850511E-1,9.407792839E0,9.769218804E0
3.298075208E0,2.888328066E0,-3.935386634E-1,1.221865290E1,1.256156003E1
3.308103208E0,2.348663683E0,-5.069699693E-1,1.112163104E1,1.137822116E1
3.318130208E0,1.915809511E0,3.260962933E-1,9.825419108E0,1.001576385E1
3.328157208E0,2.666871205E-1,2.038392001E0,8.850657853E0,9.086270324E0
3.338185208E0,-1.316412896E0,3.716753978E0,8.833670522E0,9.673724099E0
3.348212208E0,-1.540976090E0,5.005951594E0,9.410722879E0,1.077013759E1
3.358239208E0,-1.648436804E0,5.520270343E0,9.902685385E0,1.145660973E1
3.368267208E0,-2.080834016E0,4.903229171E0,1.091900865E1,1.214892079E1
3.378294208E0,-9.905306107E-1,4.014958468E0,1.125013764E1,1.198610192E1
3.388321208E0,1.672074173E0,3.428322232E0,1.105934533E1,1.169864712E1
3.398349208E0,4.118867876E0,3.512423027E0,1.036543754E1,1.169377969E1
3.408376208E0,5.233636909E0,3.930979003E0,9.526935706E0,1.155880855E1
3.418403208E0,4.657210496E0,4.349316292E0,8.090537944E0,1.029868759E1
3.428431208E0,3.378413323E0,5.040660081E0,6.714274119E0,9.050050142E0
3.438458208E0,1.712705890E0,5.559902186E0,4.970181836E0,7.651704469E0
3.448485208E0,9.120624384E-1,5.497857381E0,4.920170016E0,7.434135233E0
3.458512208E0,2.433535141E-1,5.052789545E0,6.935587138E0,8.584420311E0
3.468540208E0,-4.549361819E-1,5.168581957E0,7.949530585E0,9.492957542E0
3.478567208E0,-5.581097174E-1,6.553227766E0,8.605817392E0,1.083126833E1
3.488594208E0,-7.669099876E-1,8.088798398E0,7.841615542E0,1.129193273E1
3.498622208E0,5.859956735E-1,8.434574665E0,7.435036418E0,1.125900561E1
3.508649208E0,1.882508156E0,8.232540500E0,7.950281367E0,1.159851430E1
3.518676208E0,2.235015445E0,8.937753299E0,8.286155959E0,1.239108989E1
3.528704208E0,2.635248001E0,9.766660438E0,7.807926809E0,1.277872878E1
3.538731208E0,1.757231853E0,9.901749830E0,-1.430918920E-1,1.005748422E1
3.548758208E0,-1.436547684E1,9.641997800E0,-4.575448119E1,4.891633260E1
3.558786208E0,-3.504267915E1,-3.464880837E1,-6.868625058E1,8.453597047E1
3.568813208E0,-1.815660097E1,-7.419709697E1,-2.068238997E1,7.913679683E1
3.578840208E0,1.308387242E1,-5.581721189E1,6.643075029E1,8.774846691E1
3.588868208E0,2.923441999E1,3.362121518E0,4.293512220E1,5.205170403E1
3.598895208E0,1.050878437E1,2.992974281E1,6.454789891E0,3.237110388E1
3.608922208E0,-7.446568297E0,3.681551518E1,-3.375747870E0,3.771245432E1
3.618950208E0,-1.938399234E1,3.356841132E1,-2.064689737E1,4.391892267E1
3.628977208E0,-1.314957173E1,1.575498344E1,2.012561342E1,2.874319146E1
3.639004208E0,-7.294815509E0,2.191095546E0,2.162111834E1,2.292352484E1
3.649032208E0,-3.817845320E0,-2.659084468E0,1.429472553E1,1.503282578E1
3.659059208E0,-4.591085503E0,-8.579526556E0,1.385345955E1,1.692940293E1
3.669086208E0,-5.236372821E0,-1.337629986E1,9.512708845E0,1.722894738E1
3.679114208E0,-3.415015431E0,-1.329261217E1,1.027432038E1,1.714402309E1
3.689141208E0,8.098291352E-2,-1.452083736E1,1.164634965E1,1.861447652E1
3.699168208E0,3.091925191E0,-1.474993361E1,7.642434819E0,1.689755464E1
3.709196208E0,4.562074251E0,-1.293399308E1,1.477414517E0,1.379432681E1
3.719223208E0,8.066958463E0,-9.697457471E0,-7.211413164E0,1.453000276E1
3.729250208E0,5.393478734E0,-6.807450085E0,-3.516244183E0,9.369896620E0
3.739278208E0,5.262703418E0,-4.181745032E0,2.464414287E0,7.159355875E0
3.749305208E0,6.623927035E0,-1.705511768E0,3.191255937E0,7.547800621E0
3.759332208E0,5.851258417E0,1.990783972E-1,2.385685036E0,6.322052702E0
3.769360208E0,3.666381969E0,1.947639121E0,1.172761937E0,4.314049774E0
3.779387208E0,1.999211563E0,3.627181651E0,-4.711416670E-1,4.168365156E0
3.789414208E0,1.646313680E0,5.149563888E0,-8.966378490E-1,5.480174851E0
3.799442208E0,1.455861388E0,6.224670964E0,-4.236377176E-1,6.406678540E0
3.809469208E0,1.667403710E0,7.148826907E0,-1.636453228E0,7.520900241E0
3.819496208E0,1.888211676E0,6.208496397E0,-4.446753709E0,7.866663167E0
3.829523208E0,1.992336407E0,3.723276547E0,-5.706421716E0,7.098974673E0
3.839551208E0,1.824664283E0,1.856468166E0,-4.537613593E0,5.231234168E0
3.849578208E0,1.472794047E0,4.858796471E-1,-2.406477735E0,2.862924454E0
3.859605208E0,1.341540428E0,-5.116185057E-1,-1.402172254E0,2.006880974E0
3.869633208E0,2.663397667E0,-3.121886909E-1,-1.100159472E0,2.898534073E0
3.879660208E0,3.420127652E0,-1.966325068E-1,-1.829293231E0,3.883587416E0
3.889687208E0,3.297695727E0,6.019065320E-2,-3.172515026E0,4.576381934E0
3.899715208E0,4.024226597E0,1.082388030E0,-4.977060501E0,6.491309173E0
3.909742208E0,3.906007299E0,1.565348747E0,-6.175587682E0,7.472957442E0
3.919769208E0,4.413295357E0,1.943436728E0,-4.806700704E0,6.808707210E0
3.929797208E0,5.846208762E0,1.750086848E0,-1.585783011E0,6.305209641E0
3.939824208E0,5.326577232E0,8.473632896E-1,1.894294973E0,5.716537676E0
3.949851208E0,4.342979372E0,-9.530318320E-2,5.102647583E0,6.701310684E0
3.959879208E0,1.506963421E0,-6.430048567E-1,2.593140739E0,3.067372311E0
3.969906208E0,-3.804807783E0,-5.930444920E-1,-7.797648574E0,8.696642301E0
3.979933208E0,-6.032820311E0,-5.541862357E-1,-7.498972798E0,9.640364947E0
3.989961208E0,-3.465798499E0,-1.346461152E0,-2.019034502E0,4.230983005E0
3.999988208E0,-5.151424033E-1,-2.478044146E0,-1.484477807E0,2.934237354E0
4.010015208E0,6.296325669E-2,-3.524207506E0,-3.140719036E0,4.721029441E0
4.020043208E0,4.655505594E-1,-4.018036442E0,-5.418574984E0,6.761827344E0
4.030070208E0,1.227926981E0,-4.456496340E0,-7.038329734E0,8.420584881E0
4.040097208E0,2.022459654E0,-4.961591692E0,-8.769445875E0,1.027671719E1
4.050125208E0,2.709866366E0,-4.829931691E0,-1.039092672E1,1.177467511E1
4.060152208E0,2.785209202E0,-3.759567291E0,-1.188840918E1,1.277599347E1
4.070179208E0,3.266447037E0,-2.280059763E0,-1.262138222E1,1.323509115E1
4.080207208E0,5.264167560E0,-2.113797694E0,-8.431899564E0,1.016250614E1
4.090234208E0,8.350895162E0,-3.482952476E0,-1.743495866E0,9.214563787E0
4.100261208E0,1.191785458E1,-4.662507781E0,2.150705758E0,1.297689377E1
4.110289208E0,1.343960415E1,-4.556499515E0,3.332545132E0,1.457705405E1
4.120316208E0,1.068275190E1,-6.656603615E0,-1.053644287E0,1.263098279E1
4.130343208E0,2.159224128E0,-8.208708419E0,-7.142986708E0,1.109357480E1
4.140371208E0,-2.896844535E0,-9.569547874E0,-7.332714822E0,1.239905889E1
4.150398500E0,-6.182775080E0,-1.038266227E1,-4.249590275E0,1.280958239E1
4.160425500E0,-8.095258402E0,-9.359608859E0,-2.118460264E0,1.255481423E1
4.170453500E0,-4.500654513E0,-8.412954000E0,-4.359813360E-1,9.551113327E0
4.180480500E0,-3.483236066E0,-9.521298990E0,1.066446912E0,1.019437967E1
4.190507500E0,-5.469431142E0,-1.033733465E1,1.750318690E0,1.182534483E1
4.200534500E0,-7.912184418E0,-1.064413923E1,1.878643731E0,1.339513585E1
4.210562500E0,-7.877690524E0,-9.586351603E0,1.710395948E0,1.252523849E1
4.220589500E0,-5.218140033E0,-8.349912829E0,1.499435716E0,9.959836200E0
4.230616500E0,-2.702179324E0,-6.765988063E0,9.246503243E-1,7.344068749E0
4.240644500E0,-3.796934800E-1,-4.508161753E0,2.719916561E0,5.278791114E0
4.250671500E0,9.581875413E-1,-3.572168707E0,2.162036639E0,4.284030236E0
4.260698500E0,2.613574711E0,-3.322388518E0,5.116393803E0,6.636755516E0
4.270726500E0,3.037472996E0,-3.068434587E0,5.404783741E0,6.917602208E0
4.280753500E0,3.672158726E0,-3.150610771E0,3.858976389E0,6.188925328E0
4.290780500E0,3.431464526E0,-3.978152584E0,3.650565836E0,6.397443059E0
4.300808500E0,3.603103694E0,-4.347811219E0,5.283356953E0,7.733025237E0
4.310835500E0,5.363198928E0,-4.640807594E0,5.902927923E0,9.227434960E0
4.320862500E0,5.680391082E0,-4.192009234E0,6.203632098E0,9.398129360E0
4.330890500E0,5.222306174E0,-4.084792934E0,9.510878082E0,1.159374042E1
4.340917500E0,4.472448714E0,-3.319622785E0,1.350248628E1,1.460615722E1
4.350944500E0,2.312090080E0,-1.346982724E0,1.145759100E1,1.176590475E1
4.360972500E0,-8.654016575E-1,9.507063943E-1,1.032150507E1,1.040126096E1
4.370999500E0,-2.775174210E0,4.120600698E0,1.067102589E1,1.177080013E1
4.381026500E0,-2.280763183E0,6.519904484E0,1.033839300E1,1.243355963E1
4.391054500E0,-1.413073803E0,6.512848649E0,1.063772249E1,1.255289269E1
4.401081500E0,-8.316860273E-1,4.997795312E0,1.111019272E1,1.221089849E1
4.411108500E0,-3.938406721E-1,3.799586220E0,1.089021579E1,1.154074373E1
4.421136500E0,9.104962617E-2,3.221490427E0,1.052995831E1,1.101209846E1
4.431163500E0,2.023815185E0,2.626591783E0,1.042363254E1,1.093832380E1
4.441190500E0,3.679157551E0,2.403407947E0,1.017762848E1,1.108587802E1
4.451218500E0,4.402977945E0,2.303466167E0,9.700298048E0,1.089898864E1
4.461245500E0,4.138411317E0,2.875535527E0,8.893446608E0,1.022196387E1
4.471272500E0,3.162657205E0,3.871401722E0,8.160369487E0,9.569837096E0
4.481300500E0,1.946902080E0,4.997272571E0,7.525471795E0,9.240989481E0
4.491327500E0,1.545789518E0,5.602627791E0,7.092576107E0,9.169707697E0
4.501354500E0,2.295733809E-1,5.438456102E0,5.707840251E0,7.887264991E0
4.511382500E0,-1.609644914E-1,4.565464174E0,5.061450441E0,6.818185481E0
4.521409500E0,1.056229341E-1,3.958463255E0,6.414087422E0,7.537977515E0
4.531436500E0,3.282150319E-1,4.320219378E0,6.980739922E0,8.216005747E0
4.541464500E0,4.543467826E-1,5.114630283E0,6.339171141E0,8.157877462E0
4.551491500E0,3.887907243E-1,5.804685345E0,5.782025045E0,8.202276745E0
4.561518500E0,5.824768192E-1,6.939102484E0,5.389513153E0,8.805525229E0
4.571545500E0,1.106661576E0,7.962899659E0,5.690753517E0,9.849728240E0
4.581573500E0,1.259115445E0,8.883398167E0,5.652145522E0,1.060409750E1
4.591600500E0,1.666021136E0,9.668180462E0,4.691170832E0,1.087457694E1
4.601627500E0,2.345944727E0,9.903017507E0,1.283497750E0,1.025770827E1
4.611655500E0,-1.383827492E0,8.777548946E0,-1.818219540E1,2.023740531E1
4.621682500E0,-2.291576907E1,-7.928396409E0,-6.815913111E1,7.234403289E1
4.631709500E0,-2.654506332E1,-6.495620413E1,-6.293012987E1,9.425576952E1
4.641737500E0,-2.034406071E1,-7.215988961E1,7.091525947E0,7.530750438E1
4.651764500E0,2.879911350E1,-3.655308746E1,6.388708519E1,7.903845137E1
4.661791500E0,1.796734882E1,1.104463959E1,2.754218900E1,3.468979478E1
4.671819500E0,3.123440807E0,2.639509861E1,9.640923082E0,2.827374243E1
4.681846500E0,-2.264526342E0,3.104544067E1,9.683007832E0,3.259920408E1
4.691873500E0,-1.117787541E1,3.162020794E1,-1.840142155E1,3.825434307E1
4.701901500E0,-8.786540794E0,1.991240756E1,6.752279851E0,2.278816704E1
4.711928500E0,-5.564085284E0,5.495794483E0,1.966535568E1,2.116338858E1
4.721955500E0,-2.408147700E0,1.179523730E-1,1.310924465E1,1.332911788E1
4.731983500E0,-4.664226862E0,-5.144431787E0,1.245794201E1,1.426255622E1
4.742010500E0,-6.827584387E0,-9.384347259E0,9.551976407E0,1.503070641E1
4.752037500E0,-4.654273147E0,-1.081702853E1,7.144463714E0,1.377366061E1
4.762065500E0,1.595379608E0,-1.253113629E1,6.836378599E0,1.436351925E1
4.772092500E0,7.029274735E0,-1.421588869E1,7.586215010E0,1.757989911E1
4.782119500E0,8.806012607E0,-1.411558906E1,4.244415782E0,1.717005468E1
4.792147500E0,4.864375007E0,-1.242891410E1,-2.103189676E0,1.351160452E1
4.802174500E0,2.073535814E0,-8.952259072E0,-1.886964319E0,9.380998220E0
4.812201500E0,3.046895784E0,-4.472076246E0,7.519181652E-1,5.463370827E0
4.822229500E0,3.659223223E0,-1.089630976E0,1.407621566E0,4.069227044E0
4.832256500E0,2.405080689E0,9.476342672E-1,3.403783368E-1,2.607351384E0
4.842283500E0,1.184508189E0,2.676113899E0,-5.078213239E-1,2.970274019E0
4.852311500E0,1.339891221E0,4.200363151E0,-6.842226107E-1,4.461672295E0
4.862338500E0,1.229678807E0,5.082261266E0,-4.287798321E-1,5.246459920E0
4.872365500E0,-1.653751192E-1,5.589429456E0,-1.302254448E0,5.741510012E0
4.882393500E0,-1.061676022E-1,4.888990908E0,-1.384017234E0,5.082224647E0
4.892420500E0,5.329390620E-1,3.735263924E0,-7.003210187E-1,3.837534385E0
4.902447500E0,1.562775387E0,2.935809211E0,-1.654081414E0,3.714462001E0
4.912474500E0,1.656816010E0,1.806225965E0,-3.555940930E0,4.318820143E0
4.922502500E0,1.633431095E0,7.008572084E-1,-4.487051550E0,4.826274918E0
4.932529500E0,1.670113163E0,-3.251104528E-1,-2.359463198E0,2.908958811E0
4.942556500E0,2.096127555E0,-1.578783894E0,6.494666147E-1,2.703352769E0
4.952584500E0,4.232790932E0,-2.292269334E0,1.295682762E0,4.984958535E0
4.962611500E0,4.960320507E0,-1.308819702E0,-8.430223167E-2,5.130779221E0
4.972638500E0,4.312132386E0,-1.293602908E-1,-1.634411380E0,4.613298209E0
4.982666500E0,3.735605694E0,1.147266396E0,-3.306582910E0,5.119029266E0
4.992693500E0,3.067518036E0,1.997161530E0,-5.783861071E0,6.844806057E0
5.002720500E0,3.517713880E0,2.227944700E0,-6.788195788E0,7.963519987E0
5.012748500E0,4.429884492E0,1.803153253E0,-5.141993498E0,7.022487835E0
5.022775500E0,4.809020294E0,1.130017694E0,-2.338308556E0,5.465464580E0
5.032802500E0,4.556974894E0,3.304787815E-1,4.834689863E-1,4.594450856E0
5.042830500E0,3.970962848E0,-4.535837209E-1,2.061745196E0,4.497229968E0
5.052857500E0,3.152143911E0,-7.823381585E-1,2.402391262E0,4.039746033E0
5.062884500E0,1.014851666E0,-1.030272966E0,1.578734193E0,2.140978267E0
5.072912500E0,-1.220605390E0,-8.542548180E-1,-2.532704503E0,2.938404484E0
5.082939500E0,-4.008773868E0,-5.639119095E-1,-6.355509431E0,7.535301235E0
5.092966500E0,-6.371689847E0,-9.971689546E-1,-8.708414977E0,1.083647862E1
5.102994500E0,-5.241626544E0,-1.814674022E0,-6.648832666E0,8.658791281E0
5.113021500E0,-1.712703698E0,-2.499469514E0,-4.048557739E0,5.056829201E0
5.123048500E0,8.859033112E-1,-2.861156055E0,-4.473219377E0,5.383375357E0
5.133076500E0,2.546580530E0,-2.756418389E0,-7.839645030E0,8.691544681E0
5.143103333E0,3.509742664E0,-2.111605573E0,-1.188352324E1,1.256961799E1
5.153130333E0,4.232957286E0,-1.996605459E0,-1.207402553E1,1.294938042E1
5.163158333E0,5.910731617E0,-4.200704629E0,-5.613635759E0,9.170363901E0
5.173185333E0,8.961318163E0,-5.758254359E0,7.397587341E-1,1.067754464E1
5.183212333E0,1.135126640E1,-4.754576284E0,2.782984044E0,1.261753719E1
5.193240333E0,1.069209107E1,-5.620043138E0,2.425620203E0,1.232028124E1
5.203267333E0,4.567659511E0,-7.377147229E0,-2.853641213E0,9.133952202E0
5.213294333E0,-2.759829070E0,-8.450694854E0,-8.926231946E0,1.259795685E1
5.223322333E0,-7.276973315E0,-8.830019521E0,-1.058674296E1,1.558854425E1
5.233349333E0,-8.324129532E0,-7.633830056E0,-6.783788742E0,1.317521474E1
5.243376333E0,-8.211089405E0,-7.420076902E0,-1.972877458E0,1.124152018E1
5.253404333E0,-7.021514896E0,-7.799584587E0,6.589566457E-1,1.051519924E1
5.263431333E0,-4.426430542E0,-7.735868647E0,1.844202607E0,9.101540217E0
5.273458333E0,-3.321096869E0,-7.645552554E0,2.858309630E0,8.812155934E0
5.283485333E0,-2.671960037E0,-7.985084580E0,2.811219664E0,8.877156199E0
5.293513333E0,1.859657237E-1,-7.324412361E0,2.818356483E0,7.850142224E0
5.303540333E0,6.314834299E-1,-7.154798668E0,2.290583290E0,7.539011017E0
5.313567333E0,-1.072956325E0,-7.804994431E0,1.499452381E0,8.019821119E0
5.323595333E0,-1.715871865E0,-6.945397596E0,1.524114182E0,7.314758237E0
5.333622333E0,-4.252609777E-1,-4.662740500E0,8.511201257E-1,4.758823525E0
5.343649333E0,9.409672719E-1,-3.511758783E0,4.427202959E0,5.728699259E0
5.353677333E0,1.405871349E0,-2.694166592E0,6.740408249E0,7.393788693E0
5.363704333E0,2.846797047E0,-1.550903201E0,2.997601709E0,4.415333529E0
5.373731333E0,2.320612250E0,-2.052980220E0,1.019571100E0,3.261823758E0
5.383759333E0,2.919765036E0,-3.239160420E0,2.789322426E0,5.176630921E0
5.393786333E0,4.574372992E0,-4.298860084E0,4.456995108E0,7.698694154E0
5.403813333E0,4.627593179E0,-3.952293273E0,3.571394536E0,7.056210008E0
5.413841333E0,3.993169988E0,-4.635388395E0,6.883671464E0,9.209623497E0
5.423868333E0,3.131395066E0,-4.885394871E0,9.348193340E0,1.100279223E1
5.433895333E0,3.082607068E0,-3.267168583E0,1.129466536E1,1.215509450E1
5.443923333E0,2.884256650E0,-1.175290346E-1,1.131884125E1,1.168113508E1
5.453950333E0,6.125910030E-1,2.573217521E0,1.087678707E1,1.119380245E1
5.463977333E0,-1.779063456E0,4.404254392E0,1.130560316E1,1.226291916E1
5.474005333E0,-2.911509937E0,5.787492192E0,1.030231802E1,1.217003338E1
5.484032333E0,-3.503317158E0,6.700902121E0,9.524134305E0,1.216077525E1
5.494059333E0,-3.215300857E0,6.781099023E0,9.027447833E0,1.173951779E1
5.504087333E0,-2.271631002E0,6.624006557E0,9.421075959E0,1.173858776E1
5.514114333E0,-1.868182477E-1,5.980400607E0,9.305411602E0,1.106303654E1
5.524141333E0,2.256512733E0,4.617883877E0,9.439443818E0,1.074801381E1
5.534169333E0,4.220136096E0,3.544572773E0,9.378988286E0,1.087837148E1
5.544196333E0,4.592352595E0,3.130389930E0,8.423471972E0,1.009177504E1
5.554223333E0,4.484246933E0,3.239613872E0,8.163689536E0,9.861510809E0
5.564251333E0,4.017990542E0,3.662181914E0,7.378238904E0,9.164836807E0
5.574278333E0,3.273506380E0,4.393977326E0,6.747607341E0,8.692127794E0
5.584305333E0,1.675763474E0,5.437134631E0,6.411836244E0,8.572179434E0
5.594332333E0,-1.968728274E-2,5.602142472E0,6.178827624E0,8.340401590E0
5.604360333E0,6.705177605E-2,5.611872239E0,6.163355892E0,8.335740028E0
5.614387333E0,-8.170527855E-1,5.536133839E0,5.328893899E0,7.727448695E0
5.624414333E0,-6.205913097E-2,5.377239847E0,5.474543363E0,7.673928899E0
5.634442333E0,5.150581303E-1,5.567251552E0,5.915961952E0,8.139912809E0
5.644469333E0,4.510147467E-1,5.977573478E0,5.454863974E0,8.104957740E0
5.654496333E0,4.982421228E-1,6.523382408E0,5.340246268E0,8.445175750E0
5.664524333E0,6.123739251E-1,7.054404899E0,5.010831095E0,8.674563883E0
5.674551333E0,1.143700764E0,7.412907046E0,3.643539822E0,8.338742396E0
5.684578333E0,2.769871370E-1,7.667266189E0,-5.532820807E0,9.459164803E0
5.694606333E0,-1.215355468E1,5.891400138E0,-4.475616969E1,4.674967607E1
5.704633333E0,-2.585067372E1,-3.128668276E1,-7.034245804E1,8.121068435E1
5.714660333E0,-1.320606402E1,-7.212177980E1,-3.681737226E1,8.204553704E1
5.724688333E0,7.255724534E0,-5.809992745E1,4.176698885E1,7.192168287E1
5.734715333E0,2.153532565E1,-9.342102880E0,4.983256328E1,5.508474834E1
5.744742333E0,4.406056504E0,1.433313004E1,1.048452544E1,1.829691844E1
5.754770333E0,1.942501758E0,2.267501113E1,1.112349747E1,2.533104102E1
5.764797333E0,-3.971811279E0,2.324914456E1,9.185930182E0,2.531164398E1
5.774824333E0,-5.875375258E0,2.114430597E1,-7.579295415E0,2.321739495E1
5.784852333E0,-7.553965861E0,1.066562073E1,1.534147770E1,2.015387813E1
5.794879333E0,-8.140580170E0,2.000421352E0,1.265577086E1,1.518022619E1
5.804906333E0,-7.519823384E0,-3.580764114E0,1.217793757E1,1.475370390E1
5.814934333E0,-6.954774191E0,-6.802943051E0,1.145940364E1,1.503219379E1
5.824961333E0,-4.611297574E0,-8.250378016E0,4.988721603E0,1.068738256E1
5.834988333E0,2.738579996E-1,-1.033455138E1,-2.355202916E-1,1.034086168E1
5.845016333E0,4.787587325E0,-1.104641012E1,1.897135258E0,1.218783374E1
5.855043333E0,7.517160562E0,-1.126427972E1,6.621364785E0,1.507428844E1
5.865070333E0,7.313749963E0,-1.088908611E1,4.881619616E0,1.399619037E1
5.875098333E0,2.347849896E0,-9.135459940E0,-1.141730252E-1,9.433030421E0
5.885125333E0,6.262150155E-1,-5.913380406E0,-8.581340070E-1,6.008045193E0
5.895152333E0,1.748802214E0,-2.299770142E0,-2.229658811E-1,2.897751831E0
5.905180333E0,1.930683073E0,5.381847453E-1,-3.424994143E-1,2.033343502E0
5.915207333E0,1.923922230E0,2.502155140E0,5.121424162E-1,3.197584549E0
5.925234333E0,1.791446250E0,3.699798222E0,4.791979607E-1,4.138528390E0
5.935261333E0,1.859211094E0,4.527912478E0,-4.242271169E-1,4.913107565E0
5.945289333E0,1.320211832E0,4.917837562E0,-5.296337406E-1,5.119433315E0
5.955316333E0,9.433473811E-1,4.823286915E0,-4.467705087E-1,4.934937166E0
5.965343333E0,1.603481656E0,4.443697954E0,-4.961023343E-1,4.750128678E0
5.975371333E0,2.711060953E0,3.781241750E0,-1.292031176E0,4.828766429E0
5.985398333E0,3.787592411E0,2.724193799E0,-2.439716817E0,5.264912751E0
5.995425333E0,4.005336290E0,1.621767946E0,-3.175236905E0,5.362366965E0
6.005453333E0,3.354874772E0,7.640416360E-1,-2.899062384E0,4.499278505E0
6.015480333E0,2.623548599E0,-2.419349796E-1,-1.802294297E0,3.192147321E0
6.025507333E0,2.318093562E0,-6.721210670E-1,-1.593829365E0,2.892334098E0
6.035535333E0,2.041114026E0,-1.035489267E0,-2.348252916E0,3.279127361E0
6.045562333E0,2.469356938E0,-1.384458114E0,-2.766377952E0,3.958193392E0
6.055589333E0,2.390769921E0,-1.922792548E0,-2.969776272E0,4.269951183E0
6.065617333E0,3.176251981E0,-2.059282933E0,-2.510437136E0,4.542193024E0
6.075644333E0,3.662628057E0,-1.286434221E0,-1.843200248E0,4.297341556E0
6.085671333E0,4.218383685E0,4.041080904E-1,-1.498871313E0,4.494961566E0
6.095699333E0,4.141376440E0,2.101123855E0,-8.142907070E-1,4.714741735E0
6.105726333E0,2.614131951E0,2.732528420E0,-4.643727109E-2,3.781871738E0
6.115753333E0,1.237594183E0,1.780635626E0,-2.849231243E-1,2.187117688E0
6.125781333E0,3.819852231E-1,3.710584581E-2,-1.333385170E0,1.387517772E0
6.135808333E0,-8.928620095E-1,-1.674523864E0,-3.209638998E0,3.728674729E0
6.145835125E0,-2.959978969E0,-2.537647154E0,-5.529841651E0,6.766112419E0
6.155863125E0,-4.036445816E0,-2.264796191E0,-7.049725957E0,8.433316826E0
6.165890125E0,-4.046511213E0,-1.988108870E0,-6.095201916E0,7.581445526E0
6.175917125E0,-2.257271556E0,-1.745585076E0,-4.581803926E0,5.397709639E0
6.185945125E0,3.923525557E-1,-1.694514325E0,-5.004892663E0,5.298515820E0
6.195972125E0,2.131912807E0,-1.910540292E0,-6.831811924E0,7.407352468E0
6.205999125E0,2.825670765E0,-1.480075293E0,-9.144169952E0,9.684569286E0
6.216027125E0,3.294986419E0,-6.651862693E-1,-1.092388523E1,1.142937779E1
6.226054125E0,4.298469490E0,-1.684936586E0,-7.708398428E0,8.985280050E0
6.236081125E0,5.778910233E0,-3.907496000E0,-2.340536930E0,7.358154768E0
6.246108125E0,8.109882288E0,-4.910379438E0,3.610263902E-1,9.487484230E0
6.256136125E0,1.044367329E1,-4.864229119E0,2.100735015E0,1.171085497E1
6.266163125E0,8.549791710E0,-6.827852774E0,-1.075573100E0,1.099433351E1
6.276190125E0,2.482597958E0,-8.150433898E0,-4.881514074E0,9.819472745E0
6.286218125E0,-3.476632805E0,-8.142896252E0,-6.389473568E0,1.091875027E1
6.296245125E0,-6.966619481E0,-7.409908594E0,-6.016607151E0,1.181694097E1
6.306272125E0,-7.729623821E0,-6.490461999E0,-3.762769811E0,1.077179734E1
6.316300125E0,-7.583622354E0,-7.043998609E0,-5.563203963E-1,1.036526588E1
6.326327125E0,-7.370694827E0,-8.385907704E0,1.399025867E0,1.125201598E1
6.336354125E0,-6.748176860E0,-9.082832075E0,2.337393028E0,1.155418260E1
6.346382125E0,-5.574304463E0,-8.292168651E0,2.919181192E0,1.040934916E1
6.356409125E0,-2.722195805E0,-6.114148064E0,3.336409265E0,7.478287460E0
6.366436125E0,-9.747457597E-1,-5.265435821E0,2.939412850E0,6.108607991E0
6.376464125E0,-1.021123243E0,-6.370303472E0,3.524982262E-1,6.461247093E0
6.386491125E0,-1.019243875E0,-6.924299673E0,3.618648809E-1,7.008261570E0
6.396518125E0,-8.751173910E-1,-5.464071584E0,8.285156670E-1,5.595386219E0
6.406546125E0,4.793407059E-1,-4.119858102E0,4.094138539E0,5.827947208E0
6.416573125E0,2.127069997E0,-3.331449364E0,6.658459522E0,7.743259316E0
6.426600125E0,2.108179982E0,-1.894794325E0,2.225725974E0,3.603959556E0
6.436628125E0,2.513514818E0,-1.231828828E0,5.557842797E-1,2.853779103E0
6.446655125E0,3.281089342E0,-1.240630057E0,1.936496667E0,4.006835354E0
6.456682125E0,3.609438275E0,-1.375373295E0,4.999906157E0,6.318129307E0
6.466710125E0,3.525693868E0,-5.039896435E-1,5.954985099E0,6.938758559E0
6.476737125E0,3.013938537E0,4.043115735E-2,6.689447426E0,7.337177049E0
6.486764125E0,2.859338155E0,-3.763969660E-2,6.905345339E0,7.474023393E0
6.496792125E0,2.340706499E0,-3.382374519E-1,6.522224075E0,6.937774742E0
6.506819125E0,2.587449644E0,-5.188222754E-1,7.847006675E0,8.278863809E0
6.516846125E0,2.869328123E0,3.911676174E-1,9.448180143E0,9.882012143E0
6.526874125E0,2.118748093E0,1.896629182E0,9.275777913E0,9.701873614E0
6.536901125E0,1.202010660E-1,2.937609569E0,9.187622951E0,9.646575235E0
6.546928125E0,-1.594340558E0,4.019981811E0,8.895632297E0,9.891129841E0
6.556955125E0,-2.675000297E0,4.850650131E0,8.803483102E0,1.040123781E1
6.566983125E0,-2.501090947E0,5.089499534E0,8.653304969E0,1.034592424E1
6.577010125E0,-2.235732606E0,5.293375572E0,8.372183120E0,1.015439685E1
6.587037125E0,-1.734280069E0,5.317025805E0,8.019766170E0,9.777276727E0
6.597065125E0,-8.098367366E-1,5.253121585E0,8.047341639E0,9.644212222E0
6.607092125E0,1.360606152E-1,5.092262928E0,8.073541843E0,9.546294156E0
6.617119125E0,7.001865327E-1,4.750715368E0,7.575944960E0,8.969643233E0
6.627147125E0,8.892170745E-1,3.953587847E0,7.054129495E0,8.135250875E0
6.637174125E0,1.871769159E0,2.969541214E0,6.654906753E0,7.523927080E0
6.647201125E0,1.887867421E0,3.132181517E0,5.720518184E0,6.789619485E0
6.657229125E0,1.619722882E0,3.762948736E0,4.936587244E0,6.415074358E0
6.667256125E0,1.034457526E0,4.405914416E0,4.186292996E0,6.165000671E0
6.677283125E0,6.452083799E-1,4.997053885E0,4.003714272E0,6.435570632E0
6.687311125E0,6.240616322E-2,5.525080848E0,4.532911263E0,7.146866266E0
6.697338125E0,-1.582010972E-1,5.981420361E0,4.364367610E0,7.406086805E0
6.707365125E0,-4.320747381E-1,6.468294035E0,3.426160224E0,7.332400029E0
6.717393125E0,-4.589628670E-1,7.038422704E0,2.654314309E0,7.536273982E0
6.727420125E0,-3.301976766E-1,7.642295070E0,2.909430082E0,8.184038603E0
6.737447125E0,-2.608998388E-1,8.046958061E0,2.560675244E0,8.448589259E0
6.747475125E0,-9.360611656E-1,8.144093762E0,-1.995214992E0,8.437022969E0
6.757502125E0,-7.357987658E0,7.057608004E0,-2.151697709E1,2.381029433E1
6.767529125E0,-2.084327728E1,-8.559078258E0,-5.936941878E1,6.350140089E1
6.777557125E0,-1.108091805E1,-5.433772599E1,-5.653539966E1,7.919360217E1
6.787584125E0,1.440027128E0,-7.033354689E1,9.745790555E0,7.102015157E1
6.797611125E0,1.701274759E1,-2.790417609E1,4.808029308E1,5.813597171E1
6.807639125E0,6.496960595E0,6.955315059E0,2.304547201E1,2.493352531E1
6.817666125E0,4.105832970E-1,1.827058776E1,4.779905838E0,1.888995647E1
6.827693125E0,-2.511489050E0,2.139526379E1,8.559044929E0,2.318021009E1
6.837721125E0,-6.244966650E0,1.847099406E1,3.461329472E0,1.980298037E1
6.847748125E0,-2.951827951E0,1.462366883E1,-8.782050133E-1,1.494443784E1
6.857775125E0,-4.026657285E0,7.422356731E0,1.172774523E1,1.445148285E1
6.867803125E0,-3.940936811E0,2.960853420E0,9.371602668E0,1.058888911E1
6.877830125E0,-4.010223978E0,-4.144184858E-1,1.058551621E1,1.132725883E1
6.887857125E0,-3.160930522E0,-3.415428829E0,1.306631440E1,1.387029948E1
6.897884125E0,-2.533449146E0,-5.153107300E0,1.224718263E1,1.352650590E1
6.907912125E0,-2.552378629E0,-7.635242159E0,7.237952507E0,1.082587253E1
6.917939125E0,5.745558885E-1,-9.200469868E0,5.094898853E0,1.053265183E1
6.927966125E0,7.986332960E0,-1.079205858E1,-4.885936908E0,1.428714184E1
6.937994125E0,7.438971595E0,-1.103225401E1,-5.712401079E0,1.448034713E1
6.948021125E0,7.749459623E-1,-9.735616400E0,2.947471483E0,1.020148793E1
6.958048125E0,5.384415843E-1,-6.656546313E0,4.840537956E0,8.248050427E0
6.968076125E0,1.578906101E0,-2.343013811E0,3.077736923E0,4.177932833E0
6.978103125E0,2.472661492E0,2.398358291E-1,5.745357156E-1,2.549836733E0
6.988130125E0,2.319848019E0,1.625626523E0,-1.406530184E0,3.162701943E0
6.998158125E0,2.156818730E0,2.961510648E0,-1.586874833E0,3.992566103E0
7.008185125E0,2.591475745E0,4.193833566E0,-1.366993796E0,5.115922063E0
7.018212125E0,2.539848923E0,4.372763627E0,-1.342176898E0,5.231953088E0
7.028240125E0,2.138383336E0,3.620753807E0,-1.391068976E0,4.429177612E0
7.038267125E0,2.070395713E0,2.876956401E0,-1.574870353E0,3.878612274E0
7.048294125E0,2.038206060E0,2.096740782E0,-1.951411160E0,3.515481669E0
7.058322125E0,1.355330063E0,1.407066958E0,-1.963194469E0,2.769637075E0
7.068349125E0,4.875661303E-1,4.788033468E-1,-2.335635209E0,2.433549919E0
7.078376125E0,2.679970430E-1,-3.257138854E-1,-2.628856702E0,2.662479955E0
7.088404125E0,3.450136440E-1,-6.589285791E-1,-2.578929082E0,2.684044801E0
7.098431125E0,1.352803043E-1,-8.975224596E-1,-2.717071890E0,2.864668739E0
7.108458125E0,1.069702788E0,-4.055576152E-1,-2.780551018E0,3.006693366E0
7.118486125E0,1.835691839E0,3.616584742E-1,-2.942765644E0,3.487180955E0
7.128513125E0,2.631765984E0,9.951259375E-1,-3.025101457E0,4.131308104E0
7.138540125E0,3.485969639E0,1.996163995E0,-2.638849009E0,4.806264569E0
7.148568625E0,4.160552384E0,2.835780893E0,-1.829093987E0,5.356998621E0
7.158595625E0,4.061464882E0,3.088947204E0,-8.917325467E-1,5.179988297E0
7.168622625E0,3.795870314E0,2.320317258E0,6.716360405E-2,4.449383617E0
7.178650625E0,4.028150664E0,1.254561049E0,1.637839603E0,4.525752949E0
7.188677625E0,3.438123627E0,-1.214145094E-1,2.392917896E0,4.190643341E0
7.198704625E0,8.690549248E-1,-1.426330025E0,-4.187566812E-1,1.721926526E0
7.208731625E0,-8.722869001E-1,-1.550341283E0,-3.064253243E0,3.543175196E0
7.218759625E0,-2.780717078E0,-1.535581157E0,-4.781723445E0,5.740668607E0
7.228786625E0,-4.867343346E0,-1.857929969E0,-7.074707016E0,8.786035192E0
7.238813625E0,-3.964169553E0,-1.811145812E0,-6.872832481E0,8.138225587E0
7.248841625E0,-1.236234998E0,-1.948524390E0,-4.669682022E0,5.208738279E0
7.258868625E0,4.855731069E-1,-2.538468103E0,-3.964594646E0,4.732611568E0
7.268895625E0,1.601009892E0,-3.094658180E0,-5.889196907E0,6.842717452E0
7.278923625E0,2.129155845E0,-3.012171509E0,-9.836638745E0,1.050551967E1
7.288950625E0,2.161852159E0,-1.904467959E0,-1.326968757E1,1.357885162E1
7.298977625E0,2.805625632E0,-1.207321393E0,-1.141365035E1,1.181526870E1
7.309005625E0,4.788998258E0,-2.879253772E0,-4.582827773E0,7.226819286E0
7.319032625E0,6.961076320E0,-4.439274536E0,-3.750652626E-2,8.256218788E0
7.329059625E0,9.262917547E0,-4.203121283E0,3.224326034E0,1.067071452E1
7.339087625E0,1.188165213E1,-5.243255578E0,3.093615621E0,1.335049977E1
7.349114625E0,1.042581238E1,-9.790172092E0,-3.832151703E0,1.480643171E1
7.359141625E0,3.510293471E0,-1.133066199E1,-6.651672658E0,1.359966214E1
7.369169625E0,-2.142434725E0,-9.872550005E0,-5.446598935E0,1.147705146E1
7.379196625E0,-8.005929319E0,-5.854194304E0,-4.939269361E0,1.107984102E1
7.389223625E0,-7.752345516E0,-5.115493332E0,-1.255059085E0,9.372422650E0
7.399251625E0,-7.499727089E0,-7.696844915E0,2.240752441E0,1.097762723E1
7.409278625E0,-8.048166681E0,-9.212525657E0,3.192238269E0,1.264254725E1
7.419305625E0,-6.930301840E0,-9.268686410E0,2.383749608E0,1.181608622E1
7.429333625E0,-5.437495404E0,-9.520486811E0,9.574192902E-1,1.100557482E1
7.439360625E0,-3.382989646E0,-7.254975505E0,9.567892528E-1,8.061931171E0
7.449387625E0,-2.392199127E0,-5.182364429E0,1.862846016E0,6.004141322E0
7.459415625E0,-2.866989237E0,-5.688459654E0,6.933876827E-1,6.407728693E0
7.469442625E0,-2.534716530E0,-4.822954794E0,-1.311971936E-1,5.450036104E0
7.479469625E0,-1.392534434E0,-3.492683412E0,9.811484608E-1,3.885954435E0
7.489497625E0,4.027043932E-1,-2.981084202E0,6.088250161E0,6.790863264E0
7.499524625E0,4.987562393E-1,-1.792821808E0,3.890120999E0,4.312309034E0
7.509551625E0,1.216609184E0,-8.265600657E-1,1.607823506E0,2.179090607E0
7.519579625E0,1.814267787E0,-9.129474145E-1,2.321269770E0,3.084369292E0
7.529606625E0,2.110727614E0,-1.445743951E0,5.177189058E0,5.774827545E0
7.539633625E0,3.259982648E0,-1.268661025E0,6.471413525E0,7.356370074E0
7.549661625E0,2.750244899E0,-7.456556511E-1,5.336923880E0,6.050008748E0
7.559688625E0,2.337863144E0,-8.209672040E-1,5.365871691E0,5.910344341E0
7.569715625E0,2.849465132E0,-1.602689651E0,6.473538988E0,7.252225360E0
7.579742625E0,2.367858922E0,-2.645062845E0,6.976497182E0,7.827811077E0
7.589770625E0,1.897964686E0,-2.432072752E0,8.067370107E0,8.637112264E0
7.599797625E0,1.539751391E0,-2.271450323E-1,9.205197342E0,9.335849577E0
7.609824625E0,6.145498203E-1,2.179814513E0,9.513118735E0,9.778992323E0
7.619852625E0,-1.358697182E0,5.040454844E0,9.617650579E0,1.094310037E1
7.629879625E0,-3.470362251E0,7.374736422E0,9.005494462E0,1.214615503E1
7.639906625E0,-2.832975399E0,7.470296883E0,7.893628280E0,1.123122667E1
7.649934625E0,-1.676079808E0,6.966850446E0,7.375003055E0,1.028284585E1
7.659961625E0,-3.202287586E-1,6.254910425E0,7.462869750E0,9.742734513E0
7.669988625E0,8.216103977E-1,5.497794231E0,7.408128117E0,9.261811229E0
7.680016625E0,1.256239200E0,4.816225233E0,7.289740711E0,8.826918038E0
7.690043625E0,1.694141565E0,3.821698635E0,7.326752416E0,8.435448837E0
7.700070625E0,2.197592973E0,2.710599023E0,7.446292309E0,8.223383189E0
7.710098625E0,2.461251820E0,2.142532666E0,7.021783283E0,7.742974055E0
7.720125625E0,2.302794615E0,2.288248789E0,6.697644637E0,7.442942244E0
7.730152625E0,2.153378667E0,3.096024674E0,6.292444287E0,7.336025052E0
7.740180625E0,1.973385289E0,3.861853804E0,5.701039939E0,7.163101332E0
7.750207625E0,1.582987750E0,4.294470579E0,5.105817944E0,6.856945723E0
7.760234625E0,7.720786339E-1,4.614413847E0,4.401743597E0,6.423726899E0
7.770262625E0,2.473316672E-1,4.945143474E0,3.735432324E0,6.202344039E0
7.780289625E0,-1.395826855E-1,5.340657912E0,3.350166301E0,6.306007017E0
7.790316625E0,-4.340432033E-1,5.743183161E0,3.254187765E0,6.615306821E0
7.800344625E0,-7.175980791E-1,6.437897869E0,3.074424475E0,7.170325085E0
7.810371625E0,-6.098271704E-1,7.029628492E0,2.888697025E0,7.624443351E0
7.820398625E0,-2.110239664E-1,7.221487332E0,3.139895164E0,7.877395003E0
7.830426625E0,-7.404460743E-2,7.106029381E0,2.830535356E0,7.649383411E0
7.840453625E0,-1.966357228E0,6.580763474E0,-2.942278571E0,7.471948329E0
7.850480625E0,-1.006605308E1,4.418087150E0,-2.936640802E1,3.135651190E1
7.860507625E0,-2.140650214E1,-1.819409331E1,-6.793780698E1,7.351740598E1
7.870535625E0,-1.021389174E1,-6.188376361E1,-4.289055707E1,7.598370660E1
7.880562625E0,2.042631671E0,-6.223186006E1,3.417469274E1,7.102736356E1
7.890589625E0,1.401799201E1,-1.424569779E1,4.056108248E1,4.521775556E1
7.900617625E0,3.257963604E0,9.910836403E0,1.116231129E1,1.527861900E1
7.910644625E0,3.349798511E0,1.987303241E1,5.693513988E0,2.094217440E1
7.920671625E0,-7.593808204E-1,1.931511097E1,1.203460711E1,2.277019849E1
7.930699625E0,-3.048881498E0,1.731589999E1,1.162628785E0,1.762066334E1
7.940726625E0,-2.612679210E0,1.195127844E1,5.680465926E0,1.348802588E1
7.950753625E0,-4.718418564E0,4.478195357E0,1.104790701E1,1.282084072E1
7.960781625E0,-4.373134048E0,6.430709302E-2,9.417263575E0,1.038331787E1
7.970808625E0,-4.514484932E0,-3.013907547E0,1.124340516E1,1.248512605E1
7.980835625E0,-3.767879985E0,-5.539792442E0,1.154690956E1,1.334980675E1
7.990863625E0,-5.520933710E-1,-8.836904032E0,8.869187095E0,1.253228470E1
8.000890625E0,4.259445465E0,-1.337623788E1,-3.693883471E0,1.451590130E1
8.010917625E0,7.515606957E0,-1.550821339E1,-7.932536237E0,1.897140379E1
8.020945625E0,4.400902183E0,-1.325692193E1,-2.343797922E-2,1.396833807E1
8.030972625E0,7.802815466E-1,-9.251093307E0,3.985660117E0,1.010331892E1
8.040999625E0,8.683595446E-1,-5.769202686E0,3.598595198E0,6.854752755E0
8.051027625E0,1.451957787E0,-3.062718934E0,1.282384586E0,3.623939694E0
8.061054625E0,1.401849487E0,-9.565670586E-1,-5.609466402E-1,1.787418154E0
8.071081625E0,1.238004950E0,4.965829754E-1,-2.577332792E-1,1.358557084E0
8.081109625E0,9.522476473E-1,1.897691036E0,4.633066173E-1,2.173168164E0
8.091136625E0,5.568144129E-1,3.379885944E0,1.334219129E-1,3.428042108E0
8.101163625E0,6.182788090E-1,4.439647588E0,-3.768085369E-1,4.498302354E0
8.111191625E0,5.481831917E-1,4.928230988E0,-4.511631198E-1,4.979107715E0
8.121218625E0,8.015627803E-1,4.801086792E0,-2.876678073E-1,4.876032203E0
8.131245625E0,1.521880546E0,4.084715751E0,-9.103600216E-1,4.453063948E0
8.141273625E0,2.038221847E0,3.254818679E0,-2.354348638E0,4.504569951E0
8.151300833E0,2.339756327E0,2.534169815E0,-3.409457653E0,4.849832761E0
8.161327833E0,1.655028370E0,1.908513647E0,-2.158738225E0,3.322904448E0
8.171354833E0,7.965914775E-1,1.563046113E0,-1.166949293E0,2.106998288E0
8.181382833E0,6.136683525E-1,9.645069927E-1,-1.830132891E0,2.157834327E0
8.191409833E0,3.614326255E-1,-3.138557321E-1,-2.274641733E0,2.324464235E0
8.201436833E0,1.955269007E0,-2.161785793E-1,-3.569673116E0,4.075828286E0
8.211464833E0,2.478648164E0,1.696546233E-1,-4.894322984E0,5.488795577E0
8.221491833E0,2.840763598E0,1.049657071E-1,-4.793146273E0,5.572719876E0
8.231518833E0,3.844990726E0,7.231982499E-1,-3.501796297E0,5.250671072E0
8.241546833E0,4.462832968E0,1.817684754E0,-1.896743787E0,5.178657447E0
8.251573833E0,4.212462502E0,2.432698989E0,-6.271263041E-2,4.864853295E0
8.261600833E0,3.456304667E0,2.467815027E0,1.804012794E0,4.614175454E0
8.271628833E0,2.968954738E0,1.986028431E0,3.440725054E0,4.959595756E0
8.281655833E0,1.846705947E0,1.308553069E0,2.081533782E0,3.074966158E0
8.291682833E0,1.925707385E-1,7.075189412E-1,-1.444191076E0,1.619677254E0
8.301710833E0,-1.768691957E0,-2.104108858E-1,-3.214823139E0,3.675273023E0
8.311737833E0,-3.710897992E0,-1.602500201E0,-4.750047031E0,6.237124145E0
8.321764833E0,-4.451071878E0,-2.548459826E0,-6.945401105E0,8.633961133E0
8.331792833E0,-2.799697433E0,-2.611148409E0,-8.002535010E0,8.871131175E0
8.341819833E0,-5.580068064E-1,-2.563187792E0,-6.713591164E0,7.207885236E0
8.351846833E0,9.276708497E-1,-2.700276348E0,-5.104555530E0,5.848807803E0
8.361874833E0,2.397512930E0,-2.831051665E0,-5.333291005E0,6.496684903E0
8.371901833E0,3.381808509E0,-2.669181440E0,-9.162924312E0,1.012523285E1
8.381928833E0,3.755959559E0,-1.885900710E0,-1.076495089E1,1.155629791E1
8.391956833E0,4.628645970E0,-3.012594262E0,-6.223761138E0,8.320774628E0
8.401983833E0,6.383790659E0,-4.989024489E0,-8.562767851E-1,8.147168739E0
8.412010833E0,8.438702799E0,-5.816218978E0,1.961397620E0,1.043490243E1
8.422038833E0,1.138141933E1,-6.091208267E0,3.154185759E0,1.328865726E1
8.432065833E0,9.988852293E0,-9.533157728E0,-8.060024250E-1,1.383141013E1
8.442092833E0,2.336765768E0,-1.028213460E1,-5.046844096E0,1.168988458E1
8.452120833E0,-2.139903466E0,-8.856326728E0,-5.391414083E0,1.058683408E1
8.462147833E0,-6.416202945E0,-5.658034837E0,-4.950365038E0,9.883680107E0
8.472174833E0,-8.016528566E0,-3.531298424E0,-3.244631660E0,9.341436368E0
8.482201833E0,-7.587554607E0,-5.358997119E0,5.880413219E-2,9.289418333E0
8.492229833E0,-8.335405303E0,-7.998187605E0,2.673949260E0,1.185748671E1
8.502256833E0,-7.817988698E0,-8.668067434E0,3.161250365E0,1.209338018E1
8.512283833E0,-5.164900550E0,-8.208021955E0,2.129234636E0,9.928819781E0
8.522311833E0,-2.001544749E0,-6.639297026E0,2.464800203E0,7.359462373E0
8.532338833E0,6.043053523E-2,-5.269966244E0,3.646873612E0,6.409046981E0
8.542365833E0,8.707379727E-1,-4.482563812E0,3.551478919E0,5.784856564E0
8.552393833E0,4.173431899E-1,-3.901387998E0,3.156814959E0,5.035919414E0
8.562420833E0,1.093022215E-1,-3.252698479E0,4.849021681E0,5.839949112E0
8.572447833E0,6.377939643E-1,-2.276169026E0,3.424440558E0,4.161071942E0
8.582475833E0,2.236178456E-1,-9.409631789E-1,1.104282929E0,1.467943266E0
8.592502833E0,-1.460794684E0,6.877261162E-2,-9.752892584E-2,1.465661172E0
8.602529833E0,-8.999679114E-1,8.476188129E-1,1.388390366E0,1.859039457E0
8.612557833E0,-5.476685636E-1,1.398811274E0,4.254524741E0,4.511939118E0
8.622584833E0,-7.378086146E-2,9.661600006E-1,7.437670589E0,7.500523485E0
8.632611833E0,-3.663852172E-1,1.227406579E0,5.820442421E0,5.959724408E0
8.642639833E0,-3.062747074E-1,1.753167161E0,4.417971960E0,4.762969192E0
8.652666833E0,-2.840551051E-1,1.692553754E0,5.293252780E0,5.564526081E0
8.662693833E0,-1.126107953E-2,1.194393200E0,5.157059433E0,5.293577611E0
8.672721833E0,7.638177607E-2,5.291174680E-1,5.290172467E0,5.317116155E0
8.682748833E0,-1.804793543E-1,6.945930862E-1,7.128493214E0,7.164527051E0
8.692775833E0,-1.773505458E-1,3.990300175E0,8.366194401E0,9.270768979E0
8.702803833E0,1.543325209E0,7.991214800E0,8.352624183E0,1.166223381E1
8.712830833E0,2.741739539E0,8.151797469E0,7.830868945E0,1.163148512E1
8.722857833E0,1.026203085E0,5.929162041E0,6.382693722E0,8.771934474E0
8.732885833E0,-1.714741891E0,3.377414911E0,4.744336640E0,6.070914378E0
8.742912833E0,-1.554266227E0,2.770487375E0,4.204119403E0,5.269341871E0
8.752939833E0,-2.328256169E0,2.237773869E0,3.968887671E0,5.116686235E0
8.762967833E0,-2.684612242E0,1.960653854E0,3.774814491E0,5.029963306E0
8.772994833E0,-2.412186079E0,1.469112933E0,3.981380832E0,4.881426822E0
8.783021833E0,-8.320722359E-1,1.586056076E0,4.000842120E0,4.383452492E0
8.793049833E0,3.411338702E-1,1.710428107E0,3.642750447E0,4.038758157E0
8.803076833E0,1.586863284E0,4.335367759E0,4.608286550E0,6.523024883E0
8.813103833E0,1.855472677E0,5.537528400E0,5.173453272E0,7.802026557E0
8.823130833E0,1.814915805E0,4.546735834E0,4.792282639E0,6.850744414E0
8.833158833E0,7.366899692E-1,2.389672253E0,3.926251529E0,4.654964732E0
8.843185833E0,-4.963227012E-1,8.493115819E-1,3.910260563E0,4.032096733E0
8.853212833E0,7.138619276E-1,4.937124018E0,5.042038270E0,7.092738705E0
8.863240833E0,9.165527346E-1,6.679440501E0,5.358661489E0,8.612215004E0
8.873267833E0,-2.705336382E-1,4.148295450E0,5.103092557E0,6.582028352E0
8.883294833E0,-1.315575867E0,1.043256124E0,4.531494482E0,4.832552684E0
8.893322833E0,-2.544194866E0,4.738086551E-1,4.377572377E0,5.085328119E0
8.903349833E0,-2.899083142E0,3.425715251E0,3.419194436E0,5.641905586E0
8.913376833E0,-3.226871327E0,4.640966638E0,-2.326538111E0,6.112613965E0
8.923404833E0,-5.836160907E0,1.313453035E0,-1.584080185E1,1.693271792E1
8.933431833E0,-7.546870265E0,-1.702923908E1,-5.762865591E1,6.056411657E1
8.943458833E0,1.140920486E0,-4.357524731E1,-4.938767904E1,6.587295893E1
8.953486833E0,3.853741085E0,-2.402053966E1,4.280913108E1,4.923879923E1
8.963513833E0,-2.840248458E-1,7.272382666E0,5.184387448E1,5.235222575E1
8.973540833E0,-8.975407614E0,1.045024673E1,1.157727883E1,1.799441534E1
8.983568833E0,-9.434329258E0,5.326288964E0,-1.507394654E1,1.856339912E1
8.993595833E0,5.147173838E-1,-7.930894924E0,-3.141690259E0,8.546007604E0
9.003622833E0,4.416167509E0,-1.071109803E1,1.785302055E1,2.128286868E1
9.013650833E0,-9.516457495E-1,-1.035985345E1,1.099319110E1,1.513546972E1
9.023677833E0,3.106954582E-1,-1.038994322E1,-2.043147542E0,1.059348402E1
9.033704833E0,-9.536647931E-2,-5.829781010E0,1.595775318E-1,5.832744326E0
9.043732833E0,-8.273725364E-1,-6.258140427E0,5.986495160E0,8.699827080E0
9.053759833E0,-7.201277308E-1,-7.537083780E0,6.514097614E0,9.987976952E0
9.063786833E0,6.519225915E-1,-5.629417979E0,1.994623253E0,6.007817555E0
9.073814833E0,2.590169184E0,-3.063984271E0,-5.239742571E-1,4.046174124E0
9.083841833E0,2.409683471E0,-3.151303082E0,1.602703099E0,4.278544468E0
9.093868833E0,1.136037257E0,-2.588400986E0,2.824755383E0,3.996203609E0
9.103896833E0,-4.583683513E-1,-6.368682039E-1,2.762748000E0,2.872016568E0
9.113923833E0,-9.859716828E-1,-7.700818098E-1,1.679251923E0,2.094051856E0
9.123950833E0,-1.255228216E0,-4.034709778E0,1.528352829E0,4.493366581E0
9.133977833E0,-1.884300327E0,-7.136318543E0,2.275775508E0,7.723780437E0
9.144005833E0,-2.191342591E0,-4.343948548E0,1.615005056E0,5.126413237E0
9.154032333E0,-3.954738871E0,-9.804845095E-2,-7.657481459E-1,4.029384973E0
9.164059333E0,-2.862689487E0,1.115669796E0,1.873594075E-2,3.072468263E0
9.174087333E0,4.131994144E-1,-4.212778544E-1,-8.913814214E-1,1.069004034E0
9.184114333E0,3.345265165E-1,-9.651905322E-1,-1.025612150E0,1.447543104E0
9.194141333E0,-3.065936364E-1,3.584378278E-1,1.218913499E-1,4.871702325E-1
9.204169333E0,-3.698537855E-1,-1.144415878E0,7.394368449E-1,1.411823775E0
9.214196333E0,2.604393706E0,-4.519032896E0,2.827576080E-1,5.223454485E0
9.224223333E0,3.594188737E0,-3.947783316E0,-4.959011900E-1,5.361819073E0
9.234251333E0,3.467820466E0,-2.918004439E0,-5.829419652E-1,4.569502164E0
9.244278333E0,3.343663905E0,-3.172043740E0,-1.234262878E0,4.771305340E0
9.254305333E0,2.014034255E0,-4.456757711E0,-2.601614524E0,5.539622858E0
9.264333333E0,3.778087762E-1,-6.348240173E0,-1.809213746E0,6.611818747E0
9.274360333E0,-1.086953243E0,-5.532272338E0,-2.633497052E0,6.222765567E0
9.284387333E0,2.350242139E0,-3.196068780E0,-4.084192133E0,5.693778985E0
9.294415333E0,3.455422615E0,-3.237258321E0,-2.450459176E0,5.331466689E0
9.304442333E0,2.064305984E0,-3.583707018E0,8.172724215E-1,4.215714577E0
9.314469333E0,7.252915531E-2,-6.137674921E0,2.109458183E0,6.490464370E0
9.324497333E0,-3.181936644E0,-6.980620054E0,-1.279795293E0,7.777638018E0
9.334524333E0,-5.701111860E0,-2.784956310E0,-2.316846936E0,6.754734474E0
9.344551333E0,-8.539209419E0,8.768730175E-1,-2.037175781E0,8.822533024E0
9.354579333E0,-1.539032768E1,1.037880778E-2,-3.604803772E0,1.580686256E1
9.364606333E0,-1.826109422E1,1.632413387E0,-6.348555923E-1,1.834490058E1
9.374633333E0,-7.711524349E0,-2.238142244E0,-1.890258640E-1,8.031974805E0
9.384661333E0,-3.873803759E-1,-4.839911719E0,-2.361215608E0,5.399087715E0
9.394688333E0,-1.893252414E0,6.961846983E-1,-1.873988178E0,2.753345153E0
9.404715333E0,-2.374649001E0,-4.657394975E-1,-1.222543450E0,2.711177539E0
9.414743333E0,-1.378040210E0,-1.971318591E-1,-2.509652440E0,2.869879990E0
9.424770333E0,-1.307080740E0,2.933781981E-1,4.638547645E0,4.828110923E0
9.434797333E0,1.575650956E0,2.748003661E0,4.145086206E0,5.216889850E0
9.444825333E0,4.300015786E0,2.688165010E0,5.121605426E-2,5.071389353E0
9.454852333E0,3.937298089E0,3.148559568E0,2.869281346E0,5.800734353E0
9.464879333E0,3.770102512E0,3.667596436E0,8.947242746E-1,5.335303937E0
9.474906333E0,8.161143658E0,4.221960427E0,-1.912986183E0,9.385559748E0
9.484934333E0,1.340665041E1,4.923325174E0,-8.785615765E0,1.676795904E1
9.494961333E0,1.351014496E1,5.863769120E0,-5.819103409E0,1.583571185E1
9.504988333E0,1.242677285E1,4.495844008E0,1.563408933E0,1.330719896E1
9.515016333E0,1.181777130E1,3.072515944E0,6.105685388E0,1.365208654E1
9.525043333E0,1.077518936E1,3.131494469E0,6.062373308E0,1.275395364E1
9.535070333E0,1.063564322E1,3.417898108E0,5.270660309E0,1.235227891E1
9.545098333E0,8.512501093E0,3.402866671E0,6.832248711E0,1.143336341E1
9.555125333E0,6.442913026E0,3.475335308E0,8.148361060E0,1.095376062E1
9.565152333E0,5.130617155E0,3.092801104E0,8.480444317E0,1.038299508E1
9.575180333E0,3.681522750E0,2.498922215E0,8.378116289E0,9.486361502E0
9.585207333E0,2.037371370E0,1.656397496E0,8.746369838E0,9.132005262E0
9.595234333E0,-5.967606899E-1,7.152208936E-1,9.575043672E0,9.620245609E0
9.605262333E0,-1.868828302E0,-1.040803801E0,9.785163367E0,1.001624750E1
9.615289333E0,-2.161602775E0,-2.447800008E0,8.513041375E0,9.117901343E0
9.625316333E0,-3.241042639E0,-3.138518144E0,6.275126588E0,7.728639417E0
9.635344333E0,-5.267128590E0,-2.459689152E0,3.283192293E0,6.676231418E0
9.645371333E0,-6.842412926E0,-1.800012860E0,1.059066410E0,7.154039601E0
9.655398333E0,-7.885442178E0,-2.078852102E0,-2.250172305E-1,8.157968936E0
9.665426333E0,-8.611347104E0,-2.383781767E0,-8.293807626E-1,8.973605012E0
9.675453333E0,-8.338068709E0,-2.873687807E0,-1.217279202E0,8.902990513E0
9.685480333E0,-6.842987123E0,-3.055468386E0,-1.837285790E0,7.716085724E0
9.695508333E0,-5.027128454E0,-2.759898944E0,-2.377470283E0,6.208174259E0
9.705535333E0,-2.656890008E0,-3.019471173E0,-2.645182713E0,4.813861471E0
9.715562333E0,-2.781766069E-1,-3.584213971E0,-2.202739107E0,4.216163136E0
9.725590333E0,1.437985280E0,-5.036192808E0,-1.209188409E0,5.375237323E0
9.735617333E0,1.259402251E0,-5.890055278E0,-4.959655094E-1,6.043577334E0
9.745644333E0,4.725862947E-1,-6.882209660E0,-7.300628811E-1,6.936940206E0
9.755672333E0,-1.026703826E-1,-7.498296275E0,-8.492425847E-1,7.546933232E0
9.765699333E0,-1.187002611E0,-7.224705639E0,-1.349077781E0,7.444820860E0
9.775726333E0,-2.298605085E0,-6.088234373E0,-2.231331992E0,6.879609406E0
9.785753333E0,-2.752070984E0,-4.861678564E0,-2.927818991E0,6.307292383E0
9.795781333E0,-2.331151856E0,-4.229550698E0,-2.840979652E0,5.603082497E0
9.805808333E0,-1.326235633E0,-4.416336786E0,-2.424766071E0,5.209838967E0
9.815835333E0,-1.616521239E-2,-4.662607183E0,-2.228345234E0,5.167754787E0
9.825863333E0,1.138799043E0,-4.610483934E0,-2.001537001E0,5.153598328E0
9.835890333E0,1.487380804E0,-4.442193466E0,-1.879686874E0,5.047633821E0
9.845917333E0,1.193337777E0,-4.313564077E0,-1.617574908E0,4.758932515E0
9.855945333E0,1.891090991E0,-3.852264955E0,-5.197777104E-1,4.322769863E0
9.865972333E0,1.695878188E0,-3.311967026E0,-6.803527772E-1,3.782592803E0
9.875999333E0,3.846336463E-1,-3.390526707E0,-1.374923644E0,3.678862517E0
9.886027333E0,3.758531749E-1,-3.700910947E0,-7.297576565E-1,3.790851314E0
9.896054333E0,1.145468962E0,-3.687499774E0,3.352688205E-1,3.875842993E0
9.906081333E0,1.596785717E0,-3.580164190E0,7.941068494E-1,3.999738234E0
9.916109333E0,9.989658040E-1,-3.564570251E0,7.448768020E-2,3.702653395E0
9.926136333E0,1.827903932E-1,-3.416559096E0,-6.514423889E-1,3.482910503E0
9.936163333E0,-2.287027305E-1,-3.165679046E0,-9.978162414E-1,3.327080704E0
9.946191333E0,-1.943672955E-1,-2.967527432E0,-1.446252074E0,3.306908340E0
9.956218333E0,-1.055241162E-1,-2.667407395E0,-1.818251349E0,3.229897137E0
9.966245333E0,-1.013401410E-1,-2.448152010E0,-1.826373716E0,3.056036492E0
9.976273333E0,-8.066000104E-2,-2.257998803E0,-1.300469878E0,2.606968840E0
9.986300333E0,-4.938967645E-2,-1.935985036E0,-9.058863169E-1,2.138014831E0
9.996327333E0,-2.868410110E-2,-1.545896814E0,-8.446957898E-1,1.761854340E0
1.000635533E1,1.772077641E-1,-1.440577351E0,-9.930104148E-1,1.758617463E0
1.001638233E1,5.038215360E-1,-1.371881922E0,-9.388915104E-1,1.737070355E0
1.002640933E1,5.637706992E-1,-1.280171269E0,-8.475732046E-1,1.635559909E0
1.003643733E1,5.215041009E-1,-1.056497144E0,-7.892834812E-1,1.418140034E0
1.004646433E1,3.043936215E-1,-9.714055377E-1,-7.759372115E-1,1.279985450E0
1.005649133E1,1.666231343E-1,-9.789654028E-1,-1.248464742E0,1.595243160E0
1.006651933E1,1.125283496E-1,-8.721987534E-1,-1.635804772E0,1.857215805E0
1.007654633E1,-3.062182452E-1,-6.059674233E-1,-1.265282503E0,1.435933823E0
1.008657333E1,-6.408717924E-1,-2.875637269E-1,-5.075488436E-1,8.666114354E-1
1.009660133E1,-6.512389058E-1,-2.768299931E-1,-1.068052411E-2,7.077153602E-1
1.010662833E1,-3.059391868E-1,-4.398942196E-1,-1.245392615E-1,5.501052064E-1
1.011665533E1,-9.730760872E-2,-4.365086818E-1,-3.895906234E-1,5.931184147E-1
1.012668233E1,-2.120191625E-1,-4.225250655E-1,-1.760941619E-1,5.044687405E-1
1.013671033E1,-4.501473123E-1,-5.220709884E-1,1.242182493E-2,6.894526970E-1
1.014673733E1,-4.722132424E-1,-5.086954826E-1,1.742142820E-1,7.156165568E-1
1.015676421E1,2.846570760E-2,-4.982792526E-1,6.176940143E-1,7.941274491E-1
1.016679221E1,2.797182253E-1,-5.245735967E-1,7.876638025E-1,9.868302841E-1
1.017681921E1,-6.336364478E-2,-2.468758768E-1,-2.841115308E-1,3.816831303E-1
1.018684621E1,-1.259963876E-1,3.735657442E-1,-4.756816353E0,4.773125629E0
1.019687421E1,9.148615006E-1,5.177066267E-2,-2.494527447E0,2.657502390E0
1.020690121E1,1.294440814E0,-3.530420172E-1,-9.962544501E-2,1.345414774E0
1.021692821E1,4.866653667E-1,-1.523024261E-2,2.127032282E0,2.182049832E0
1.022695621E1,-9.750508381E-1,2.287126708E-1,2.035152059E0,2.268232247E0
1.023698321E1,-1.897078832E0,5.290420389E-1,1.509948717E0,2.481680621E0
1.024701021E1,-1.542997619E0,7.200027466E-1,7.860014391E-1,1.875378327E0
1.025703821E1,-8.765289089E-1,8.067730880E-1,-1.619269431E-2,1.191405870E0