"Time (s)","Linear Acceleration x (m/s^2)","Linear Acceleration y (m/s^2)","Linear Acceleration z (m/s^2)","Absolute acceleration (m/s^2)"
3.341041622E-3,-9.357046317E-1,6.987473868E-2,-1.118066570E0,1.459622723E0
1.336804160E-2,-3.466995424E-1,3.650709093E-2,-5.686662805E-1,6.670192493E-1
2.339504159E-2,6.549495488E-2,-7.416988403E-2,4.047565466E-1,4.166756806E-1
3.342104168E-2,-1.321546751E-1,-2.499550936E-1,2.032372878E0,2.051945886E0
4.344804166E-2,-1.282936125E0,-6.178262345E-1,3.132988433E0,3.441402458E0
5.347504164E-2,-2.380767820E0,-1.137211743E0,2.406724488E0,3.571222301E0
6.350204162E-2,-3.039773290E0,-1.606018763E0,1.457838331E0,3.734275100E0
7.352904161E-2,-2.690947115E0,-1.785648444E0,1.546435343E0,3.580670190E0
8.355604159E-2,-1.081861780E0,-1.900736851E0,1.560882643E0,2.686927635E0
9.358304169E-2,9.211188984E-1,-1.885875567E0,8.973102057E-1,2.282575801E0
1.036100417E-1,9.378740948E-1,-1.205051943E0,4.732297808E-1,1.598657070E0
1.136370416E-1,7.911566368E-1,-1.387218292E-1,1.176127667E0,1.424236237E0
1.236640416E-1,2.282105996E0,1.077276321E0,-2.716546226E-1,2.538174203E0
1.336910416E-1,2.693295357E0,1.639118097E0,-1.525809875E0,3.502662386E0
1.437170416E-1,1.564097881E0,1.393431836E0,-5.118465471E-1,2.156395453E0
1.537440417E-1,1.115441609E0,9.433840723E-1,-1.441172597E0,2.052111582E0
1.637710417E-1,6.366974652E-1,5.198050462E-2,-2.427021927E0,2.509685452E0
1.737980417E-1,-4.523441112E-1,-5.993746146E-1,-1.448757021E0,1.631797178E0
1.838250416E-1,-7.772345625E-1,-7.478530347E-1,-2.679644448E-1,1.111387723E0
1.938520416E-1,-7.576652473E-1,-9.215062033E-1,-2.278127843E-1,1.214548877E0
2.038790416E-1,-1.096646465E0,-1.685949470E0,-8.570030093E-1,2.186209789E0
2.139060417E-1,-1.281829685E0,-1.704244092E0,-1.475172402E0,2.593003834E0
2.239330417E-1,-1.587973671E0,-1.253692883E0,-2.092046637E0,2.910337670E0
2.339600417E-1,-2.125583488E0,-8.888653645E-1,-2.427256985E0,3.346604738E0
2.439860416E-1,-1.662582534E0,-8.190683938E-1,-1.103934435E0,2.157249395E0
2.540130416E-1,5.242793356E-1,-4.155407126E-1,6.266864473E-1,9.166672290E-1
2.640400416E-1,1.368725011E0,4.182185181E-1,-3.726056314E-1,1.478901566E0
2.740670417E-1,7.180471453E-1,8.499711478E-1,8.529275000E-2,1.115937950E0
2.840940417E-1,8.836908710E-1,9.514209972E-1,3.485993028E-2,1.298971395E0
2.941210417E-1,2.357993208E0,1.050913272E0,-6.936429137E-1,2.673142563E0
3.041480416E-1,1.357875502E-1,6.929507495E-1,-3.471766752E-1,7.868612609E-1
3.141750416E-1,-1.846070647E0,9.880988999E-1,-2.808953868E0,3.503503689E0
3.242020416E-1,-1.748684539E0,1.925028231E0,-5.801606786E0,6.357851257E0
3.342290416E-1,9.209693559E-2,2.705861608E0,-4.500842208E0,5.252404161E0
3.442560417E-1,2.085285648E0,2.441484430E0,-1.772558282E0,3.667591215E0
3.542820417E-1,2.180259340E0,2.437292854E0,-5.881310767E-1,3.322623272E0
3.643090416E-1,2.267210653E0,2.220424303E0,-7.686334544E-1,3.265168544E0
3.743360416E-1,2.347002489E0,1.105458365E0,-1.768255901E0,3.139615870E0
3.843630416E-1,1.599019792E0,-1.467271060E-1,-2.830751703E0,3.254465907E0
3.943900416E-1,7.548314673E-1,-1.048213320E0,-4.124991957E0,4.322508572E0
4.044170417E-1,4.590942100E-1,-1.362805290E0,-5.344351013E0,5.534446088E0
4.144440417E-1,1.234245629E-1,-1.289252287E0,-5.593337150E0,5.741326115E0
4.244710417E-1,-2.115503620E-1,-1.332125680E0,-4.961016911E0,5.141108944E0
4.344980416E-1,8.949162094E-1,-1.875975939E0,-3.535258743E0,4.101001722E0
4.445250416E-1,2.890575736E0,-2.793504354E0,-1.135032266E0,4.177007650E0
4.545520416E-1,3.959422199E0,-3.243439120E0,1.472385035E0,5.325865109E0
4.645780417E-1,3.570842851E0,-3.160486134E0,3.112788641E0,5.694650507E0
4.746050417E-1,1.101834115E0,-2.928641402E0,3.354639421E0,4.587437686E0
4.846320417E-1,-1.265541535E0,-2.110406309E0,2.265408980E0,3.344770248E0
4.946590416E-1,-4.524987701E-1,-5.091734925E-1,-3.648627484E-1,7.727467939E-1
5.046860416E-1,-4.777186882E-1,-9.966837819E-1,-2.840604846E0,3.048053411E0
5.147130416E-1,-2.537623181E0,-2.117437586E0,-3.292412183E0,4.665088565E0
5.247400417E-1,-2.078552433E0,-2.421234061E0,-2.878800028E0,4.297702199E0
5.347670417E-1,-2.151003528E-1,-2.589414893E0,-1.721433152E0,3.116836497E0
5.447940417E-1,3.324834993E-1,-2.407632560E0,5.523408544E-1,2.492452656E0
5.548210416E-1,-3.300083730E-1,-2.732194252E0,2.931740718E0,4.021056403E0
5.648480416E-1,-4.722147042E-1,-3.090734991E0,3.976107228E0,5.058167475E0
5.748740416E-1,-1.238623878E0,-2.998697185E0,3.938282760E0,5.102591990E0
5.849010416E-1,-1.978610653E0,-2.768292915E0,3.085976819E0,4.593647647E0
5.949280417E-1,-2.014058229E0,-3.115522215E0,1.107946794E0,3.871750937E0
6.049550417E-1,-1.132179995E0,-2.434860120E0,2.107102048E0,3.413246897E0
6.149820416E-1,1.094095910E0,2.057719973E-1,4.924569461E0,5.048838713E0
6.250090416E-1,1.371700659E0,6.903029841E-1,3.370755517E0,3.704061779E0
6.350360416E-1,2.393084688E0,1.887741121E0,1.418735662E0,3.362027921E0
6.450630416E-1,8.727901407E0,3.759008882E0,-7.036317122E-1,9.528982545E0
6.550900417E-1,1.043494807E1,1.903846985E0,4.562818601E0,1.154695147E1
6.651170417E-1,6.731681280E0,3.679161059E0,5.703399290E0,9.559316001E0
6.751440417E-1,3.029929503E0,8.614425078E-1,4.786382214E0,5.729922398E0
6.851700416E-1,2.660377872E-1,-7.994962281E-1,3.248159285E0,3.355668199E0
6.951970416E-1,-5.749649012E-1,1.162338763E-1,1.647281102E0,1.748608012E0
7.052240416E-1,-6.338258976E-1,-6.028599206E-1,1.506628084E0,1.742154854E0
7.152510417E-1,-1.092931729E0,-6.225150436E-1,7.889987218E-1,1.484770597E0
7.252780417E-1,-1.092503128E0,-1.806280929E-1,-2.385897875E-1,1.132746520E0
7.353050417E-1,-1.218859704E0,1.556587279E-1,-1.627430974E0,2.039210679E0
7.453320416E-1,-1.435408997E0,4.256328607E-1,-2.850380806E0,3.219663501E0
7.553590416E-1,-5.821154612E-1,3.902051657E-1,-2.181109672E0,2.290929480E0
7.653860416E-1,-3.299975556E-1,-2.113300681E-2,-9.498217106E-1,1.005736682E0
7.754130416E-1,-4.992808807E-1,-8.757538605E-1,-3.631588697E-1,1.071499224E0
7.854400417E-1,-3.484922987E-1,-1.597218996E0,-7.594071329E-2,1.636558094E0
7.954660417E-1,-2.600977762E0,-1.989387656E0,-4.546578544E-1,3.305973734E0
8.054930416E-1,-5.042577383E0,-2.461820462E0,-1.303543759E0,5.760848287E0
8.155200416E-1,-2.605690618E0,-1.836304627E0,-1.940158778E-1,3.193631231E0
8.255470416E-1,1.430870388E0,6.843809241E-1,1.175360513E0,1.974142764E0
8.355740416E-1,2.748612941E0,1.414426556E0,1.430263447E0,3.406043028E0
8.456010417E-1,8.279119420E-1,4.246750867E-1,1.312285931E0,1.608689367E0
8.556280417E-1,-3.148844912E0,-1.618108174E0,2.850610601E0,4.545269975E0
8.656549166E-1,4.037631631E0,-1.284241515E0,5.114660688E0,6.641648848E0
8.756819166E-1,1.215080064E0,3.284421962E-1,3.491691724E0,3.711631034E0
8.857089167E-1,-5.129496244E0,-2.091962437E0,1.075792370E0,5.643170011E0
8.957349167E-1,-1.646818002E0,-1.948424402E0,1.604881772E0,3.013969590E0
9.057619167E-1,-1.248203371E0,6.779700369E-1,1.995877481E0,2.449730995E0
9.157889166E-1,-1.726656470E0,4.642350090E-1,9.358416027E-1,2.018082311E0
9.258159166E-1,-1.907704393E0,-2.257083714E-1,6.740564954E-1,2.035837046E0
9.358429166E-1,-1.532239473E-1,1.517821993E0,2.013582558E0,2.526217706E0
9.458699166E-1,7.200980562E-1,2.108349844E0,3.085156747E0,3.805505541E0
9.558969167E-1,1.323814301E0,1.630991344E0,1.737660930E0,2.726184619E0
9.659239167E-1,3.288096353E0,2.943544493E0,6.666164982E-1,4.463228580E0
9.759509166E-1,2.472871699E0,4.865409088E0,9.304346824E-1,5.536515938E0
9.859779166E-1,1.412000254E0,4.448968050E0,-9.507803616E-1,4.763511806E0
9.960049166E-1,2.601557221E0,3.809224185E0,-1.487394837E0,4.846713554E0
1.006030917E0,-4.471903753E-1,3.254316403E0,4.945574999E-3,3.284901664E0
1.016057917E0,1.767145514E-1,3.224364626E0,-3.708132551E0,4.917113207E0
1.026084917E0,1.138226600E0,2.763118129E0,-7.095397974E0,7.699029419E0
1.036111917E0,3.180399996E-1,3.128147523E0,-7.722009577E0,8.337618861E0
1.046138917E0,-8.684401631E-1,3.027179557E0,-5.157514347E0,6.043009070E0
1.056165917E0,-2.356408612E0,2.926591660E0,-4.105019038E0,5.564960161E0
1.066192917E0,-3.243123663E0,2.661998720E0,-2.841677225E0,5.067466599E0
1.076219917E0,-4.161907184E0,1.071950165E0,-1.822956018E0,4.668374150E0
1.086246917E0,-2.296303913E0,2.304452008E-1,-1.031931967E0,2.528042768E0
1.096273917E0,1.612615884E0,-7.649853766E-2,-1.455685533E0,2.173799068E0
1.106300917E0,2.206326959E0,1.846012759E-1,-9.883304496E-1,2.424614063E0
1.116326917E0,-5.149935186E-1,1.365321931E0,-1.139517081E0,1.851437679E0
1.126353917E0,-3.245015822E0,1.684188142E0,-2.133348445E0,4.232941409E0
1.136380917E0,-1.752127526E0,2.568641490E0,-3.659809699E0,4.802299137E0
1.146407917E0,4.467991966E-1,2.823815736E0,-3.032169571E0,4.167447317E0
1.156434917E0,5.829055955E0,2.619270777E0,-4.739928424E-1,6.408052898E0
1.166461917E0,8.539232808E0,8.409336913E-1,1.235449424E0,8.669025419E0
1.176488917E0,8.241986677E0,9.559495926E-2,2.758697634E0,8.691944283E0
1.186515917E0,6.528142042E0,-4.557243866E-1,2.506521256E0,7.007636694E0
1.196542917E0,5.503716876E0,1.805055937E-1,-1.656156006E0,5.750333419E0
1.206569917E0,1.366988972E0,-6.117006183E-1,8.818198351E-1,1.737942093E0
1.216596917E0,1.392592760E0,-1.397406188E0,3.787709355E-2,1.973193687E0
1.226622917E0,1.871353422E0,-4.185249853E-1,-3.693187945E0,4.161341610E0
1.236649917E0,4.347520612E0,7.045994264E0,-5.920533890E0,1.017839340E1
1.246676917E0,4.563855897E0,7.425972065E0,-2.401140397E0,9.040979867E0
1.256703917E0,4.380204794E0,3.668278221E0,-7.960085101E-1,5.768543030E0
1.266730917E0,3.088168940E0,1.748417175E0,2.421148253E0,4.296010810E0
1.276757917E0,-7.874152958E-2,-1.520736246E0,4.085306904E0,4.359882046E0
1.286784917E0,3.009152591E-1,-1.509463545E0,5.849961505E0,6.049056108E0
1.296811917E0,-1.171389084E0,-1.782827162E0,4.751128181E0,5.208055690E0
1.306838917E0,-3.739863344E0,-3.293241903E0,4.380650936E0,6.634916931E0
1.316865917E0,-2.809328089E0,-2.068529136E0,2.755602118E0,4.445726052E0
1.326892917E0,-3.171905161E0,-2.359115142E0,-2.101175018E-1,3.958605306E0
1.336918917E0,-3.464150169E0,-2.636734948E0,-3.546329277E0,5.615083162E0
1.346945917E0,-1.566129935E0,-9.314433271E-1,-3.475745198E0,3.924430446E0
1.356972917E0,-3.949055670E0,-7.810833460E-1,-2.188178809E0,4.581840065E0
1.366999917E0,-3.453163835E0,9.024026920E-1,-3.929092106E-1,3.590689173E0
1.377026917E0,-1.245539380E0,5.119822025E-2,1.369157997E0,1.851643385E0
1.387053917E0,1.627630949E-2,-1.841814458E0,1.966921192E0,2.694684470E0
1.397080917E0,-3.235322893E-1,-1.845627135E0,2.145507437E0,2.848546090E0
1.407107917E0,-1.979225196E0,-9.850943081E-1,7.955440950E-1,2.349602855E0
1.417134917E0,-2.574025022E0,-1.134550017E0,3.746515721E-1,2.837811191E0
1.427161917E0,-2.176230170E0,-2.286309413E0,-6.165511760E-1,3.216103829E0
1.437188917E0,-1.866624194E-1,-3.904662732E0,-1.054753504E0,4.048918233E0
1.447214917E0,-6.950029761E-1,-2.898368028E0,-2.223739967E-1,2.988815243E0
1.457241917E0,9.084327793E-1,-2.580477717E0,2.085269129E0,3.439834691E0
1.467268917E0,1.706570699E0,-3.654258353E-1,1.620520735E0,2.381597582E0
1.477295917E0,1.693381135E0,1.691596565E0,-3.365283108E-1,2.417082934E0
1.487322917E0,1.167678441E0,1.443115335E0,5.359654346E-1,1.932178500E0
1.497349917E0,1.133033688E0,1.555504082E0,1.634111126E-1,1.931336708E0
1.507376917E0,8.410518050E-2,9.081120595E-1,-1.490801279E0,1.747635445E0
1.517403917E0,-1.049619064E0,3.380746070E-1,-2.563232231E0,2.790368092E0
1.527430917E0,-1.551970317E0,6.927693397E-2,-2.906924258E0,3.296000577E0
1.537457917E0,-7.233204567E-1,3.463452011E-2,-1.427891232E0,1.601020113E0
1.547484917E0,3.023180062E-1,-6.821946502E-3,2.117070966E0,2.138558437E0
1.557510917E0,7.686106503E-2,5.196128190E-1,3.217771598E0,3.260361814E0
1.567537917E0,3.560363764E-1,-3.009795785E-2,4.298396984E0,4.313222047E0
1.577564917E0,1.344488302E0,-5.329772151E-1,5.133006327E0,5.332866721E0
1.587591917E0,1.828701493E0,-8.995578754E-1,3.881596928E0,4.384078949E0
1.597618917E0,1.514051709E0,-1.012206824E0,1.817024311E0,2.572643111E0
1.607645917E0,1.020032737E0,-3.557633114E-1,1.429790407E-2,1.080388240E0
1.617672917E0,1.087395585E0,-6.964864147E-1,-3.051137646E0,3.313150075E0
1.627699917E0,1.522372296E0,-1.673259696E0,-3.678639195E0,4.318541623E0
1.637726917E0,1.245801920E0,-1.357211843E0,-1.109520572E0,2.150600453E0
1.647753917E0,2.736385828E-1,-2.148396254E0,-7.123893794E-1,2.279908587E0
1.657779917E0,1.361575035E0,-2.039176698E0,-2.682310778E-1,2.466592000E0
1.667806917E0,1.431069193E0,-7.134532803E-1,7.265682927E-1,1.756381537E0
1.677833917E0,1.250020686E0,-8.086699247E-3,1.721377603E0,2.127382891E0
1.687860917E0,6.693027091E-1,5.953167200E-1,1.840502051E0,2.046903982E0
1.697887917E0,-5.012701035E-2,1.384686155E0,1.380379389E0,1.955841436E0
1.707914917E0,-8.116648686E-1,2.332421579E0,6.880898130E-1,2.563680533E0
1.717941917E0,-1.311235186E0,2.793392088E0,3.865608886E-2,3.086077018E0
1.727968917E0,-1.548602906E0,2.562193766E0,-4.135373104E-1,3.022254284E0
1.737995917E0,-1.059123420E0,1.999269451E0,5.083208223E-1,2.318881372E0
1.748022917E0,-2.288627688E0,2.201833373E0,9.831495242E-1,3.324525513E0
1.758049917E0,-3.053916535E0,2.688050990E0,6.918272071E-1,4.126820715E0
1.768075917E0,-2.331968128E0,2.526966045E0,8.330178769E-1,3.538015196E0
1.778102917E0,-1.561075894E0,2.693945568E0,1.296830571E-1,3.116266735E0
1.788129917E0,-8.280408731E-1,3.756873479E0,-1.197970599E0,4.029253477E0
1.798156917E0,1.948251325E-1,5.414589522E0,-1.849772519E0,5.725154574E0
1.808183917E0,1.168861625E0,5.141578345E0,-5.336554921E-1,5.299703158E0
1.818210917E0,1.110223992E0,3.420245765E0,-1.016656555E0,3.736879575E0
1.828237917E0,2.477704423E0,-2.054647261E-1,-7.869913727E-1,2.607794160E0
1.838264917E0,2.623259455E0,-5.482931778E0,-1.967172915E-1,6.081342676E0
1.848291917E0,4.445018256E-1,-6.499257966E0,1.087473353E0,6.604584338E0
1.858319167E0,-9.145066477E-1,-5.915746774E0,2.274661614E0,6.403629265E0
1.868346167E0,-2.277261286E0,-6.875284803E0,2.580804284E0,7.688693701E0
1.878372167E0,-3.671611134E0,-7.415551157E0,1.013943447E0,8.336618535E0
1.888399167E0,-4.271706199E0,-5.541767632E0,1.388854051E-1,6.998424929E0
1.898426167E0,-2.466671604E0,-2.183131639E0,9.285624770E-1,3.422391098E0
1.908453167E0,-1.656290784E0,-1.044431999E0,-7.285513759E-2,1.959450237E0
1.918480167E0,-1.161834587E0,-3.783967137E-1,-2.339576379E0,2.639443372E0
1.928507167E0,-9.001437664E-1,1.990006292E-1,-4.259232334E0,4.357857286E0
1.938534167E0,-1.330916037E0,4.384218907E-1,-6.002985477E0,6.164364192E0
1.948561167E0,-1.883449557E0,9.940219831E-1,-4.732088478E0,5.189231475E0
1.958588167E0,-1.319450232E0,1.455901734E0,-2.375419226E0,3.082728543E0
1.968615167E0,3.134098819E-1,1.608882437E0,6.370623314E-1,1.758572394E0
1.978642167E0,3.099600247E-1,1.133503804E0,4.819485641E-1,1.270110432E0
1.988668167E0,-1.050440305E0,-7.190730393E-2,-1.128253882E-1,1.058926373E0
1.998695167E0,-1.820646661E0,-4.690747494E-1,-1.039411433E0,2.148292697E0
2.008722167E0,-2.154578223E0,-5.736644804E-1,-1.873393954E0,2.912199025E0
2.018749167E0,-2.258896058E0,-2.357702601E-1,-2.038034006E0,3.051521199E0
2.028776167E0,-1.920236438E0,2.866398668E-1,-1.284860151E0,2.328161506E0
2.038803167E0,-1.264145220E0,5.116126585E-1,-3.004525982E-1,1.396453513E0
2.048830167E0,-7.386755374E-1,4.530212188E-1,5.186829655E-1,1.009901873E0
2.058857167E0,-4.913006008E-2,2.442311811E-1,6.505425024E-1,6.966119293E-1
2.068884167E0,6.928184563E-1,-1.703615516E-1,6.300620449E-1,9.518396147E-1
2.078911167E0,1.674098772E0,-3.515509772E-1,1.076044824E0,2.020907531E0
2.088938167E0,1.783226527E0,3.148667157E-2,8.594718499E-1,1.979792948E0
2.098964167E0,1.647679005E0,2.319239616E-1,2.557376245E-1,1.683459700E0
2.108991167E0,1.234747174E0,2.323835528E-1,-3.309114754E-1,1.299270989E0
2.119018167E0,1.080558436E0,2.029860914E-1,-9.334892678E-1,1.442294041E0
2.129045167E0,1.061727478E0,3.788375938E-1,-1.366318882E0,1.771330135E0
2.139072167E0,6.900312348E-1,3.895654804E-1,-1.448459251E0,1.651041663E0
2.149099167E0,2.450978847E-1,4.073936409E-1,-1.179738469E0,1.271937659E0
2.159126167E0,-2.612272829E-2,5.954225546E-1,-8.605581164E-1,1.046790661E0
2.169153167E0,-2.892629278E-1,7.012688524E-1,-9.472524440E-1,1.213564270E0
2.179180167E0,-5.437372613E-1,8.335393023E-1,-1.107498020E0,1.488955957E0
2.189207167E0,-4.632667100E-1,1.033016480E0,-1.290643778E0,1.716828603E0
2.199234167E0,-4.781955287E-1,1.195867283E0,-1.316714612E0,1.841875916E0
2.209260167E0,-5.489339742E-1,1.361039430E0,-1.296463366E0,1.958206858E0
2.219287167E0,-5.588172305E-1,1.592549409E0,-1.284067268E0,2.120688348E0
2.229314167E0,-4.611117187E-1,1.692500544E0,-1.231402566E0,2.143253226E0
2.239341167E0,-3.425968435E-1,1.726764643E0,-1.141614769E0,2.098183265E0
2.249368167E0,-1.434403861E-1,1.783408375E0,-1.064397609E0,2.081841216E0
2.259395167E0,3.027045071E-2,1.749561183E0,-1.065512088E0,2.048706090E0
2.269422167E0,2.250941214E-1,1.554850071E0,-1.042850619E0,1.885673228E0
2.279449167E0,4.951811054E-1,1.316935052E0,-9.960436580E-1,1.723840256E0
2.289476167E0,8.360268541E-1,1.086414422E0,-9.670470232E-1,1.677622467E0
2.299503167E0,1.159193400E0,7.914089441E-1,-1.139291378E0,1.807772746E0
2.309529167E0,1.319259028E0,6.261379784E-1,-1.293299145E0,1.950670610E0
2.319556167E0,1.839486389E0,5.877819979E-1,-1.695254875E0,2.569647241E0
2.329583167E0,2.162587593E0,3.995928705E-2,-2.021672181E0,2.960665507E0
2.339610167E0,2.267343677E0,-2.153623080E-1,-2.680767405E0,3.517633033E0
2.349637167E0,2.536341763E0,-5.691293800E-1,-3.176508382E0,4.104527170E0
2.359664167E0,2.538975057E0,-7.194905305E-1,-3.301302582E0,4.226423985E0
2.369691167E0,2.307981972E0,-5.779586756E-1,-3.211080629E0,3.996480429E0
2.379718167E0,1.881364294E0,-1.794966567E-1,-2.868523839E0,3.435138959E0
2.389745167E0,1.203806925E0,4.397375143E-1,-2.190145374E0,2.537569103E0
2.399772167E0,5.392778823E-1,1.031548244E0,-1.659514647E0,2.027042495E0
2.409799167E0,-2.231288722E-1,1.303917981E0,-1.501620528E0,2.001212833E0
2.419825167E0,-6.831142710E-1,1.298034512E0,-1.805369640E0,2.326133754E0
2.429852167E0,-6.744250162E-1,9.910936975E-1,-2.507194855E0,2.779054131E0
2.439879167E0,-9.028747085E-1,1.007767618E-1,-3.203965737E0,3.330275535E0
2.449906167E0,-1.716853759E0,-1.698534286E0,-3.413806812E0,4.181708084E0
2.459933167E0,-2.429727726E0,-4.142654641E0,-2.864016513E0,5.591757763E0
2.469960167E0,-2.027101320E0,-5.807320100E0,-1.191569725E0,6.265296874E0
2.479987167E0,-2.336068488E0,-5.618279618E0,2.345283115E-1,6.089112035E0
2.490014167E0,-3.578074395E0,-3.863065932E0,8.983686979E-1,5.341625323E0
2.500041167E0,-3.793230004E0,-1.309823669E0,1.833981674E0,4.412224007E0
2.510068167E0,-3.279318513E0,8.899813056E-1,2.654919204E0,4.312144781E0
2.520095167E0,-2.957061794E0,2.333039630E0,3.014286447E0,4.824231664E0
2.530121167E0,-2.641256892E0,3.233811387E0,3.379872496E0,5.371900236E0
2.540148167E0,-1.944026127E0,3.893503613E0,3.884110353E0,5.833088479E0
2.550175167E0,-1.757891565E0,3.742717955E0,4.354111009E0,6.004698421E0
2.560202167E0,-1.195486775E0,3.638256862E0,4.672253920E0,6.041196762E0
2.570229167E0,-3.464671156E-1,2.867424270E0,4.626816669E0,5.454318829E0
2.580256167E0,4.462121361E-1,1.388094497E0,4.340443143E0,4.578794413E0
2.590283167E0,1.247518808E0,-1.057391183E0,4.398626447E0,4.692791697E0
2.600310167E0,2.027209348E0,-2.726617470E0,4.292800907E0,5.474683570E0
2.610337167E0,2.578163096E0,-3.487330871E0,3.929565146E0,5.852340027E0
2.620364167E0,3.429104297E0,-3.833517612E0,3.180525126E0,6.047342693E0
2.630390167E0,4.362661977E0,-4.929587542E0,2.260463405E0,6.960125550E0
2.640417167E0,3.407435685E0,-5.467193998E0,1.674584091E0,6.656204627E0
2.650444167E0,2.832060894E0,-4.235106722E0,8.424142063E-1,5.163948059E0
2.660471167E0,2.659582651E0,-2.068627369E0,-3.504411392E-1,3.387537167E0
2.670498167E0,2.577214678E0,-3.722395957E-1,-1.839275597E0,3.188029569E0
2.680525167E0,2.138030310E0,4.674234957E-1,-3.084221485E0,3.781809157E0
2.690552167E0,1.236255171E0,1.079367943E0,-3.501290513E0,3.866832976E0
2.700579167E0,4.092055468E-1,1.524546876E0,-3.400392129E0,3.748914375E0
2.710606167E0,-2.577838576E-1,1.881743925E0,-3.036596498E0,3.581665954E0
2.720633167E0,-5.271245907E-1,2.127222317E0,-2.325185065E0,3.195218413E0
2.730660167E0,-4.867638923E-1,2.004881024E0,-1.326934376E0,2.453006695E0
2.740686167E0,-1.955741608E-1,1.896031011E0,-5.546972823E-1,1.985162946E0
2.750713167E0,2.342799510E-1,1.814115613E0,-1.311395254E-1,1.833875712E0
2.760740167E0,6.359031209E-1,1.715419291E0,-5.223025382E-2,1.830236084E0
2.770767167E0,8.740966134E-1,1.765476719E0,1.334346306E-1,1.974527218E0
2.780794167E0,9.673709589E-1,1.766401164E0,3.028688139E-1,2.036592537E0
2.790821167E0,1.165872821E0,1.547803591E0,2.584960485E-1,1.954936213E0
2.800848167E0,1.379271049E0,1.303105218E0,1.020304048E-1,1.900232101E0
2.810875167E0,1.408018300E0,8.063924342E-1,-2.268585187E-1,1.638367809E0
2.820902167E0,1.314722904E0,1.926540613E-1,-7.224591619E-1,1.512467898E0
2.830929167E0,1.474016992E0,-2.579417324E-1,-1.470116900E0,2.097737765E0
2.840956167E0,1.642358039E0,-5.541616774E-1,-2.252173368E0,2.841957068E0
2.850982167E0,1.490428226E0,-6.616311622E-1,-2.833430312E0,3.269168002E0
2.861008667E0,1.328293561E0,-6.784383988E-1,-3.261951697E0,3.586777289E0
2.871035667E0,1.325595071E0,-5.559930253E-1,-3.385932550E0,3.678433059E0
2.881062667E0,1.274606327E0,-3.333497643E-1,-3.155141194E0,3.419160615E0
2.891089667E0,1.309171850E0,-1.669730902E-1,-2.577765486E0,2.895977528E0
2.901116667E0,1.414981164E0,-8.979744494E-2,-1.793874891E0,2.286530648E0
2.911143667E0,1.480080263E0,-1.414102328E-1,-1.061712275E0,1.826983140E0
2.921170667E0,1.528330317E0,-2.898552507E-1,-7.009051555E-1,1.706188050E0
2.931197667E0,1.548413164E0,-4.739910883E-1,-7.423034424E-1,1.781366127E0
2.941224667E0,1.505079449E0,-5.962704009E-1,-8.065397841E-1,1.808676024E0
2.951250667E0,1.586604984E0,-7.543703413E-1,-9.260890317E-1,1.985958429E0
2.961277667E0,1.552996065E0,-8.453460002E-1,-1.100998694E0,2.082931771E0
2.971304667E0,1.464809382E0,-1.009872615E0,-1.225169727E0,2.160219916E0
2.981331667E0,1.438364180E0,-1.266896335E0,-1.315242283E0,2.324603214E0
2.991358667E0,1.531674193E0,-1.561711194E0,-1.514364096E0,2.660501138E0
3.001385667E0,1.623884346E0,-1.792074534E0,-1.628509493E0,2.915574501E0
3.011412667E0,1.661128624E0,-1.984853141E0,-1.674705713E0,3.082795731E0
3.021439667E0,1.739220821E0,-2.035123993E0,-1.822755020E0,3.238680996E0
3.031466667E0,1.710490088E0,-2.018492172E0,-2.023314663E0,3.330749048E0
3.041493667E0,1.516183603E0,-2.073306895E0,-2.241500884E0,3.409067382E0
3.051520667E0,1.158632652E0,-2.259411491E0,-2.534986671E0,3.587969806E0
3.061546667E0,7.169592708E-1,-2.621312624E0,-2.945525529E0,4.007671533E0
3.071573667E0,6.372229837E-1,-3.051505144E0,-3.395169981E0,4.609220756E0
3.081600667E0,1.088889841E0,-3.495836231E0,-3.641306185E0,5.163880592E0
3.091627667E0,1.779609001E0,-3.885857794E0,-3.586331248E0,5.579307377E0
3.101654667E0,2.352741677E0,-4.101058134E0,-3.394887561E0,5.820595568E0
3.111681667E0,2.804070565E0,-3.927632641E0,-3.208845531E0,5.795325663E0
3.121708667E0,2.998560068E0,-3.349830086E0,-3.305593561E0,5.580293261E0
3.131735667E0,2.898340838E0,-2.755624337E0,-4.135488878E0,5.752922159E0
3.141762667E0,2.955894982E0,-2.533930079E0,-5.062633333E0,6.386577569E0
3.151789667E0,2.489481885E0,-2.706342834E0,-5.167257562E0,6.342110241E0
3.161816667E0,1.199964573E0,-3.211843398E0,-3.113933526E0,4.631677342E0
3.171842667E0,2.440850008E-1,-3.795754539E0,-8.202591062E-2,3.804478711E0
3.181869667E0,2.804375059E-1,-3.852611110E0,2.484008306E0,4.592554281E0
3.191896667E0,1.281641697E-1,-3.825352560E0,3.626942500E0,5.272993473E0
3.201923667E0,-5.000714242E-2,-3.516468131E0,3.947580417E0,5.286912141E0
3.211950667E0,-5.921346653E-1,-2.916553745E0,4.261771195E0,5.198038373E0
3.221977667E0,-2.072512844E0,-2.783682786E0,4.612869598E0,5.772587398E0
3.232004667E0,-3.902589017E0,-2.916965389E0,6.798964605E0,8.364496866E0
3.242031667E0,-4.147719499E0,-2.721076064E0,8.766995891E0,1.007313501E1
3.252058667E0,-2.429134380E0,-2.137586507E0,6.388407036E0,7.161125217E0
3.262085667E0,-9.141160537E-1,-1.322992183E0,3.191473453E0,3.573712254E0
3.272111667E0,-1.551226844E-1,-4.262953502E-1,1.413270854E0,1.484292855E0
3.282138667E0,-2.836360060E-1,4.486977875E-1,1.377604008E-1,5.484131804E-1
3.292165667E0,-5.817443823E-1,8.531719136E-1,4.524964312E-1,1.127422663E0
3.302192667E0,-5.877572203E-1,1.049155964E0,1.477542571E0,1.905077121E0
3.312219667E0,-1.809299554E-1,1.237624589E0,2.473250599E0,2.771537262E0
3.322246667E0,-1.353741521E-1,1.559014458E0,3.010384015E0,3.392825395E0
3.332273667E0,7.975214772E-2,1.856934773E0,3.186777847E0,3.689189640E0
3.342300667E0,1.199224462E-1,1.858298929E0,3.777930472E0,4.211937197E0
3.352327667E0,5.979745353E-1,2.059575294E0,4.132214145E0,4.655600679E0
3.362354667E0,8.167363049E-1,2.172831768E0,4.327210894E0,4.910499995E0
3.372380667E0,3.999890193E-1,2.211653772E0,4.399068789E0,4.939960509E0
3.382407667E0,-4.656868726E-2,2.693495917E0,4.667091998E0,5.388769490E0
3.392434667E0,-4.717213453E-1,3.649967666E0,4.976147751E0,6.189251281E0
3.402461667E0,-1.003803352E0,4.792921155E0,5.026951284E0,7.017831116E0
3.412488667E0,-1.519877874E0,5.766094306E0,4.701214010E0,7.593371153E0
3.422515667E0,-1.898104726E0,6.461888410E0,4.268990167E0,7.973899951E0
3.432542667E0,-2.195371031E0,6.962578470E0,3.793911497E0,8.227449019E0
3.442569667E0,-2.358814157E0,7.185673136E0,3.246700405E0,8.230368531E0
3.452596667E0,-2.336272848E0,7.193604884E0,2.540251797E0,7.978659113E0
3.462623667E0,-2.262963382E0,7.035490326E0,1.608241874E0,7.563436343E0
3.472650667E0,-2.204992332E0,6.690359007E0,4.675407323E-1,7.059850505E0
3.482676667E0,-2.024556027E0,6.018246710E0,-6.899556595E-1,6.387030561E0
3.492703667E0,-1.687632737E0,4.999313250E0,-2.269875960E0,5.744003316E0
3.502730667E0,-1.251101544E0,3.454081848E0,-4.860226993E0,6.092433250E0
3.512757667E0,-4.715249520E-1,9.078901577E-1,-8.181937526E0,8.245647458E0
3.522784667E0,5.601835055E-1,-3.082004220E0,-9.726216416E0,1.021821126E1
3.532811667E0,1.684105697E0,-7.964069687E0,-8.578655906E0,1.182607099E1
3.542838667E0,2.741429052E0,-1.130540669E1,-6.864551069E0,1.350739483E1
3.552865667E0,3.240341850E0,-1.153701023E1,-5.406913297E0,1.314675366E1
3.562892667E0,3.606652662E0,-9.504814519E0,-3.984502076E0,1.091905212E1
3.572919667E0,3.343798099E0,-6.533209823E0,-2.570209129E0,7.776232461E0
3.582945667E0,2.156081250E0,-3.726298388E0,-1.716774091E0,4.634792262E0
3.592972667E0,9.473050690E-1,-1.615400328E0,-1.143495819E0,2.194194112E0
3.602999667E0,1.264702313E-1,-2.961252201E-1,-6.976450405E-1,7.683706578E-1
3.613026667E0,-1.425138582E-1,-6.197756231E-2,2.474076810E-1,2.921677235E-1
3.623053667E0,1.850912726E-1,7.421110690E-2,2.578873533E0,2.586572011E0
3.633080667E0,4.655433235E-1,4.684625459E-1,2.746108578E0,2.824411455E0
3.643107667E0,-7.310070237E-2,9.579791611E-1,2.555807729E0,2.730425046E0
3.653134667E0,-7.207535291E-1,8.567428082E-1,1.644004322E0,1.989030945E0
3.663161667E0,-2.777901059E0,2.415186578E-1,3.873748210E-1,2.815159820E0
3.673188667E0,-5.113384826E0,-5.878328687E-1,3.217234531E-1,5.157107507E0
3.683215667E0,-6.386411381E0,-1.122460753E0,1.825882258E0,6.736468993E0
3.693241667E0,-6.364900060E0,-1.186357371E0,4.244913672E0,7.742008051E0
3.703268667E0,-5.796049007E0,-1.041594345E0,6.044821136E0,8.439132979E0
3.713295667E0,-5.354111770E0,-7.903973758E-1,5.895305493E0,8.002866219E0
3.723322667E0,-4.927283739E0,-1.731968665E-1,4.677802927E0,6.796319771E0
3.733349667E0,-4.025650979E0,7.415655237E-1,4.146872238E0,5.826863186E0
3.743376667E0,-3.004185089E0,1.726037834E0,3.780146274E0,5.127751994E0
3.753403667E0,-2.306106331E0,2.511529981E0,3.809522393E0,5.112569816E0
3.763430667E0,-1.645846341E0,2.775851610E0,3.978859805E0,5.123035008E0
3.773457667E0,-9.400174648E-1,2.415392985E0,4.060585461E0,4.817272090E0
3.783484667E0,2.217267099E-1,1.691003072E-1,4.780584992E0,4.788710736E0
3.793511667E0,2.130098855E0,-4.399895293E0,6.798432509E0,8.373475043E0
3.803537667E0,4.088301848E0,-6.790325344E0,7.401370490E0,1.084449240E1
3.813564667E0,5.126235251E0,-6.792737905E0,7.501760166E0,1.134442514E1
3.823591667E0,5.694403934E0,-4.987600107E0,6.105846187E0,9.725417659E0
3.833618667E0,5.453434330E0,-2.616464698E0,2.654306123E0,6.605389807E0
3.843645667E0,4.191321602E0,-5.531734979E-1,-1.504704934E0,4.487461936E0
3.853672667E0,2.104398588E0,1.379310225E0,-5.433205887E0,5.987546770E0
3.863699833E0,7.358155181E-1,2.441708379E0,-7.052543145E0,7.499448587E0
3.873726833E0,5.049025400E-1,2.742737074E0,-6.401541052E0,6.982639979E0
3.883753833E0,4.294234644E-1,2.583082359E0,-4.619358838E0,5.309914788E0
3.893780833E0,-9.883563235E-2,2.234532757E0,-2.660846819E0,3.476062560E0
3.903806833E0,-5.543332200E-1,1.914366125E0,-1.851045458E0,2.720009608E0
3.913833833E0,-6.182228950E-1,1.649643377E0,-1.843906592E0,2.550198882E0
3.923860833E0,-4.205255371E-1,1.688087651E0,-1.536913737E0,2.321332694E0
3.933887833E0,-2.335258795E-1,1.523937011E0,-6.086589332E-1,1.657523468E0
3.943914833E0,2.174335380E-1,1.730906811E0,7.249126536E-1,1.889130511E0
3.953941833E0,3.616142546E-1,2.032168810E0,1.323019080E0,2.451704392E0
3.963968833E0,5.415540572E-1,2.194850628E0,1.424031485E0,2.671800095E0
3.973995833E0,1.415891576E-1,2.000217869E0,1.064144132E0,2.270092894E0
3.984022833E0,-2.865893615E-1,1.623256062E0,5.738064947E-1,1.745378927E0
3.994049833E0,-7.348971397E-1,1.199671481E0,2.993043512E-4,1.406870839E0
4.004076833E0,-1.381942934E0,7.075113398E-1,-8.039482981E-1,1.748333903E0
4.014102833E0,-2.144452892E0,4.011482298E-1,-1.369220270E0,2.575725578E0
4.024129833E0,-2.404788182E0,2.280332243E-1,-1.890801408E0,3.067594386E0
4.034156833E0,-1.462153723E0,-5.487319529E-2,-2.616841843E0,2.998127050E0
4.044183833E0,4.380663800E-1,-7.039246577E-1,-3.555137522E0,3.650536245E0
4.054210833E0,2.305656242E0,-1.410664165E0,-3.693696653E0,4.577053534E0
4.064237833E0,3.738079651E0,-2.003832033E0,-3.377873917E0,5.422048920E0
4.074264833E0,4.454251594E0,-2.635960484E0,-3.181781108E0,6.075555609E0
4.084291833E0,4.903877919E0,-3.006769266E0,-2.825955232E0,6.408954910E0
4.094318833E0,5.518106289E0,-2.927075225E0,-2.309891819E0,6.659794787E0
4.104345833E0,6.233530081E0,-2.822222369E0,-1.762753671E0,7.066055256E0
4.114372833E0,6.338568293E0,-2.638821527E0,-1.603737764E0,7.050730592E0
4.124398833E0,5.896572585E0,-2.312729326E0,-1.956386702E0,6.629157873E0
4.134425833E0,4.686708822E0,-2.227759343E0,-2.641691925E0,5.822944916E0
4.144452833E0,3.319819252E0,-2.458063041E0,-2.897014982E0,5.045390925E0
4.154479833E0,2.352010921E0,-2.994592440E0,-2.907769473E0,4.791102437E0
4.164506833E0,1.854660937E0,-3.627061783E0,-3.212355614E0,5.187925690E0
4.174533833E0,1.803477627E0,-4.049078141E0,-3.720572795E0,5.787074154E0
4.184560833E0,1.993445770E0,-4.046244580E0,-3.896204149E0,5.960396632E0
4.194587833E0,2.447182981E0,-3.902718825E0,-3.729531898E0,5.926999827E0
4.204614833E0,2.792622010E0,-3.752456492E0,-3.671657327E0,5.946489296E0
4.214641833E0,2.625494553E0,-3.352223352E0,-3.966632400E0,5.819346668E0
4.224667833E0,1.929044391E0,-2.991690466E0,-4.153874863E0,5.470475344E0
4.234694833E0,1.397150373E0,-3.192116647E0,-3.673996798E0,5.063584731E0
4.244721833E0,1.122901779E0,-3.752564666E0,-2.379024619E0,4.582838434E0
4.254748833E0,-1.240300421E-1,-4.443863431E0,4.519276433E-3,4.445596255E0
4.264775833E0,-1.257566225E0,-5.503225125E0,2.305765293E0,6.097828562E0
4.274802833E0,-2.214399624E0,-5.638762414E0,3.008385437E0,6.763844336E0
4.284829833E0,-3.314401807E0,-5.127004160E0,2.906938584E0,6.761784005E0
4.294856833E0,-4.628315310E0,-4.901620894E0,3.026694238E0,7.389727195E0
4.304883833E0,-6.021339887E0,-4.665171188E0,3.157634447E0,8.245666228E0
4.314910833E0,-7.076392769E0,-3.800504817E0,4.449135865E0,9.182264504E0
4.324936833E0,-6.162807423E0,-2.376078646E0,7.810073322E0,1.022854781E1
4.334963833E0,-4.885209514E0,-1.599229853E0,9.384927303E0,1.070045179E1
4.344990833E0,-4.776778747E0,-9.102395689E-1,7.660445412E0,9.073509530E0
4.355017833E0,-3.621128613E0,1.009738129E-1,2.181999764E0,4.228934986E0
4.365044833E0,-2.623400080E0,9.601607573E-1,-9.144369927E-1,2.939444110E0
4.375071833E0,-1.829915082E0,1.374679815E0,-1.491968822E0,2.732087987E0
4.385098833E0,-6.454687272E-1,1.183867042E0,6.607061327E-2,1.350013473E0
4.395125833E0,1.153710612E0,7.584984756E-1,1.116777844E0,1.775826812E0
4.405152833E0,1.965143492E0,5.233614689E-1,2.374275657E0,3.126160755E0
4.415179833E0,2.258335603E0,6.174484313E-1,3.290043768E0,4.038032969E0
4.425206833E0,2.190450014E0,9.920964950E-1,3.707209860E0,4.418793010E0
4.435232833E0,1.739242455E0,1.438133799E0,4.173022740E0,4.744187173E0
4.445259833E0,1.355364854E0,2.075537024E0,4.589535699E0,5.216196484E0
4.455286833E0,9.151143926E-1,2.625026191E0,4.813295778E0,5.558418219E0
4.465313833E0,3.629900679E-1,3.180461392E0,5.005750449E0,5.941770276E0
4.475340833E0,1.207042189E-1,4.171517667E0,5.572668997E0,6.962095152E0
4.485367833E0,-3.319639742E-2,5.147212138E0,5.866965208E0,7.804881520E0
4.495394833E0,-3.197318915E-1,6.033187516E0,5.819754789E0,8.388749960E0
4.505421833E0,-6.319099843E-1,6.724099195E0,5.743393661E0,8.865629755E0
4.515448833E0,-9.700644788E-1,7.222301264E0,5.581601204E0,9.179157513E0
4.525475833E0,-1.337499710E0,7.627786374E0,5.219494248E0,9.338905217E0
4.535501833E0,-1.531452291E0,7.860564614E0,4.493904195E0,9.183082112E0
4.545528833E0,-1.525896706E0,7.971720183E0,3.470517202E0,8.827297043E0
4.555555833E0,-1.366477487E0,7.924569406E0,2.119458384E0,8.316138818E0
4.565582833E0,-1.272481595E0,7.474067752E0,7.120593041E-1,7.614980409E0
4.575609833E0,-1.172607644E0,6.640106866E0,-6.480843329E-1,6.773923618E0
4.585636833E0,-6.207171710E-1,5.403103836E0,-2.550612186E0,6.007032828E0
4.595663833E0,1.128663187E-1,3.097727383E0,-6.195112120E0,6.927342053E0
4.605690833E0,8.937558295E-1,-1.174206857E0,-1.175340632E1,1.184567944E1
4.615717833E0,1.960482238E-1,-8.825145866E0,-1.495998196E1,1.737016680E1
4.625744833E0,-8.325838673E-1,-1.570674391E1,-1.120911124E1,1.931422209E1
4.635771833E0,-1.846761203E-1,-1.576562537E1,-5.967381781E0,1.685819367E1
4.645797833E0,1.045863689E-1,-1.154711421E1,-3.883751334E0,1.218319783E1
4.655824833E0,8.045228601E-1,-6.126813133E0,-2.765688272E0,6.770090680E0
4.665851833E0,1.237681014E0,-1.607993660E0,-2.008097577E0,2.854812390E0
4.675878833E0,5.222008697E-1,1.316619887E0,-1.864289694E0,2.341315386E0
4.685905833E0,-5.825256069E-1,2.750071236E0,-1.261604312E0,3.081212964E0
4.695932833E0,-1.700950648E0,2.300375914E0,2.190802601E-1,2.869313265E0
4.705959833E0,-1.811522081E0,1.087403187E0,1.065496301E0,2.366292523E0
4.715986833E0,-1.900493314E0,-8.958051324E-1,1.852983517E0,2.801408501E0
4.726013833E0,-2.487077510E0,-3.081072174E0,1.572455453E0,4.260419749E0
4.736040833E0,-3.524757144E0,-4.976531913E0,1.458937316E0,6.270429084E0
4.746067833E0,-3.426564851E0,-5.598107893E0,2.275063610E0,6.946659132E0
4.756093833E0,-2.292735065E0,-4.693658822E0,4.620016357E0,6.973637383E0
4.766120833E0,-2.041286958E0,-2.950604421E0,5.974698987E0,6.969214222E0
4.776147833E0,-2.370570276E0,-1.090941337E0,5.935302787E0,6.483639071E0
4.786174833E0,-2.834348325E0,6.937469941E-1,6.134588760E0,6.793231527E0
4.796201833E0,-2.838950669E0,2.381610112E0,6.094749341E0,7.132858975E0
4.806228833E0,-2.460902157E0,3.745619928E0,5.304326237E0,6.944176330E0
4.816255833E0,-2.214624450E0,4.350131979E0,4.263047350E0,6.480878212E0
4.826282833E0,-2.077604453E0,4.300221900E0,4.194993653E0,6.356596606E0
4.836309833E0,-1.990071050E0,3.647772036E0,4.659844374E0,6.243458433E0
4.846336833E0,-1.829818895E0,2.699629646E0,4.376129577E0,5.457723655E0
4.856362833E0,-1.646014303E0,1.505527053E0,4.257227908E0,4.806242218E0
4.866389833E0,-8.667664707E-1,-1.733632198E0,4.849191835E0,5.222205106E0
4.876416833E0,1.102272510E0,-6.583958393E0,5.806250060E0,8.847375462E0
4.886443833E0,2.382912579E0,-7.734947126E0,5.969052916E0,1.005670284E1
4.896470833E0,3.205412338E0,-6.922675316E0,6.323706425E0,9.908953767E0
4.906497833E0,3.645019167E0,-4.451196424E0,5.052312412E0,7.656707846E0
4.916524833E0,3.565325711E0,-1.694890886E0,2.293055639E0,4.565337523E0
4.926551833E0,2.306425882E0,3.828651559E-1,-1.021606735E0,2.551443983E0
4.936578833E0,6.074773937E-1,1.650015260E0,-3.614461033E0,4.019441218E0
4.946605833E0,-8.012457881E-1,2.467483490E0,-5.353204283E0,5.948719667E0
4.956631833E0,-1.398613784E0,2.773796899E0,-5.943226933E0,6.706117814E0
4.966658833E0,-1.297708530E0,2.753800006E0,-4.876481960E0,5.748698827E0
4.976685833E0,-8.350797513E-1,2.447985950E0,-2.796741958E0,3.809430269E0
4.986712833E0,-3.473552345E-1,1.757800494E0,-9.895289826E-1,2.046872210E0
4.996739833E0,1.075193323E-1,1.468032367E0,-5.691487123E-1,1.578166561E0
5.006766833E0,8.756645443E-1,1.681590809E0,-1.388456805E-1,1.901003463E0
5.016793833E0,1.215768427E0,1.987033567E0,8.013205594E-1,2.463434575E0
5.026820833E0,1.327771697E0,2.425914465E0,1.383538347E0,3.092283465E0
5.036847833E0,1.194341086E0,2.674863179E0,1.367302968E0,3.232779155E0
5.046874833E0,1.174695100E0,2.712129239E0,1.137131417E0,3.166799874E0
5.056901833E0,1.083947190E0,2.428178506E0,8.993052757E-1,2.807087877E0
5.066927833E0,3.792452909E-1,1.782993808E0,4.852405465E-1,1.886359536E0
5.076954833E0,-5.072819182E-1,1.137254208E0,-1.169377349E-1,1.250742385E0
5.086981833E0,-1.118415795E0,7.203787225E-1,-1.057423927E0,1.699395409E0
5.097008833E0,-1.442213694E0,2.966713500E-1,-2.481341976E0,2.885316660E0
5.107035833E0,-1.148812546E0,-9.442727029E-2,-4.104172946E0,4.262971070E0
5.117062833E0,7.216063455E-2,-5.471596366E-1,-5.272454819E0,5.301261231E0
5.127089833E0,1.616945016E0,-9.869988924E-1,-5.294338608E0,5.623050711E0
5.137116833E0,2.778180849E0,-1.386287123E0,-4.391840168E0,5.378507310E0
5.147143833E0,3.817976298E0,-1.783839900E0,-3.180066705E0,5.279379892E0
5.157170833E0,4.758376974E0,-2.304960131E0,-1.842262647E0,5.599011011E0
5.167196833E0,5.639070563E0,-3.059964311E0,-9.643954571E-1,6.487877695E0
5.177223833E0,6.345134132E0,-3.600735864E0,-4.349942529E-1,7.308573453E0
5.187250833E0,6.516411942E0,-3.900812048E0,-4.598683083E-1,7.608642329E0
5.197277833E0,6.062476219E0,-3.792314622E0,-1.204690146E0,7.251658186E0
5.207304833E0,5.201646207E0,-3.513692458E0,-2.406796554E0,6.722784215E0
5.217331833E0,3.780842970E0,-3.329448447E0,-3.683238323E0,6.240692675E0
5.227358833E0,2.176362317E0,-3.315487635E0,-4.856223112E0,6.269921379E0
5.237385833E0,8.433985850E-1,-3.609037741E0,-5.363533974E0,6.519506981E0
5.247412833E0,1.952946639E-1,-4.144952597E0,-5.227023708E0,6.673870607E0
5.257439833E0,5.066996817E-1,-4.659697609E0,-4.534315179E0,6.521467666E0
5.267466833E0,1.398194831E0,-5.076577772E0,-3.728728491E0,6.452131960E0
5.277492833E0,1.943121416E0,-4.960918093E0,-3.432944748E0,6.338102146E0
5.287519833E0,1.974949858E0,-4.155568217E0,-3.627014421E0,5.858703590E0
5.297546833E0,1.300369598E0,-3.440860709E0,-4.833669816E0,6.074112890E0
5.307573833E0,7.389374927E-1,-3.351280196E0,-5.028510152E0,6.087940696E0
5.317600833E0,5.172043508E-1,-3.506083476E0,-2.487678019E0,4.329972703E0
5.327627833E0,-5.396586822E-1,-3.769888211E0,6.188558561E-1,3.858273084E0
5.337654833E0,-1.352723813E0,-4.305514215E0,2.758220501E0,5.289148769E0
5.347681833E0,-1.602653398E0,-4.170290337E0,4.136571783E0,6.088599635E0
5.357708833E0,-2.378549971E0,-3.809769146E0,4.440837497E0,6.316080951E0
5.367735833E0,-3.562017356E0,-3.688941112E0,4.706664784E0,6.960527822E0
5.377761833E0,-4.963199676E0,-3.676459646E0,5.126665606E0,8.026979930E0
5.387788833E0,-5.427652202E0,-3.577941663E0,5.934419857E0,8.802182344E0
5.397815833E0,-5.280576602E0,-3.228933640E0,7.468695331E0,9.700098538E0
5.407842833E0,-4.312822065E0,-2.263190546E0,8.433519827E0,9.738928190E0
5.417869833E0,-3.468843144E0,-1.413809382E0,5.059755918E0,6.295463420E0
5.427896833E0,-2.482613745E0,-8.081793433E-1,9.368689585E-1,2.773850808E0
5.437923833E0,-2.002078746E0,-2.077837318E-1,-3.308182123E-1,2.039836776E0
5.447950833E0,-1.709127540E0,3.879697752E-1,-2.559747291E-1,1.771203139E0
5.457977833E0,-4.968324322E-2,5.446044034E-1,1.505184406E-1,5.672020643E-1
5.468004833E0,1.512838996E0,7.063161689E-1,1.313675230E0,2.124454510E0
5.478031833E0,1.966082701E0,1.094418676E0,2.531514887E0,3.387004731E0
5.488057833E0,1.959939032E0,1.492373157E0,3.244358887E0,4.073622864E0
5.498084833E0,1.682300369E0,1.965896468E0,3.930022106E0,4.705311595E0
5.508111833E0,1.469625149E0,2.700259976E0,4.509283541E0,5.457548907E0
5.518138833E0,1.129119854E0,3.252621880E0,4.691493306E0,5.819327296E0
5.528165833E0,6.449253747E-1,4.088750330E0,4.739823467E0,6.292831993E0
5.538192833E0,2.678528726E-1,4.896656023E0,4.966916751E0,6.979917434E0
5.548219833E0,4.525887441E-2,5.804129859E0,5.255285055E0,7.829942069E0
5.558246833E0,-9.659114208E-2,6.654564106E0,5.258184105E0,8.481807200E0
5.568273833E0,-4.189765000E-1,7.170658656E0,4.948869320E0,8.722682753E0
5.578300833E0,-7.666402117E-1,7.471831192E0,4.618650740E0,8.817478848E0
5.588326833E0,-9.668989424E-1,7.642621345E0,4.247413649E0,8.796878838E0
5.598353833E0,-1.171538699E0,7.720472928E0,3.739914799E0,8.658242770E0
5.608380833E0,-1.389400765E0,7.700264951E0,2.881036003E0,8.338158265E0
5.618407833E0,-1.637780838E0,7.379413610E0,1.804428823E0,7.771359899E0
5.628434833E0,-1.745954474E0,6.735332866E0,6.591270921E-1,6.989099682E0
5.638461833E0,-1.692083930E0,6.143087103E0,-5.150090137E-1,6.392644325E0
5.648488833E0,-1.323157805E0,5.057795346E0,-2.558502418E0,5.820478929E0
5.658515833E0,-8.721098757E-1,3.172918484E0,-5.979672629E0,6.825281832E0
5.668542833E0,-5.288825561E-1,-4.968934625E-1,-1.201236547E1,1.203426541E1
5.678569833E0,-8.754120907E-1,-7.467306032E0,-1.526062240E1,1.701216041E1
5.688595833E0,-1.202378304E-1,-1.338348842E1,-1.083873339E1,1.722237966E1
5.698622833E0,1.592651151E0,-1.477317746E1,-5.244102840E0,1.575702778E1
5.708649833E0,2.019632672E0,-1.256549687E1,-3.254833882E0,1.313638349E1
5.718676833E0,1.918521888E0,-7.882215684E0,-3.213394372E0,8.725591883E0
5.728703833E0,1.948661507E0,-3.272830442E0,-2.343498837E0,4.472212827E0
5.738730833E0,9.448001218E-1,-7.032434571E-1,-9.091250896E-1,1.487853171E0
5.748757833E0,-6.550614499E-1,3.869862735E-2,1.062452240E0,1.248762527E0
5.758784833E0,-2.287075691E0,-3.986830437E-1,2.679254438E0,3.545147068E0
5.768811833E0,-2.894167095E0,-1.436542187E0,4.125430790E0,5.240137006E0
5.778838833E0,-2.502150755E0,-3.331307861E0,3.399938970E0,5.377541768E0
5.788865833E0,-3.107944808E0,-5.516038129E0,1.651326790E-1,6.333503483E0
5.798891833E0,-3.776042114E0,-6.191008544E0,-1.062720627E0,7.329151108E0
5.808918833E0,-3.801914289E0,-4.617431595E0,2.098408700E0,6.338654894E0
5.818945833E0,-3.776320149E0,-1.163311740E0,5.962819784E0,7.153258547E0
5.828972833E0,-3.520455347E0,1.824710183E0,6.769874707E0,7.845659734E0
5.838999833E0,-3.785051211E0,4.035248891E0,5.767356720E0,7.992011625E0
5.849026833E0,-3.979553285E0,5.607467532E0,5.256069167E0,8.654871435E0
5.859053833E0,-3.583839165E0,6.267884227E0,5.299592916E0,8.956336356E0
5.869080958E0,-2.797388367E0,6.199787554E0,5.064557651E0,8.480123324E0
5.879107958E0,-2.564135626E0,5.386949149E0,4.548903397E0,7.502435255E0
5.889134958E0,-2.724453708E0,4.430694916E0,3.875541551E0,6.486411008E0
5.899160958E0,-2.686307642E0,3.413843064E0,3.455960559E0,5.551057251E0
5.909187958E0,-2.030477064E0,1.743608717E0,3.737085332E0,4.596609103E0
5.919214958E0,-1.179597990E0,-1.929470653E0,4.337496438E0,4.891644281E0
5.929241958E0,9.861541159E-1,-8.289627451E0,6.646225977E0,1.067064867E1
5.939268958E0,3.248871476E0,-9.976318202E0,7.575943791E0,1.294129109E1
5.949295958E0,4.242271900E0,-8.841646124E0,8.638098700E0,1.306860077E1
5.959322958E0,4.942886449E0,-6.375767695E0,8.629035516E0,1.181282329E1
5.969349958E0,4.629881487E0,-3.284923069E0,5.878095968E0,8.171813407E0
5.979376958E0,3.736096568E0,-8.399876118E-1,1.204543966E0,4.014339661E0
5.989403958E0,2.002818857E0,8.813917458E-1,-3.744389673E0,4.336886995E0
5.999429958E0,4.816412929E-1,2.205670316E0,-6.967491885E0,7.324131556E0
6.009456958E0,-4.918840798E-1,2.788684494E0,-8.192214593E0,8.667819281E0
6.019483958E0,-4.983470073E-1,2.528505617E0,-7.528913466E0,7.957777854E0
6.029510958E0,2.230102468E-1,2.179667748E0,-5.580394923E0,5.995122397E0
6.039537958E0,6.241468553E-1,1.992016565E0,-3.395900883E0,3.986205225E0
6.049564958E0,1.744806227E-1,1.727910697E0,-1.836730889E0,2.527785439E0
6.059591958E0,-9.477525271E-2,1.986579239E0,-1.212091625E0,2.329086844E0
6.069618958E0,2.014058083E-1,2.479985422E0,-4.093583419E-1,2.521599937E0
6.079645958E0,3.434201315E-2,2.644981568E0,3.678593733E-1,2.670660478E0
6.089672958E0,-4.257784563E-1,2.703715096E0,9.920614848E-1,2.911279547E0
6.099699958E0,-7.645477125E-1,2.715455135E0,1.635041125E0,3.260611795E0
6.109725958E0,-9.597929674E-1,2.354027041E0,1.903237705E0,3.175682543E0
6.119752958E0,-1.124458381E0,1.713710734E0,1.565667274E0,2.579248949E0
6.129779958E0,-1.363551248E0,1.214454997E0,9.401685423E-1,2.053798878E0
6.139806958E0,-1.530201280E0,9.108599585E-1,1.765707099E-1,1.789513631E0
6.149833958E0,-1.207785370E0,6.435252589E-1,-6.121094848E-1,1.499182537E0
6.159860958E0,-5.375431596E-1,2.547509068E-1,-1.444324247E0,1.562025353E0
6.169887958E0,2.761474769E-1,-3.927025115E-1,-2.462896934E0,2.509249689E0
6.179914958E0,1.352651746E0,-1.236321244E0,-3.556787022E0,4.001111206E0
6.189941958E0,2.319352029E0,-1.887770065E0,-4.347804202E0,5.276975558E0
6.199968958E0,3.086621767E0,-2.302107859E0,-4.566870137E0,5.973544791E0
6.209994958E0,3.711969786E0,-2.796461876E0,-4.302898171E0,6.333549667E0
6.220021958E0,4.217018945E0,-3.141627694E0,-3.925254579E0,6.562064984E0
6.230048958E0,4.447106589E0,-2.955787978E0,-3.654410380E0,6.470560625E0
6.240075958E0,4.615957512E0,-2.547893230E0,-3.260405694E0,6.199118401E0
6.250102958E0,4.839173216E0,-2.355146198E0,-3.282508169E0,6.303901245E0
6.260129958E0,4.470865288E0,-2.195761625E0,-3.540423004E0,6.111022875E0
6.270156958E0,3.353046055E0,-2.151024578E0,-3.766069395E0,5.482071075E0
6.280183958E0,2.136476413E0,-2.362609584E0,-3.540513636E0,4.762530033E0
6.290210958E0,1.353835807E0,-2.886834687E0,-3.298312608E0,4.587543129E0
6.300237958E0,8.920398179E-1,-3.572641747E0,-3.221834536E0,4.892823506E0
6.310263958E0,9.925443918E-1,-4.115423573E0,-3.008899114E0,5.193777954E0
6.320290958E0,1.497771891E0,-4.394586021E0,-2.849486182E0,5.447502036E0
6.330317958E0,1.908130509E0,-4.514024171E0,-3.466594890E0,6.002887337E0
6.340344958E0,2.139695013E0,-4.033640907E0,-4.420697347E0,6.355400754E0
6.350371958E0,1.885381185E0,-3.373664507E0,-4.863751987E0,6.212274769E0
6.360398958E0,1.822063295E0,-3.027026360E0,-4.246331622E0,5.523960126E0
6.370425958E0,1.476639322E0,-3.406370907E0,-2.388667116E0,4.414697842E0
6.380452958E0,1.981274937E-1,-4.474271291E0,3.975352718E-1,4.496264269E0
6.390479958E0,-1.141598397E0,-5.210350372E0,2.343016734E0,5.825866916E0
6.400506958E0,-1.950475021E0,-5.353110142E0,3.297592231E0,6.582875931E0
6.410533958E0,-2.999152683E0,-5.213844668E0,3.622069430E0,7.021287631E0
6.420559958E0,-4.541330084E0,-5.193755389E0,3.835350130E0,7.893585028E0
6.430586958E0,-6.018120995E0,-5.075063344E0,4.147179801E0,8.897929454E0
6.440613958E0,-6.227526745E0,-4.520221635E0,5.315510792E0,9.352494211E0
6.450640958E0,-5.483955041E0,-3.564724617E0,6.441885670E0,9.180354867E0
6.460667958E0,-5.375858150E0,-2.191028304E0,7.464028083E0,9.455800923E0
6.470694958E0,-4.587504961E0,-1.064891406E0,6.899527359E0,8.353602412E0
6.480721958E0,-3.522176183E0,-2.090239263E-1,3.157789105E0,4.735086916E0
6.490748958E0,-3.016282978E0,1.194200242E-1,2.405822262E-1,3.028217950E0
6.500775958E0,-2.385616331E0,4.420296228E-1,-1.831958976E-1,2.433128892E0
6.510802958E0,-1.026756816E0,9.810598755E-1,6.823598340E-2,1.421746879E0
6.520828958E0,4.197779705E-1,1.390643883E0,8.451422247E-1,1.680586009E0
6.530855958E0,1.056381296E0,1.677061556E0,1.970101493E0,2.794597788E0
6.540882958E0,1.417583029E0,1.968406677E0,2.819321566E0,3.719239248E0
6.550909958E0,1.864621231E0,2.257986524E0,3.423740939E0,4.505254431E0
6.560936958E0,1.972379129E0,2.401132210E0,3.618275757E0,4.769448058E0
6.570963958E0,1.420215007E0,2.931440756E0,3.904013398E0,5.084454365E0
6.580990958E0,1.110835245E0,3.796854401E0,4.434786213E0,5.942843346E0
6.591017958E0,5.408449361E-1,4.401096311E0,4.679007454E0,6.446337932E0
6.601044958E0,2.701283531E-1,4.901622648E0,4.936447495E0,6.961852324E0
6.611071958E0,4.465803646E-1,5.658868650E0,5.215695312E0,7.708807042E0
6.621097958E0,3.313726746E-1,6.364903568E0,5.306510757E0,8.293422797E0
6.631124958E0,1.577575859E-1,6.952450508E0,5.184446622E0,8.674096051E0
6.641151958E0,-2.876705848E-2,7.488540196E0,4.796483279E0,8.892992390E0
6.651178958E0,-1.461795873E-1,7.989568225E0,4.228247353E0,9.040610852E0
6.661205958E0,-3.185778704E-1,8.153203139E0,3.406403944E0,8.841934241E0
6.671232958E0,-5.112669419E-1,7.734462392E0,2.340667908E0,8.097038263E0
6.681259958E0,-6.000232170E-1,7.079959570E0,1.368657475E0,7.235957342E0
6.691286958E0,-5.327758516E-1,6.339785684E0,2.884101114E-1,6.368666502E0
6.701313958E0,-1.944977615E-1,5.396815740E0,-1.562378654E0,5.621785888E0
6.711340958E0,1.953412955E-1,3.527274955E0,-5.551160599E0,6.579909637E0
6.721367958E0,6.615404572E-1,-3.448190778E-1,-1.293862056E1,1.296010949E1
6.731393958E0,2.062073225E-1,-7.670175179E0,-1.691595980E1,1.857481641E1
6.741420958E0,8.961926566E-1,-1.403612657E1,-1.112068496E1,1.793002076E1
6.751447958E0,2.397681476E0,-1.545742565E1,-4.898949301E0,1.639147914E1
6.761474958E0,2.757567952E0,-1.312750200E1,-3.268347967E0,1.380643286E1
6.771501958E0,2.330826020E0,-8.110471103E0,-3.249928945E0,9.042927048E0
6.781528958E0,1.910397913E0,-3.021325325E0,-2.152894225E0,4.172886345E0
6.791555958E0,7.699642807E-1,1.689319074E-1,-5.870300460E-1,9.828465078E-1
6.801582958E0,-9.942883238E-1,1.761883020E0,1.387202797E0,2.452992590E0
6.811609958E0,-2.792764682E0,2.024338803E0,3.335549139E0,4.798267418E0
6.821636958E0,-3.449185975E0,1.619691015E0,4.663483389E0,6.022321827E0
6.831662958E0,-3.209655662E0,6.466459179E-1,3.631974321E0,4.889915938E0
6.841689958E0,-3.583162934E0,-1.680438908E0,9.561621389E-1,4.071508022E0
6.851716958E0,-4.880383514E0,-3.573641036E0,-5.621042427E-1,6.074949768E0
6.861743958E0,-5.045078822E0,-3.889790631E0,3.162180072E-1,6.378345028E0
6.871771542E0,-4.644060692E0,-3.360569082E0,3.798569974E0,6.876762183E0
6.881798542E0,-4.343122629E0,-2.034691883E0,5.926119150E0,7.623750613E0
6.891825542E0,-4.064316277E0,-4.557471907E-1,5.922702037E0,7.197553176E0
6.901852542E0,-4.311190692E0,8.061006582E-1,5.583554174E0,7.100157792E0
6.911879542E0,-4.213145750E0,1.885565080E0,5.343290913E0,7.060928449E0
6.921906542E0,-3.678526636E0,2.576601305E0,5.106068205E0,6.800173896E0
6.931932542E0,-2.980031411E0,2.866769966E0,4.559136025E0,6.155053090E0
6.941959542E0,-2.635538900E0,2.850488394E0,4.059864792E0,5.617281505E0
6.951986542E0,-2.145385669E0,2.367377404E0,3.872229688E0,5.020091453E0
6.962013542E0,-1.233988498E0,1.979453822E0,3.316257713E0,4.054445740E0
6.972040542E0,-4.173815623E-2,6.901901329E-1,3.398540024E0,3.468166488E0
6.982067542E0,1.764073241E0,-3.388260911E0,5.199109100E0,6.451589094E0
6.992094542E0,2.754325671E0,-6.213975822E0,7.353909810E0,1.001397997E1
7.002121542E0,2.740443796E0,-6.142693001E0,9.144686261E0,1.135200407E1
7.012148542E0,2.787989261E0,-4.742077861E0,8.067308711E0,9.764305218E0
7.022175542E0,3.127652848E0,-2.740171900E0,5.005211921E0,6.507142288E0
7.032201542E0,2.718441601E0,-7.761681765E-1,2.085124118E0,3.512848468E0
7.042228542E0,1.513745314E0,8.051767981E-1,-1.525694100E0,2.295098481E0
7.052255542E0,2.421548349E-1,1.677470861E0,-5.546560010E0,5.799730631E0
7.062282542E0,-4.893043613E-1,2.132813424E0,-8.242212964E0,8.527742164E0
7.072309542E0,4.907582715E-2,2.110176514E0,-8.723860981E0,8.975578186E0
7.082336542E0,5.617696358E-1,1.655551404E0,-7.334652005E0,7.540129681E0
7.092363542E0,9.002374680E-1,1.395887666E0,-5.245008574E0,5.501731074E0
7.102390542E0,1.147811941E0,1.383354160E0,-3.171732668E0,3.645686369E0
7.112417542E0,9.542625247E-1,1.229589345E0,-1.578969836E0,2.217127120E0
7.122444542E0,5.665970971E-1,1.492440984E0,-7.141128463E-1,1.748819464E0
7.132471542E0,6.746891642E-1,2.223706638E0,9.637267549E-2,2.325804027E0
7.142497542E0,7.487461969E-1,2.616743025E0,9.208873487E-1,2.873325327E0
7.152524542E0,6.536445234E-1,2.594639965E0,1.785449054E0,3.216711991E0
7.162551542E0,3.873064086E-1,2.255831825E0,2.263808597E0,3.219256566E0
7.172578542E0,-2.457920954E-2,1.769152864E0,1.983731645E0,2.658137925E0
7.182605542E0,-2.408183806E-1,1.436325840E0,1.396519166E0,2.017744085E0
7.192632542E0,-4.861350974E-1,1.087513114E0,8.618572947E-1,1.470309526E0
7.202659542E0,-5.128720757E-1,6.192534667E-1,1.356342801E-1,8.154196956E-1
7.212686542E0,2.346313687E-1,2.121001464E-1,-1.019129342E0,1.067081519E0
7.222713542E0,1.450070744E0,-2.120118535E-1,-2.387449580E0,2.801351403E0
7.232740542E0,2.392329812E0,-7.856435895E-1,-3.444240984E0,4.266529472E0
7.242766542E0,2.942880834E0,-1.245073941E0,-3.992389970E0,5.113700655E0
7.252793542E0,3.181533186E0,-1.601682760E0,-4.137492135E0,5.459522163E0
7.262820542E0,3.524429700E0,-1.994740198E0,-3.759914616E0,5.526079178E0
7.272847542E0,3.730424184E0,-2.410759066E0,-3.305118767E0,5.536391779E0
7.282874542E0,3.867707452E0,-2.562559217E0,-2.982855908E0,5.515732049E0
7.292901542E0,4.096063442E0,-2.556352397E0,-3.275788549E0,5.834677705E0
7.302928542E0,4.297349163E0,-2.569456592E0,-3.667482123E0,6.206427486E0
7.312955542E0,3.684197851E0,-2.594568045E0,-4.438226422E0,6.324788607E0
7.322982542E0,1.952092653E0,-2.644196872E0,-4.691065290E0,5.727873635E0
7.333009542E0,8.212088402E-1,-2.506252869E0,-4.718261859E0,5.405338322E0
7.343035542E0,6.012779564E-2,-2.655390782E0,-4.346924196E0,5.094159943E0
7.353062542E0,-3.962042628E-1,-3.299550464E0,-3.682668219E0,4.960449203E0
7.363089542E0,-2.604086727E-1,-4.325228688E0,-2.791613365E0,5.154466127E0
7.373116542E0,3.365556465E-1,-5.079083889E0,-1.972805684E0,5.459150586E0
7.383143542E0,8.860011059E-1,-5.107682621E0,-2.384284189E0,5.705982020E0
7.393170542E0,1.281295542E0,-4.190900018E0,-3.522567362E0,5.622618788E0
7.403197542E0,1.252565833E0,-3.008681890E0,-3.869078039E0,5.058740234E0
7.413224542E0,1.540757258E0,-2.769547142E0,-3.463028673E0,4.694346801E0
7.423251542E0,1.323585091E0,-3.436325608E0,-1.792410749E0,4.095478906E0
7.433278542E0,8.958945948E-1,-4.624534793E0,8.887522209E-1,4.793623857E0
7.443304542E0,7.745426506E-2,-5.525368531E0,2.776438086E0,6.184198009E0
7.453331542E0,-7.212169209E-1,-5.902109313E0,3.429514772E0,6.864154701E0
7.463358542E0,-1.729022984E0,-5.705613631E0,3.574718678E0,6.951414317E0
7.473385542E0,-3.221196312E0,-5.465255646E0,4.056418151E0,7.529917208E0
7.483412542E0,-5.113039255E0,-4.830090151E0,5.155999918E0,8.721082298E0
7.493439542E0,-5.593935320E0,-3.872248984E0,7.212794276E0,9.915181584E0
7.503466542E0,-5.630586838E0,-2.616829564E0,9.220007755E0,1.111574775E1
7.513493542E0,-5.332652489E0,-1.799688778E0,8.151621467E0,9.905806116E0
7.523520542E0,-4.171563275E0,-5.285415173E-1,2.986134442E0,5.157353508E0
7.533547542E0,-1.728567340E0,3.363400304E-1,-6.656784587E-1,1.882603908E0
7.543574542E0,-2.488902426E-1,8.496039426E-1,-1.376614659E0,1.636716570E0
7.553600542E0,-1.594277335E-1,5.629149592E-1,-1.097550737E0,1.243747592E0
7.563627542E0,2.014818951E-1,5.462363613E-1,4.945200777E-1,7.638842999E-1
7.573654542E0,3.459299026E-1,1.001924495E0,2.600533959E0,2.808255163E0
7.583681542E0,2.593179842E-1,1.175174571E0,3.877997089E0,4.060436247E0
7.593708542E0,3.788254974E-1,1.473936301E0,4.477384056E0,4.728949668E0
7.603735542E0,1.006240325E0,1.880972092E0,4.515061175E0,4.993631246E0
7.613762542E0,1.544305641E0,2.279839908E0,4.294042270E0,5.101112520E0
7.623789542E0,1.486487495E0,2.852201629E0,4.214611062E0,5.301664419E0
7.633816542E0,9.893146822E-1,3.416556172E0,4.576945767E0,5.796553473E0
7.643843542E0,7.497744298E-1,3.998883888E0,5.200321813E0,6.602770706E0
7.653869542E0,4.435450749E-1,4.849753168E0,5.546347171E0,7.380975881E0
7.663896542E0,1.558083070E-1,5.786301699E0,5.640694335E0,8.082264296E0
7.673923542E0,-7.600379013E-2,6.665032961E0,5.453221491E0,8.611972224E0
7.683950542E0,-3.453319152E-1,7.356225892E0,5.032724240E0,8.919732439E0
7.693977542E0,-6.155872625E-1,7.752267748E0,4.559405874E0,9.014698267E0
7.704004542E0,-7.341478921E-1,7.824162188E0,4.215089364E0,8.917593028E0
7.714031542E0,-8.648280457E-1,7.688786867E0,3.966898448E0,8.694921180E0
7.724058542E0,-1.060428446E0,7.432107548E0,3.632170495E0,8.339867721E0
7.734085542E0,-1.234277058E0,6.948239928E0,3.122188333E0,7.716834710E0
7.744111542E0,-1.304106553E0,6.212181312E0,2.464847858E0,6.809358671E0
7.754138542E0,-9.454238735E-1,5.348319519E0,1.240365179E0,5.571072944E0
7.764165542E0,-8.681320880E-1,3.868152425E0,-9.482239589E-1,4.076197392E0
7.774192542E0,-8.323352145E-1,1.474858407E0,-5.210973101E0,5.479254501E0
7.784219542E0,-9.243725815E-1,-3.045707629E0,-1.391024654E1,1.426974977E1
7.794246542E0,-1.003605277E0,-1.060243805E1,-1.640730583E1,1.956063907E1
7.804273542E0,9.405728772E-2,-1.612162491E1,-9.760311531E0,1.884620168E1
7.814300542E0,7.978813733E-1,-1.550207967E1,-5.705506042E0,1.653795295E1
7.824327542E0,7.074290402E-1,-1.176030954E1,-4.391003432E0,1.257323537E1
7.834354542E0,1.320798600E0,-7.912217748E0,-2.994003333E0,8.562228365E0
7.844381542E0,1.921254438E0,-3.681870074E0,-1.779223523E0,4.518077268E0
7.854407542E0,1.083955157E0,-5.229223430E-1,-9.883744499E-1,1.557334457E0
7.864434208E0,-4.281025053E-1,1.425403826E0,-4.147889069E-1,1.545023514E0
7.874461208E0,-1.475482012E0,2.191717690E0,1.256844386E-1,2.645084154E0
7.884488208E0,-1.918688972E0,2.149525352E0,5.064796802E-1,2.925465480E0
7.894515208E0,-1.776123329E0,1.441321701E0,2.010446111E0,3.045310476E0
7.904542208E0,-7.643520501E-1,2.815013337E-1,2.995056416E0,3.103842778E0
7.914569208E0,-4.056790180E-1,-2.036734316E0,2.131798640E0,2.976143071E0
7.924596208E0,-1.470107836E0,-3.970813744E0,1.211989810E0,4.404259091E0
7.934623208E0,-2.176856699E0,-3.812974005E0,2.471214306E0,5.038290980E0
7.944650208E0,-3.019654775E0,-2.704124985E0,5.425350738E0,6.772373109E0
7.954676208E0,-3.368519542E0,-1.404730411E0,7.316332093E0,8.176118072E0
7.964703208E0,-3.296390628E0,-1.256297672E-1,7.170437046E0,7.892853821E0
7.974730208E0,-3.330391603E0,4.982675582E-1,6.596981896E0,7.406750227E0
7.984757208E0,-3.353809116E0,1.009689013E0,5.778702657E0,6.757285838E0
7.994784208E0,-3.316579894E0,1.318501521E0,4.450457043E0,5.704797661E0
8.004811208E0,-2.746291012E0,1.639258137E0,3.622270575E0,4.832196775E0
8.014838208E0,-1.824604349E0,1.957914433E0,3.202743376E0,4.173748327E0
8.024865208E0,-8.215627429E-1,1.823290479E0,2.984010441E0,3.592168123E0
8.034892208E0,4.275418304E-2,1.269331700E0,3.159082217E0,3.404824715E0
8.044919208E0,6.560225860E-1,-8.523977423E-1,4.263361638E0,4.396953490E0
8.054945208E0,1.548238771E0,-3.103240723E0,5.830324216E0,6.783791472E0
8.064972208E0,2.300656288E0,-3.647014237E0,6.853769388E0,8.097400016E0
8.074999208E0,2.733652840E0,-3.345871521E0,7.092614114E0,8.304991816E0
8.085026208E0,2.688960816E0,-2.491260608E0,5.438765420E0,6.558739130E0
8.095053208E0,1.819081507E0,-1.580538059E0,3.153507774E0,3.968849880E0
8.105080208E0,6.492214702E-1,-6.615183109E-1,4.830267906E-1,1.045184134E0
8.115107208E0,-5.249898454E-1,1.860917312E-1,-2.624925034E0,2.683370251E0
8.125134208E0,-1.411123318E0,7.435611784E-1,-5.356661156E0,5.589093933E0
8.135161208E0,-1.578350908E0,1.291440607E0,-6.761695622E0,7.062544734E0
8.145188208E0,-8.035418435E-1,1.601740063E0,-6.279431309E0,6.530123144E0
8.155214208E0,1.095139638E-1,1.681367446E0,-4.397917764E0,4.709635915E0
8.165241208E0,5.218715253E-1,1.617983043E0,-2.749992299E0,3.233059953E0
8.175268208E0,9.168872684E-1,1.678423373E0,-1.627556689E0,2.511319983E0
8.185295208E0,1.752873923E0,1.806846355E0,-9.856037468E-1,2.703456211E0
8.195322208E0,2.241392857E0,1.988919294E0,-4.748529679E-1,3.033995260E0
8.205349208E0,1.609837579E0,2.200482666E0,-1.919582427E-1,2.733230500E0
8.215376208E0,9.320605007E-1,2.407244890E0,-2.020879956E-1,2.589286445E0
8.225403208E0,7.046570946E-1,2.339801350E0,-4.201822324E-1,2.479468711E0
8.235430208E0,1.178171562E-1,1.737660930E0,-9.662015158E-1,1.991705741E0
8.245457208E0,-2.758692225E-1,1.217165181E0,-1.537786142E0,1.980500220E0
8.255483208E0,-1.190992313E-1,1.013886144E0,-1.830542781E0,2.095957207E0
8.265510208E0,3.211433362E-1,7.188637090E-1,-1.998032180E0,2.147563891E0
8.275537208E0,1.139662457E0,4.750161052E-1,-1.879199947E0,2.248524685E0
8.285564208E0,1.805375195E0,1.094382423E-1,-1.690563362E0,2.475754593E0
8.295591208E0,2.350214364E0,-2.540334535E-1,-1.683159179E0,2.901907196E0
8.305618208E0,2.718992116E0,-3.877247769E-1,-1.852524365E0,3.312868115E0
8.315645208E0,2.794379098E0,-4.398100197E-1,-2.074146702E0,3.507716057E0
8.325672208E0,2.771855623E0,-4.502268344E-1,-1.992120645E0,3.443026643E0
8.335699208E0,2.843628441E0,-3.318774354E-1,-1.415197365E0,3.193610641E0
8.345726208E0,2.954928437E0,-5.050766408E-2,-2.281893450E-1,2.964156451E0
8.355753208E0,3.550497464E0,-2.572774887E-2,8.176547563E-1,3.643522123E0
8.365779208E0,4.324923463E0,1.250818831E-1,1.418038673E0,4.553179342E0
8.375806208E0,5.057832184E0,4.534544975E-1,1.731050506E0,5.365055753E0
8.385833208E0,5.341905708E0,2.752921754E-1,1.213820428E0,5.484988824E0
8.395860208E0,4.706851895E0,-9.145992529E-1,-1.891884166E-1,4.798618427E0
8.405887208E0,3.751090875E0,-2.354454473E0,-2.192489815E0,4.941776017E0
8.415914208E0,2.755831913E0,-3.811084769E0,-4.559527788E0,6.550440466E0
8.425941208E0,2.035790721E0,-5.374893944E0,-6.673349456E0,8.807242573E0
8.435968208E0,1.423772745E0,-6.702439939E0,-7.798754867E0,1.038125269E1
8.445995208E0,6.413957030E-1,-7.474995121E0,-7.898461003E0,1.089369665E1
8.456021208E0,9.915357471E-2,-7.533930961E0,-6.761104469E0,1.012336312E1
8.466048208E0,-9.700589240E-2,-7.086977398E0,-4.965292979E0,8.653831126E0
8.476075208E0,-1.974557948E-1,-6.241438440E0,-3.757596779E0,7.287940460E0
8.486102208E0,-3.819471431E-1,-5.242852705E0,-3.660737652E0,6.405808947E0
8.496129208E0,-8.827480806E-1,-4.528293132E0,-4.632881693E0,6.538216549E0
8.506156208E0,-1.083847933E0,-4.282324743E0,-5.538359874E0,7.084240372E0
8.516183208E0,-6.641162288E-1,-4.173277679E0,-4.514032357E0,6.183347400E0
8.526210208E0,-1.104743397E0,-4.665428465E0,-2.439587009E0,5.379429850E0
8.536237208E0,-2.019303912E0,-4.750179763E0,7.020120335E-1,5.209089840E0
8.546264208E0,-2.955393291E0,-4.020497535E0,3.044410132E0,5.845270138E0
8.556291208E0,-3.694827504E0,-3.527902361E0,3.937614423E0,6.450011837E0
8.566317208E0,-4.089613671E0,-3.384038052E0,4.638235989E0,7.049105376E0
8.576344208E0,-4.895650302E0,-3.279134910E0,6.808521295E0,9.004225667E0
8.586371208E0,-6.633234048E0,-3.286558535E0,1.040448875E1,1.276928530E1
8.596398208E0,-7.629168071E0,-3.277726901E0,1.235844579E1,1.488888449E1
8.606425208E0,-5.856349003E0,-2.466545012E0,1.022391153E1,1.203781687E1
8.616452208E0,-1.907665801E0,-1.190176188E0,2.662345752E0,3.484794552E0
8.626479208E0,6.907739042E-1,-6.269279373E-1,-2.016117910E0,2.221472182E0
8.636506208E0,7.877411319E-1,-1.103584771E0,-3.135948293E0,3.416519740E0
8.646533208E0,1.416498517E0,-1.322535515E0,-1.707987187E0,2.583174107E0
8.656560208E0,2.491736864E0,-1.865923113E0,5.560994446E-2,3.113440882E0
8.666586208E0,3.090176581E0,-1.567313411E0,1.431305129E0,3.748906108E0
8.676613208E0,2.680795180E0,-7.050367981E-1,2.959789520E0,4.055131771E0
8.686640208E0,1.673242155E0,5.964645284E-1,4.423968572E0,4.767285094E0
8.696667208E0,1.050295587E0,2.202348513E0,5.400503579E0,5.926120038E0
8.706694208E0,3.950627401E-1,3.520084049E0,5.932353451E0,6.909405456E0
8.716721208E0,-2.214841235E-2,4.786762868E0,6.272898214E0,7.890680662E0
8.726748208E0,-3.242284003E-1,6.073786488E0,6.181421449E0,8.672138000E0
8.736775208E0,-6.425204149E-1,7.119006692E0,5.789698931E0,9.198570675E0
8.746802208E0,-9.775331274E-1,7.891895165E0,5.600076066E0,9.726172539E0
8.756829208E0,-1.543291880E0,8.285692275E0,5.394728869E0,1.000687493E1
8.766855208E0,-1.673457332E0,8.402808496E0,5.323665903E0,1.008707434E1
8.776882208E0,-1.471412350E0,8.239519737E0,5.285500542E0,9.899053277E0
8.786909208E0,-1.453883567E0,7.996963198E0,5.030932068E0,9.559052008E0
8.796936208E0,-1.496864403E0,7.738399322E0,4.372527400E0,9.013457881E0
8.806963208E0,-1.608423430E0,7.404071903E0,3.435997580E0,8.319458278E0
8.816990208E0,-1.778188274E0,6.933124291E0,2.173094601E0,7.480140781E0
8.827017208E0,-1.643305288E0,6.397806435E0,5.941405526E-1,6.632147650E0
8.837044208E0,-1.141880160E0,5.934150301E0,-1.090595474E0,6.140637473E0
8.847071208E0,-6.028218406E-1,5.357084495E0,-3.509031934E0,6.432344329E0
8.857098208E0,5.964004283E-1,4.256656635E0,-7.868247271E0,8.965719954E0
8.867124083E0,9.278054819E-2,5.805291116E-1,-1.464598414E1,1.465777861E1
8.877151083E0,-2.144818051E0,-7.297184216E0,-1.763083103E1,1.920144122E1
8.887178083E0,-2.989601841E0,-1.447166461E1,-1.255652139E1,1.939157099E1
8.897205083E0,-2.450517063E0,-1.539554574E1,-5.641763206E0,1.657882247E1
8.907232083E0,-1.439797625E0,-1.276206856E1,-3.380150238E0,1.328039257E1
8.917259083E0,-5.644562852E-1,-8.091131437E0,-3.080820744E0,8.676201662E0
8.927286083E0,9.344291347E-1,-3.016073356E0,-1.749821676E0,3.609949057E0
8.937313083E0,1.484277394E0,5.764454162E-1,-6.892463923E-2,1.593775174E0
8.947340083E0,1.665320055E0,3.112646554E0,1.550810230E0,3.855758268E0
8.957367083E0,1.577111883E0,5.099880096E0,4.152379438E0,6.763010712E0
8.967393083E0,1.225346020E0,5.521267878E0,5.569053079E0,7.937268047E0
8.977420083E0,7.282487825E-1,4.714598286E0,5.329574515E0,7.152772036E0
8.987447083E0,-2.440884725E-1,2.807453472E0,3.214246604E0,4.274664362E0
8.997474083E0,-1.545639245E0,-1.600651896E0,-1.893679261E-1,2.233147415E0
9.007501083E0,-4.082009659E0,-7.722201950E0,-4.111112714E0,9.653831030E0
9.017528083E0,-5.452999882E0,-1.098483309E1,-3.436186737E0,1.273613541E1
9.027555083E0,-5.013031987E0,-1.007287210E1,1.887015482E0,1.140850865E1
9.037582083E0,-3.391652296E0,-6.219140083E0,4.328889337E0,8.301824592E0
9.047609083E0,-2.603619242E0,-3.102506897E0,4.832245727E0,6.305155111E0
9.057636083E0,-3.503216878E0,-9.244032794E-1,4.770799676E0,5.990624297E0
9.067662083E0,-4.302328652E0,1.252943124E0,4.670828661E0,6.472753563E0
9.077689083E0,-3.800098728E0,3.170912889E0,4.337544970E0,6.581013240E0
9.087716083E0,-3.152009718E0,4.070192437E0,3.973940250E0,6.503370883E0
9.097743083E0,-2.505182828E0,4.249689093E0,4.099570602E0,6.414224623E0
9.107770083E0,-1.835116765E0,4.044347159E0,4.585447618E0,6.383629637E0
9.117797083E0,-1.442306519E0,2.614000681E0,4.660144921E0,5.534455559E0
9.127824083E0,-2.864041509E-1,-4.705394769E-1,4.806360688E0,4.837823664E0
9.137851083E0,1.100075126E0,-4.045542914E0,5.758561338E0,7.123033865E0
9.147878083E0,1.495422772E0,-4.441600558E0,7.213050969E0,8.601872417E0
9.157905083E0,1.881246911E0,-3.546516387E0,8.950065197E0,9.809206668E0
9.167931083E0,2.543455778E0,-2.485661899E0,8.758106954E0,9.452625021E0
9.177958083E0,2.752229444E0,-1.273054038E0,6.659734215E0,7.317615274E0
9.187985083E0,2.026666872E0,-1.295678669E-1,3.432364705E0,3.988144168E0
9.198012083E0,8.693170993E-1,7.549047768E-1,-6.454544015E-1,1.319926068E0
9.208039083E0,-1.106591409E-1,1.357491925E0,-4.978278476E0,5.161229152E0
9.218066083E0,-1.011485424E0,1.658687850E0,-8.090176002E0,8.320174030E0
9.228093083E0,-1.344210851E0,1.590276012E0,-8.708700321E0,8.954180135E0
9.238120083E0,-7.579239135E-1,1.098763157E0,-6.958294215E0,7.085166725E0
9.248147083E0,1.160918621E-1,8.085997581E-1,-4.217493739E0,4.295877597E0
9.258174083E0,1.494910848E-1,6.549214822E-1,-1.733412927E0,1.859029346E0
9.268200083E0,-3.415751888E-1,7.830754924E-1,-5.356751204E-1,1.008379230E0
9.278227083E0,-3.241762139E-1,1.269418239E0,2.831338763E-2,1.310463479E0
9.288254083E0,-3.895217724E-1,1.670843042E0,3.650288093E-1,1.754049519E0
9.298281083E0,-4.517006251E-1,1.970139792E0,9.245746028E-1,2.222683615E0
9.308308083E0,-5.220920384E-1,1.920343734E0,1.426735237E0,2.448647298E0
9.318335083E0,-7.125401645E-1,1.667308985E0,1.459643952E0,2.327701270E0
9.328362083E0,-1.026632490E0,1.287738735E0,1.102396032E0,1.981797752E0
9.338389083E0,-1.395412288E0,8.542834693E-1,3.246988088E-1,1.668054260E0
9.348416083E0,-1.570177524E0,5.854431117E-1,-6.892276812E-1,1.811970168E0
9.358443083E0,-1.550688900E0,5.418410093E-1,-1.773306726E0,2.417197652E0
9.368469083E0,-8.917474571E-1,6.060732579E-1,-2.615687603E0,2.829197758E0
9.378496083E0,3.120705771E-1,4.862480217E-1,-2.987488073E0,3.042845735E0
9.388523083E0,1.316997764E0,7.089105785E-2,-2.885107419E0,3.172278909E0
9.398550083E0,1.966605589E0,-2.826415408E-1,-2.398943013E0,3.114859766E0
9.408577083E0,2.295683670E0,-4.730280519E-2,-1.462198015E0,2.722209416E0
9.418604083E0,2.649030765E0,5.293963802E-1,-6.490801138E-1,2.778296154E0
9.428631083E0,3.228743313E0,1.242267863E0,-6.076818269E-1,3.512447868E0
9.438658083E0,3.634476345E0,2.164737468E0,-1.226827705E0,4.404612676E0
9.448685083E0,3.360125279E0,2.767591249E0,-1.784387199E0,4.704682868E0
9.458712083E0,3.021776145E0,2.599171557E0,-2.051242427E0,4.482679930E0
9.468738083E0,2.394093332E0,1.502336227E0,-1.789221092E0,3.345147103E0
9.478765083E0,1.559969016E0,-8.599669629E-1,-1.150935524E0,2.120777944E0
9.488792083E0,7.314297409E-1,-3.693406046E0,7.522092104E-2,3.765885802E0
9.498819083E0,-3.715202419E-1,-6.730319463E0,1.302558503E0,6.865266639E0
9.508846083E0,-1.290271749E0,-8.834141223E0,2.719062867E0,9.332746391E0
9.518873083E0,-1.851808519E0,-8.873300026E0,4.040358188E0,9.924169609E0
9.528900083E0,-2.568619563E0,-7.291951543E0,4.418992299E0,8.904934402E0
9.538927083E0,-3.237124712E0,-5.444078200E0,3.883663334E0,7.429657108E0
9.548954083E0,-3.635266304E0,-3.784255405E0,3.208263148E0,6.150504247E0
9.558981083E0,-4.197886563E0,-2.534138825E0,2.582031029E0,5.541750213E0
9.569008083E0,-5.393249524E0,-2.433200680E0,1.561629918E0,6.119337707E0
9.579034083E0,-6.230146882E0,-2.772952561E0,2.740087847E-1,6.824886584E0
9.589061083E0,-6.240090657E0,-2.859191975E0,-6.838738243E-1,6.897926758E0
9.599088083E0,-6.608793857E0,-3.027793515E0,-1.104950681E0,7.352863783E0
9.609115083E0,-7.030525455E0,-3.049524107E0,-6.657228975E-1,7.692273554E0
9.619142083E0,-6.452308917E0,-2.613585529E0,1.121343935E-1,6.962448836E0
9.629169083E0,-5.467133186E0,-1.888464714E0,9.364409423E-1,5.859416856E0
9.639196083E0,-4.903581758E0,-1.168411682E0,1.822563963E0,5.360227543E0
9.649223083E0,-4.991147028E0,-4.673761332E-1,2.425279749E0,5.568839284E0
9.659250083E0,-5.071117643E0,1.009089088E-1,2.879407846E0,5.832444281E0
9.669277083E0,-4.677186046E0,7.292436862E-1,3.472804048E0,5.870965306E0
9.679303083E0,-3.926294798E0,1.354146148E0,4.070471641E0,5.815345391E0
9.689330083E0,-3.294915668E0,1.871684375E0,4.658876952E0,6.005398081E0
9.699357083E0,-2.665359700E0,2.336191279E0,4.839974284E0,5.998940164E0
9.709384083E0,-2.205039694E0,2.838745431E0,5.390467418E0,6.479028837E0
9.719411083E0,-1.837790112E0,3.156159779E0,5.432099594E0,6.545725555E0
9.729438083E0,-1.819549869E0,3.635754254E0,4.854871820E0,6.332396948E0
9.739465083E0,-1.965078734E0,4.034848942E0,4.907276906E0,6.650030605E0
9.749492083E0,-2.122619096E0,4.290702633E0,4.700871655E0,6.709235071E0
9.759519083E0,-2.023415528E0,4.503567595E0,4.112121943E0,6.425408809E0
9.769546083E0,-1.790777475E0,4.351182724E0,3.965009505E0,6.153127289E0
9.779572083E0,-1.575701388E0,3.954024049E0,4.031911300E0,5.862887495E0
9.789599083E0,-1.142175883E0,3.239185563E0,4.386194682E0,5.570959760E0
9.799626083E0,-5.898368557E-1,1.974345694E0,4.464125787E0,4.916743585E0
9.809653083E0,-3.202892773E-1,1.138286827E0,3.874746622E0,4.051165697E0
9.819680083E0,8.017811738E-2,1.101180396E0,2.969712537E0,3.168314907E0
9.829707083E0,4.778934469E-1,1.145944925E0,1.870725431E0,2.245258461E0
9.839734083E0,8.725953408E-1,1.140756106E0,7.621167326E-1,1.625905605E0
9.849761083E0,9.964811759E-1,1.106247008E0,-2.878267054E-1,1.516443665E0
9.859788083E0,9.368033235E-1,9.521097261E-1,-1.423823616E0,1.952277410E0
9.869814958E0,9.859228586E-1,3.847005969E-1,-2.467582308E0,2.684958264E0
9.879840958E0,1.404771487E0,-4.799043775E-1,-2.831610074E0,3.197140403E0
9.889867958E0,1.662562800E0,-1.294034432E0,-2.300926137E0,3.119759809E0
9.899894958E0,1.656098118E0,-2.008253113E0,-8.598245832E-1,2.741357302E0
9.909921958E0,1.321970090E0,-2.273539533E0,3.601137860E-1,2.654480903E0
9.919948958E0,4.676260286E-1,-2.051562855E0,1.171061494E0,2.408104913E0
9.929975958E0,-7.375522873E-1,-1.670986299E0,2.024212211E0,2.726465416E0
9.940002958E0,-1.665178113E0,-1.765632255E0,2.745477079E0,3.664412613E0
9.950029958E0,-2.338428424E0,-2.384773455E0,2.656828612E0,4.267801565E0
9.960056958E0,-2.978320808E0,-2.881640605E0,1.491005054E0,4.404241533E0
9.970083958E0,-3.731766412E0,-2.976211132E0,-4.938185580E-1,4.798725875E0
9.980109958E0,-3.441076471E0,-2.491399187E0,-1.490697345E0,4.502250078E0
9.990136958E0,-2.128848574E0,-1.984401736E0,-3.249682923E-1,2.928387080E0
1.000016396E1,-8.641547388E-1,-1.677741002E0,1.324188669E0,2.305440070E0
1.001019096E1,2.870377699E-1,-1.697055525E0,2.087828163E0,2.705811260E0
1.002021796E1,1.292526728E0,-1.999995675E0,2.408566214E0,3.387004466E0
1.003024496E1,2.263349298E0,-2.156414541E0,2.807595559E0,4.201840852E0
1.004027196E1,2.500417640E0,-2.078990974E0,3.007542268E0,4.429402029E0
1.005029896E1,2.309989906E0,-1.874373509E0,3.059036357E0,4.266969985E0
1.006032596E1,1.985893653E0,-1.729095928E0,3.226922783E0,4.164922205E0
1.007035296E1,1.481602585E0,-1.804474724E0,3.639530386E0,4.324055582E0
1.008037896E1,7.617501853E-1,-1.982554600E0,3.849292231E0,4.396343568E0
1.009040596E1,4.898578003E-2,-1.896868333E0,3.708650614E0,4.165885075E0
1.010043296E1,-5.091614326E-1,-1.388036025E0,3.286066200E0,3.603348504E0
1.011045996E1,-9.093548121E-1,-5.867990810E-1,2.585602509E0,2.802962659E0
1.012048696E1,-1.240643798E0,3.365943843E-1,1.673877893E0,2.110535481E0
1.013051396E1,-1.711278585E0,1.209001883E0,9.186969817E-1,2.287829559E0
1.014054096E1,-2.064570571E0,2.022250763E0,5.528261733E-1,2.942374308E0
1.015056796E1,-2.216500529E0,2.720335221E0,5.708775513E-1,3.555137056E0
1.016059496E1,-2.195967739E0,3.215759863E0,8.039184773E-1,3.976137664E0
1.017062196E1,-1.893106234E0,3.446881587E0,7.884817549E-1,4.010803830E0
1.018064796E1,-1.575721123E0,3.698853312E0,9.379074240E-1,4.128448040E0
1.019067496E1,-1.489126490E0,3.603702741E0,1.141729813E0,4.062969126E0
1.020070196E1,-1.933040817E0,2.910826398E0,1.251926440E0,3.711721558E0
1.021072896E1,-2.520862429E0,1.937064432E0,1.558364832E0,3.540546138E0
1.022075596E1,-2.776476385E0,1.460587108E0,2.874067876E0,4.254691760E0
1.023078296E1,-2.695968704E0,1.155216270E0,4.382013338E0,5.273026908E0
1.024080996E1,-2.439367007E0,4.518687326E-1,5.338206174E0,5.886522055E0
1.025083696E1,-2.112506337E0,-5.897332138E-1,5.624933749E0,6.037412357E0
1.026086396E1,-1.854152376E0,-1.996680889E0,5.552508967E0,6.185060342E0
1.027089096E1,-1.219604347E0,-3.533941365E0,5.157749405E0,6.370129925E0
1.028091696E1,-1.060902728E-1,-4.725616779E0,4.116925138E0,6.268315698E0
1.029094396E1,1.922158710E0,-4.984036814E0,2.825573409E0,6.043110305E0
1.030097096E1,4.697482901E0,-3.883504289E0,1.259293639E0,6.223646169E0
1.031099796E1,7.155118511E0,-2.796686994E0,-1.137586330E0,7.766033846E0
1.032102496E1,7.543144419E0,-2.496583913E0,-3.628494059E0,8.734868522E0
1.033105196E1,4.349635258E0,-1.755136503E0,-5.034981265E0,6.881196652E0
1.034107896E1,9.704664749E-1,-8.766005373E-1,-5.059345443E0,5.225630105E0
1.035110596E1,-7.308919432E-1,-7.615957457E-1,-4.774667902E0,4.889957534E0
1.036113296E1,-1.625668916E0,-7.389138114E-1,-4.417286081E0,4.764578614E0
1.037115996E1,-2.168749535E0,-2.691362268E-1,-3.019284647E0,3.727195813E0
1.038118596E1,-2.559345587E0,7.052490520E-1,-7.603413717E-1,2.761475160E0
1.039121296E1,-2.714845563E0,1.778167516E0,1.502116957E0,3.576118216E0
1.040123996E1,-1.934553345E0,3.014572960E0,2.387930221E0,4.304922475E0
1.041126696E1,-1.343280559E0,3.423432498E0,2.078901511E0,4.224467330E0
1.042129396E1,-1.057112928E0,3.224610794E0,1.827058279E0,3.854055587E0
1.043132096E1,-2.606375912E-1,3.007034145E0,2.097279310E0,3.675427432E0
1.044134796E1,5.370682926E-1,2.704188720E0,2.260685745E0,3.565358190E0
1.045137496E1,1.064294113E0,2.222751203E0,1.826419909E0,3.067434523E0
1.046140196E1,1.554713392E0,1.332265282E0,1.088602012E0,2.318861543E0
1.047142896E1,2.389333845E0,2.511770886E-1,5.130993131E-1,2.456680089E0
1.048145496E1,3.218946303E0,-7.517595595E-1,3.097398770E-1,3.320044658E0
1.049148196E1,3.736853490E0,-1.515740969E0,2.493556809E-1,4.040262732E0
1.050150896E1,3.965208311E0,-1.905243300E0,1.706720388E-1,4.402494511E0
1.051153596E1,3.811573012E0,-1.797475607E0,-1.102624074E-1,4.215585983E0
1.052156296E1,3.422217739E0,-1.332410878E0,-6.356016970E-1,3.727047426E0
1.053158996E1,2.713223253E0,-7.682118702E-1,-1.181744795E0,3.057490909E0
1.054161696E1,2.052777175E0,-2.976817489E-1,-1.601065002E0,2.620289620E0
1.055164396E1,1.546595849E0,8.486941159E-2,-1.972610533E0,2.508057785E0
1.056167096E1,1.074179708E0,4.576451969E-1,-2.424580715E0,2.691076516E0
1.057169796E1,6.181394260E-1,9.272701693E-1,-2.723494764E0,2.942677360E0
1.058172396E1,1.201202282E-1,1.574095012E0,-2.632838363E0,3.069860229E0
1.059175096E1,-2.198623252E-1,2.392424537E0,-2.067437460E0,3.169594968E0
1.060177796E1,-1.644501628E-1,3.243040048E0,-1.299192553E0,3.497463924E0
1.061180496E1,-3.490144551E-2,3.940705261E0,-6.549442863E-1,3.994912776E0
1.062183196E1,2.724570067E-1,4.522825985E0,-1.466396901E-1,4.533397281E0
1.063185896E1,7.286403997E-1,5.054661239E0,4.272019610E-1,5.124745709E0
1.064188596E1,1.196152627E0,5.371245866E0,7.157600069E-1,5.549177926E0
1.065191296E1,1.597306265E0,5.195138256E0,1.244309418E-1,5.436573541E0
1.066193996E1,1.998192686E0,3.991112938E0,-1.458716583E0,4.695701286E0
1.067196696E1,2.204971428E0,7.054735851E-1,-2.822077943E0,3.650166557E0
1.068199296E1,2.503521927E0,-4.430495526E0,-1.818118032E0,5.403930590E0
1.069201996E1,2.732223780E0,-7.748331987E0,7.202098842E-1,8.247447948E0
1.070204696E1,2.987288682E0,-8.523249444E0,2.357038503E0,9.334093704E0
1.071207396E1,3.105390744E0,-7.443259358E0,2.479721128E0,8.437687978E0
1.072210096E1,2.633232173E0,-5.898085844E0,1.681054912E0,6.674374421E0
1.073212796E1,1.851145299E0,-4.688985143E0,1.026790803E0,5.144669080E0
1.074215496E1,1.519751574E0,-3.753925313E0,5.838396589E-1,4.091756206E0
1.075218196E1,1.464699454E0,-2.765831237E0,4.658326145E-1,3.164200839E0
1.076220896E1,1.234343131E0,-2.026221607E0,5.897348218E-1,2.444783043E0
1.077223596E1,1.121957746E0,-1.479094715E0,9.883560312E-1,2.103178072E0
1.078226196E1,1.443437955E0,-1.201650179E0,1.590715284E0,2.461270281E0
1.079228896E1,1.161289334E0,-1.173977062E0,2.376493213E0,2.893878894E0
1.080231596E1,1.097385407E0,-8.034109390E-1,3.124591831E0,3.407755563E0
1.081234296E1,1.434580300E0,-1.602376825E-1,3.196679814E0,3.507486078E0
1.082236996E1,2.692779633E0,9.327776617E-1,3.028696325E0,4.158622097E0
1.083239696E1,2.987572272E0,1.658928756E0,2.797875148E0,4.416530091E0
1.084242396E1,2.598526610E0,1.696143360E0,2.265694178E0,3.842214588E0
1.085245096E1,1.927680236E0,1.335480666E0,1.473449228E0,2.769568979E0
1.086247796E1,1.371665283E0,7.323076272E-1,1.028632895E0,1.864356657E0
1.087250504E1,1.111348558E0,2.816650558E-1,6.346824416E-1,1.310439858E0
1.088253104E1,2.761386330E-1,-7.476717710E-2,6.585963842E-2,2.935645881E-1
1.089255804E1,-8.714368612E-1,-4.701863050E-1,-6.520206785E-1,1.185583540E0
1.090258504E1,-1.236625299E0,-4.402959234E-1,-1.410503951E0,1.926817072E0
1.091261204E1,-1.203103358E0,-3.335684502E-1,-1.953105683E0,2.318048190E0
1.092263904E1,-9.261175369E-1,-3.899519813E-1,-2.204785048E0,2.422980261E0
1.093266604E1,1.847923337E-1,1.322564167E-1,-2.433531632E0,2.444118690E0
1.094269304E1,4.057909191E-1,3.016251111E-1,-2.305220917E0,2.360018528E0
1.095272004E1,9.869008054E-1,7.651888597E-1,-2.403120264E0,2.708223439E0
1.096274704E1,1.217001751E0,7.988998121E-1,-2.409747498E0,2.815353828E0
1.097277404E1,7.011805594E-1,6.668907326E-1,-1.915741391E0,2.146267109E0
1.098280004E1,6.902450967E-1,2.384430224E-1,-1.862829351E0,2.000856457E0
1.099282704E1,1.166324299E0,-7.825445652E-2,-1.682785395E0,2.048951638E0
1.100285404E1,7.480207767E-1,-6.850632942E-1,-1.083669739E0,1.484313614E0
1.101288104E1,1.101605269E0,-5.560871655E-1,-2.205318497E-1,1.253555504E0
1.102290804E1,1.024276354E0,-3.016420680E-1,2.735152066E-1,1.102243419E0
1.103293504E1,1.192355372E0,4.433370602E-1,8.098329359E-1,1.508008112E0
1.104296204E1,1.486998250E0,1.536359421E0,1.129321291E0,2.418042730E0
1.105298904E1,1.011506400E0,2.166202195E0,1.397251822E0,2.769095485E0
1.106301604E1,7.566807224E-1,2.451300736E0,1.723355132E0,3.090532952E0
1.107304304E1,5.051802827E-1,2.034327017E0,1.806952774E0,2.767448619E0
1.108306904E1,2.899113109E-1,1.118518560E0,1.320900634E0,1.754967470E0
1.109309604E1,2.415497211E-1,-1.487549204E-1,3.778330056E-1,4.724744165E-1
1.110312304E1,9.024123399E-1,-1.042604744E0,-5.928947667E-1,1.500965319E0
1.111315004E1,1.949499267E0,-1.086443074E0,-1.099006401E0,2.487714014E0
1.112317704E1,2.249928330E0,-7.562952447E-1,-1.679719700E0,2.907854580E0
1.113320404E1,2.267103941E0,-4.874297440E-2,-2.266928086E0,3.206415305E0
1.114323104E1,2.014424995E0,3.699831551E-1,-2.424943827E0,3.174137388E0
1.115325804E1,1.507901461E0,2.052062792E-1,-2.202377164E0,2.677002355E0
1.116328504E1,1.311576371E0,-4.769497794E-1,-1.738453227E0,2.229334720E0
1.117331204E1,1.823088019E0,-8.484064329E-1,-1.045473461E0,2.266375556E0
1.118333804E1,1.640118701E0,-5.021875316E-1,-2.708903915E-1,1.736537726E0
1.119336504E1,8.452642854E-1,-1.663491923E-1,-4.300756482E-1,9.628649070E-1
1.120339204E1,4.433958247E-1,8.190779686E-3,-1.565909495E0,1.627494852E0
1.121341904E1,3.975872755E-2,-3.096393049E-2,-3.097083605E0,3.097493564E0
1.122344604E1,-4.180358657E-1,-5.452797568E-1,-4.406869851E0,4.460110524E0
1.123347304E1,-8.946361278E-1,-1.710816363E0,-4.761965411E0,5.138441495E0
1.124350004E1,-1.260130814E0,-3.438818277E0,-4.070806979E0,5.475844252E0
1.125352704E1,-1.150241898E0,-4.606707217E0,-2.971351511E0,5.601226438E0
1.126355404E1,-1.307524543E0,-4.639936359E0,-1.881519392E0,5.174818361E0
1.127358104E1,-1.865817717E0,-4.062701569E0,-1.059352339E0,4.594458311E0
1.128360704E1,-3.295355671E0,-4.185841591E0,-6.256345332E-1,5.363959116E0
1.129363404E1,-1.994490522E0,-2.355104098E0,-6.681940770E-1,3.157687616E0
1.130366104E1,-1.033991357E0,-1.026576941E0,2.299837824E-1,1.475090127E0
1.131368804E1,-8.457754782E-1,-9.445633096E-1,7.947278237E-1,1.496371718E0
1.132371504E1,-2.866492224E-1,-6.714854747E-1,1.528736991E0,1.694136153E0
1.133374204E1,-5.221154273E-2,-3.177523166E-1,2.388415832E0,2.410025470E0
1.134376904E1,7.526495057E-1,2.325420123E-1,3.047427295E0,3.147597526E0
1.135379604E1,5.066339006E-1,-1.006574786E-1,2.978955231E0,3.023406043E0
1.136382304E1,-5.468219599E-1,-3.264412791E-1,3.053163414E0,3.118875598E0
1.137385004E1,-6.136287376E-1,3.784317970E-1,3.218811525E0,3.298560063E0
1.138387604E1,-7.299699104E-1,7.172814524E-1,2.787385243E0,2.969320671E0
1.139390304E1,-1.244709806E0,2.973209757E-1,2.184184284E0,2.531474521E0
1.140393004E1,-1.519143903E0,-6.929535270E-3,1.705381229E0,2.283893901E0
1.141395704E1,-1.272516825E0,-2.812960964E-1,1.051979585E0,1.674839577E0
1.142398404E1,-7.388882299E-1,-5.862289774E-1,9.543628044E-1,1.341800504E0
1.143401104E1,-6.727439417E-1,-8.150556690E-1,1.604278047E0,1.921095574E0
1.144403804E1,-8.811028934E-1,-1.098082541E0,2.492837602E0,2.862929773E0
1.145406504E1,-8.344080524E-1,-1.152649927E0,3.222806050E0,3.522969982E0
1.146409204E1,-1.000976223E0,-1.213700706E0,3.509908432E0,3.846359318E0
1.147411904E1,-1.354456635E0,-1.158388969E0,3.026184361E0,3.512009335E0
1.148414504E1,-7.407849205E-1,-6.193581319E-1,2.334292396E0,2.526121094E0
1.149417204E1,7.211029002E-1,5.417801982E-1,1.431514167E0,1.691965716E0
1.150419904E1,1.385977951E0,1.077632489E0,8.935481071E-1,1.969937787E0
1.151422604E1,1.803494731E0,1.387547198E0,1.628024759E0,2.797917991E0
1.152425304E1,1.540417389E0,1.559512056E0,2.719959538E0,3.493299797E0
1.153428004E1,2.389324343E-1,1.471575780E0,3.592321136E0,3.889395214E0
1.154430704E1,-1.666574721E0,1.190520004E0,3.638652719E0,4.175476355E0
1.155433404E1,-3.643981286E0,1.177659053E0,3.122097993E0,4.940948931E0
1.156436104E1,-5.546819626E0,1.451561345E0,2.722947757E0,6.347336669E0
1.157438804E1,-6.705999724E0,1.949839429E0,2.078136696E0,7.286354247E0
1.158441404E1,-7.240126501E0,2.224394855E0,1.762058145E0,7.776388180E0
1.159444104E1,-6.495225726E0,2.527754250E0,1.601730707E0,7.151436222E0
1.160446804E1,-3.815563737E0,2.762108315E0,9.719288635E-1,4.809616896E0
1.161449504E1,-7.793057925E-1,2.626913087E0,4.069869670E-1,2.770131455E0
1.162452204E1,8.586352596E-1,1.518823621E0,5.410165519E-2,1.745567727E0
1.163454904E1,1.216923983E0,-8.499805033E-2,-6.399090484E-1,1.377538471E0
1.164457604E1,7.096347561E-1,-1.244223756E0,-1.175330984E0,1.852856488E0
1.165460304E1,-3.106099719E0,-3.043145379E0,-1.999122101E0,4.785925035E0
1.166463004E1,-1.507738470E0,-5.558257949E-1,-2.208847986E0,2.731524672E0
1.167465704E1,1.007702421E0,9.559560245E-1,-3.082668464E0,3.381147875E0
1.168468304E1,2.565145148E0,-9.279548782E-1,-4.324896858E0,5.113296658E0
1.169471004E1,3.504400940E0,-2.209913641E0,-5.532613231E0,6.911899407E0
1.170473704E1,4.396332584E0,-2.802373411E0,-5.875595698E0,7.855167836E0
1.171476404E1,3.827768045E0,-2.898481756E0,-2.631349955E0,5.475126234E0
1.172479104E1,1.268524200E0,-1.619270600E0,-4.647051251E-1,2.108824738E0
1.173481804E1,7.546562701E-2,1.771378899E-1,2.597793369E0,2.604919054E0
1.174484504E1,-1.343139934E0,1.571818106E0,4.711195791E0,5.144900662E0
1.175487204E1,-2.861817375E0,2.146549703E0,4.998174797E0,6.146497020E0
1.176489904E1,-3.815815752E0,2.896824070E0,3.516252953E0,5.942732905E0
1.177492604E1,-4.776919080E0,2.887205985E0,2.342420026E0,6.053250852E0
1.178495204E1,-5.418205440E0,2.093033647E0,2.743921720E0,6.423927649E0
1.179497904E1,-5.580116596E0,5.036358869E-1,3.583348584E0,6.650694505E0
1.180500604E1,-6.996519803E0,-2.624805751E0,2.597496330E0,7.911250329E0
1.181503304E1,-5.867783818E0,-3.687883351E0,2.533246832E0,7.378936919E0
1.182506004E1,-2.631964205E0,-2.036436692E0,3.126224081E0,4.565915788E0
1.183508704E1,2.722893378E-1,-2.053489512E-1,2.798908936E0,2.819610063E0
1.184511404E1,2.028788534E0,3.563462788E-1,1.349669227E0,2.462635298E0
1.185514104E1,4.155439286E0,1.006748448E0,-3.543012151E-1,4.290308549E0
1.186516804E1,5.992835881E0,1.896719813E0,-1.139558011E0,6.388287752E0
1.187519483E1,6.865518783E0,2.214036512E0,-1.329309222E0,7.335146137E0
1.188522083E1,6.477087663E0,3.098650659E0,-1.984663399E0,7.449375095E0
1.189524783E1,4.312509824E0,3.460500337E0,-2.015261586E0,5.885072882E0
1.190527483E1,2.172650505E0,3.768373783E0,-1.625331239E0,4.643571128E0
1.191530183E1,9.461213002E-1,3.731512350E0,-1.418067032E0,4.102468043E0
1.192532883E1,2.229835689E-1,1.831179543E0,-3.229037136E-2,1.844988579E0
1.193535583E1,2.928192043E-1,-1.969361528E0,2.865313133E0,3.489147068E0
1.194538283E1,-1.462087503E-1,-2.943736866E0,3.962107240E0,4.938143124E0
1.195540983E1,-1.192000811E0,-2.267712783E0,2.452406445E0,3.546503146E0
1.196543683E1,-2.572997374E0,-1.934139655E0,-9.384898067E-1,3.352905427E0
1.197546383E1,-4.222987491E0,-1.749227307E0,-1.995971329E0,4.987717019E0
1.198548983E1,-3.153445501E0,1.243007535E0,-2.045808902E0,3.959118630E0
1.199551683E1,-2.212484369E0,-1.431482592E0,-9.609850685E-1,2.804945952E0
1.200554383E1,-1.134838724E0,2.574063029E0,3.834259039E0,4.755544320E0
1.201557083E1,-4.816994727E-1,5.080842732E0,2.792108624E0,5.817462317E0
1.202559783E1,-1.854823344E0,4.737788343E-1,2.752098759E-1,1.934057004E0
1.203562483E1,-3.089132269E0,-1.836207563E0,-4.823849125E-1,3.625891834E0
1.204565183E1,-2.457141227E0,-9.006279159E-1,5.051411064E-1,2.665303208E0
1.205567883E1,-1.421156116E0,2.059155464E-2,9.756792676E-1,1.723965995E0
1.206570583E1,-8.776375410E-1,-9.740174890E-2,3.859103858E-1,9.636708878E-1
1.207573283E1,1.050142390E0,9.901692528E-1,-3.225899520E0,3.534071575E0
1.208575883E1,1.478337208E0,9.028551203E-1,-4.395733244E0,4.724732693E0
1.209578583E1,7.907929400E-1,-7.172750205E-1,-3.297205145E0,3.465746485E0
1.210581283E1,7.761915654E-1,-9.070692086E-1,-2.169709940E0,2.476467064E0
1.211583983E1,1.306682398E0,-8.176220119E-2,-1.092072627E0,1.704912481E0
1.212586683E1,1.704879100E0,-4.961771786E-2,-5.165463929E-1,1.782104048E0
1.213589383E1,1.001110563E0,-4.863877702E-1,-3.265718181E-1,1.159933004E0
1.214592083E1,3.611551751E-1,-1.060981373E0,-5.304743144E-1,1.239966747E0
1.215594783E1,-9.279562669E-1,-1.192384096E0,-2.801025335E-1,1.536665252E0
1.216597483E1,-2.744573100E0,-1.389463915E0,-1.828001873E-1,3.081672822E0
1.217600183E1,-2.542091623E0,-1.644624127E0,-2.974268103E-1,3.042282210E0
1.218602783E1,-2.930588817E0,-1.049762321E0,1.640636618E-1,3.117253379E0
1.219605483E1,-1.893978931E0,-1.062606899E0,6.614114530E-1,2.270188257E0
1.220608183E1,-1.702007678E0,-1.556545764E0,4.098779766E-1,2.342576532E0
1.221610883E1,-2.782092636E0,-8.818665397E-1,1.242042160E-1,2.921156400E0
1.222613583E1,-3.839021596E0,-1.620116107E0,-1.568213005E-1,4.169826848E0
1.223616283E1,-4.922111292E0,-2.280621681E0,-1.002921299E0,5.516726018E0
1.224618983E1,-4.104415020E0,-1.993456734E0,-1.289756755E0,4.741683762E0
1.225621683E1,-1.954690863E0,-3.272250398E0,-1.546634295E0,4.113455565E0
1.226624383E1,-5.491783878E-1,-4.209334534E0,-1.713584873E0,4.577823417E0
1.227627083E1,2.719437674E-1,-3.717496575E0,-1.819589338E0,4.147847581E0
1.228629683E1,9.610764313E-1,-3.033778140E0,-2.140850422E0,3.835455415E0
1.229632383E1,2.269894379E0,-3.097057292E0,-2.671440804E0,4.677689636E0
1.230635083E1,5.071274933E0,-1.845404649E0,-3.745554439E0,6.569058214E0
1.231637783E1,4.497540578E0,-1.130974883E0,-2.388827330E0,5.216653281E0
1.232640483E1,2.299230152E0,-2.413141222E0,-5.270292811E-1,3.374532518E0
1.233643183E1,-7.150413841E-2,-2.604200748E0,2.049260513E-1,2.613229623E0
1.234645883E1,-1.855785211E0,-2.487773913E0,1.305340608E0,3.367027160E0
1.235648583E1,-1.686433181E0,-1.083088526E0,2.488187896E0,3.195029990E0
1.236651283E1,-2.710325373E0,-1.866887904E0,1.465872552E0,3.602765106E0
1.237653883E1,-3.780892671E0,-4.574934032E0,1.728459166E0,6.181645564E0
1.238656583E1,-1.745170216E0,-2.002188966E0,1.217179799E-1,2.658795781E0
1.239659283E1,-7.030136615E-1,-1.629993224E0,-3.854999844E-1,1.816512141E0
1.240661983E1,7.871439850E-1,-1.331590514E0,-6.914309120E-1,1.694345200E0
1.241664683E1,6.604485628E-1,-2.195114923E0,-1.023092000E0,2.510266733E0
1.242667383E1,1.336892184E0,-1.312998122E0,-1.488934994E-2,1.873890731E0
1.243670083E1,2.348920375E0,-7.203652740E-2,3.019525735E-1,2.369344118E0
1.244672783E1,1.663481690E0,2.119241452E0,4.473821640E-2,2.694504996E0
1.245675483E1,-9.428021282E-2,4.935217826E0,9.956381536E-1,5.035529672E0
1.246678183E1,-3.465863988E-1,3.625880061E0,-2.381806651E-2,3.642484818E0
1.247680783E1,-7.856777957E-1,7.180146933E-1,1.301462735E0,1.681261416E0
1.248683483E1,-2.559677124E-1,3.716741699E-1,2.398257719E0,2.440348591E0
1.249686183E1,1.365297958E0,-1.998954286E0,2.053348010E0,3.174286502E0
1.250688883E1,1.955791894E0,-4.599688804E0,1.854769549E0,5.331268996E0
1.251691583E1,1.344961049E0,-3.225678495E0,-4.556302829E-1,3.524417815E0
1.252694283E1,-3.196290682E0,-2.013526132E0,-3.832019556E-1,3.797025855E0
1.253696983E1,-2.774167612E0,-8.280686474E-1,-2.280270117E0,3.685286343E0
1.254699683E1,4.352629325E-1,-5.324299157E-2,-4.532788471E0,4.553949929E0
1.255702383E1,1.478502099E0,1.977592653E-1,-4.537898937E0,4.776777570E0
1.256705083E1,-1.612157170E0,1.017991474E0,-3.926907879E0,4.365313605E0