"Time (s)","Linear Acceleration x (m/s^2)","Linear Acceleration y (m/s^2)","Linear Acceleration z (m/s^2)","Absolute acceleration (m/s^2)"
6.952541647E-3,1.240966272E-1,1.190383179E0,-1.780157908E0,2.145081412E0
1.697954163E-2,-3.402202427E-3,1.170341190E0,-1.105168782E0,1.609691931E0
2.700654161E-2,-1.172255641E-1,1.199520623E0,-6.868443561E-1,1.387208250E0
3.703354171E-2,-1.850851330E-1,9.774302895E-1,8.708024383E-2,9.986037483E-1
4.706054169E-2,2.972829688E-1,4.088558833E-1,1.059928290E0,1.174303315E0
5.708754167E-2,5.795295301E-1,-7.529868901E-2,1.962916142E0,2.048063512E0
6.711454166E-2,4.425374535E-1,-4.068723616E-1,2.222784532E0,2.302641003E0
7.714154164E-2,1.364199266E-1,-7.419768754E-1,1.932259190E0,2.074310887E0
8.716854162E-2,-5.338771015E-2,-9.726064096E-1,1.369071166E0,1.680228953E0
9.719554172E-2,3.081400788E-1,-1.016054876E0,3.681108767E-1,1.123754171E0
1.072225417E-1,8.901052666E-1,-9.619295400E-1,-6.506664634E-1,1.463202881E0
1.172485417E-1,1.346714045E0,-8.042672637E-1,-1.261536192E0,2.012947618E0
1.272755417E-1,1.438251913E0,-5.042974994E-1,-1.205050920E0,1.942944223E0
1.373025416E-1,1.121907021E0,-2.939628466E-1,-9.086707610E-1,1.473354021E0
1.473295416E-1,6.444692919E-1,-1.844773332E-1,-7.001917952E-1,9.693508677E-1
1.573565417E-1,3.965388697E-1,-2.912885677E-1,-7.276035422E-1,8.783501691E-1
1.673835417E-1,4.535302189E-1,-7.909639710E-1,-9.290512311E-1,1.301710357E0
1.774105417E-1,8.059555010E-1,-4.667172251E-1,3.197549880E-2,9.318860823E-1
1.874375417E-1,1.030451306E0,-4.988531569E-1,6.771344697E-1,1.330111069E0
1.974645416E-1,-1.009422380E-1,-1.023621831E0,1.062808043E0,1.479037500E0
2.074915416E-1,-1.416107630E0,-1.498115999E0,1.587547116E0,2.601925867E0
2.175185416E-1,-1.579210010E0,-1.633395280E0,2.098217204E0,3.092636388E0
2.275455417E-1,-5.965310405E-1,-1.334569378E0,2.321996579E0,2.743828132E0
2.375725417E-1,3.258159193E-1,-7.273255071E-1,2.161278255E0,2.303536868E0
2.475995417E-1,1.117146072E0,1.047517721E-1,1.534556724E0,1.901013577E0
2.576255416E-1,1.614747194E0,5.753833426E-1,6.767842215E-1,1.842962662E0
2.676525416E-1,1.773399112E0,6.404778363E-1,-3.167752469E-1,1.911936930E0
2.776795416E-1,1.303615680E0,1.089231026E-1,-1.140043915E0,1.735217050E0
2.877065417E-1,1.217953678E0,-5.228667945E-2,-1.670469990E0,2.067997835E0
2.977335417E-1,7.570483661E-1,2.017675316E-1,-1.648694959E0,1.825384188E0
3.077605417E-1,-3.945361984E-1,1.631222601E-1,-1.377030981E0,1.441694144E0
3.177875417E-1,-8.732845813E-1,-6.847273716E-1,1.124952836E0,1.580188728E0
3.278145416E-1,-7.211388606E-1,-7.901608559E-1,1.385973127E0,1.750804656E0
3.378415416E-1,-8.255894279E-1,-1.079142825E0,-6.824718082E-1,1.520498244E0
3.478685416E-1,-1.540735770E0,-1.547024158E0,-5.993331724E-1,2.264144586E0
3.578955417E-1,-6.492777497E-2,-9.943902116E-1,-2.518288777E0,2.708284674E0
3.679225417E-1,9.130868706E-1,1.282148212E-2,-2.223668046E0,2.403870130E0
3.779495417E-1,1.810465196E0,4.091602309E-1,-1.658518281E0,2.489152308E0
3.879765416E-1,1.934813839E0,7.128515287E-1,-1.519553939E0,2.561387527E0
3.980035416E-1,1.768966045E0,5.740061040E-1,-1.646496406E0,2.483882906E0
4.080305416E-1,1.904013045E0,3.439025999E-1,-1.731403824E0,2.596400177E0
4.180565417E-1,3.169028916E0,2.827882693E-1,-2.221548430E0,3.880462718E0
4.280835417E-1,3.187300880E0,2.748105110E-1,-2.590190234E0,4.116247462E0
4.381105417E-1,2.987041053E0,2.297946615E-1,-3.097887012E0,4.309538697E0
4.481375417E-1,2.796237928E0,2.232314178E-1,-3.437833605E0,4.437057438E0
4.581645416E-1,2.088534214E0,1.196825641E-1,-3.548953507E0,4.119632274E0
4.681915416E-1,1.081974485E0,-1.037312064E0,-4.256962445E0,4.513137973E0
4.782185417E-1,1.154217858E0,-2.873688977E0,-4.983932149E0,5.867698600E0
4.882455417E-1,1.558089136E0,-4.730715259E0,-5.436635279E0,7.373215837E0
4.982726667E-1,-3.663812703E-1,-5.732628937E0,-5.928883713E0,8.255236632E0
5.082996667E-1,-7.034299102E-1,-5.738605961E0,-5.582349063E0,8.036730247E0
5.183266667E-1,1.323123745E0,-5.012416275E0,-5.825363438E0,7.798065949E0
5.283536667E-1,2.287470232E0,-2.529824165E0,-5.051934682E0,6.095455225E0
5.383806666E-1,-1.248803588E0,-2.310175994E0,-3.023796358E0,4.004967907E0
5.484076666E-1,-4.246219355E0,-4.236017134E0,-1.445004863E0,6.169461810E0
5.584346667E-1,-5.684136808E0,-4.902370215E0,-8.261998773E-1,7.551506552E0
5.684606667E-1,-7.213297137E0,-5.372150431E0,-4.057715063E0,9.866950257E0
5.784876667E-1,-8.169602240E0,-5.952890042E0,-5.309412146E0,1.141793142E1
5.885146667E-1,-8.427769091E0,-5.511778432E0,-4.574907719E0,1.106059555E1
5.985416666E-1,-6.578377225E0,-4.718460080E0,-2.200974417E0,8.389469639E0
6.085686666E-1,-2.948121108E0,-3.581989983E0,-8.482731164E-2,4.639964006E0
6.185956667E-1,1.490220212E0,-3.575747496E0,2.536510456E-1,3.882146994E0
6.286226667E-1,4.153112386E0,-3.307052441E0,5.893982853E0,7.932463187E0
6.386496667E-1,6.425595912E0,-3.043922182E0,9.930090115E0,1.221312551E1
6.486766667E-1,8.110253586E0,-2.357412871E0,1.225705507E1,1.488519425E1
6.587036666E-1,9.259044936E0,-2.106807640E0,1.246275778E1,1.566808486E1
6.687306666E-1,9.527217541E0,-1.262310071E0,1.114973978E1,1.471998634E1
6.787576666E-1,9.226732637E0,3.307749429E-1,9.087118084E0,1.295444797E1
6.887846667E-1,8.702487069E0,1.492324625E0,7.277265092E0,1.144197978E1
6.988116667E-1,7.584162052E0,1.914553236E0,4.556032323E0,9.052207391E0
7.088386667E-1,6.458815114E0,2.159370601E0,2.283438869E0,7.182845337E0
7.188656667E-1,7.942343772E0,2.667769630E0,1.331489941E0,8.483553787E0
7.288916666E-1,2.292266177E1,6.227136151E0,1.725799853E-1,2.375406136E1
7.389186666E-1,1.955961230E1,6.982313408E0,-1.741356955E0,2.084138809E1
7.489456667E-1,6.348881028E0,2.720186702E0,-1.048995166E0,6.986279185E0
7.589726667E-1,6.345474440E-1,-5.020600623E-1,-2.163341153E0,2.309709875E0
7.689996667E-1,-9.492685640E-1,-1.028855601E0,-2.552110827E0,2.910828804E0
7.790266667E-1,-1.199645754E0,-3.398676556E-1,-9.860615838E-1,1.589646943E0
7.890536666E-1,-2.183843830E0,2.825666964E-2,-1.605410360E0,2.710593060E0
7.990806666E-1,-2.984409513E0,-1.952736139E-2,-2.914170420E-1,2.998667263E0
8.091076667E-1,-2.419766702E0,-5.104560792E-2,1.524941563E0,2.860650855E0
8.191346667E-1,-1.663185529E0,7.848922223E-1,2.744138651E0,3.303413211E0
8.291616667E-1,-7.654139775E-1,1.473208907E0,2.765060574E0,3.225176432E0
8.391886667E-1,1.025948365E0,1.545186378E0,2.889488738E0,3.433557362E0
8.492156666E-1,1.590742620E0,1.348017097E0,3.886972858E0,4.410914890E0
8.592426666E-1,1.182395883E0,-4.562974137E-1,3.665955123E0,3.878852190E0
8.692696666E-1,2.593469937E0,-2.093478035E0,1.411458802E0,3.619523801E0
8.792966667E-1,1.659968975E0,-1.069744011E0,-1.283668488E0,2.355345842E0
8.893226667E-1,-1.160386963E0,-3.176540834E-1,-1.504132492E0,1.926088413E0
8.993496667E-1,-8.049785775E-1,-1.428381228E-1,-1.899828778E0,2.068270443E0
9.093766666E-1,-9.834665895E-1,9.566518432E-1,-1.677022964E0,2.166747633E0
9.194036666E-1,-7.309282690E-1,8.753176582E-1,-5.664051622E-1,1.273283922E0
9.294306666E-1,6.117760473E-1,2.383810419E-1,7.516040236E-1,9.980000308E-1
9.394576667E-1,9.935834420E-1,2.657957125E-1,3.943163431E-1,1.101517497E0
9.494846667E-1,5.609210587E-1,4.706681156E-1,4.779870754E-1,8.744327038E-1
9.595116667E-1,-5.623249751E-1,7.011460608E-1,-6.841528827E-1,1.129548734E0
9.695386667E-1,-2.227537149E0,7.163301104E-1,-6.628204858E-1,2.431950158E0
9.795656666E-1,-2.634759466E0,2.622262797E0,-3.583930966E0,5.163601533E0
9.895926666E-1,-1.816205993E0,3.364094369E0,-3.843261412E0,5.420921823E0
9.996196667E-1,-9.067400104E-1,3.476050422E0,-1.236390241E0,3.799179492E0
1.009646667E0,3.114887792E0,4.912879708E0,-1.773253516E0,6.081393016E0
1.019673667E0,7.015764159E0,6.024399151E0,-3.260638998E0,9.805411696E0
1.029700667E0,9.866098187E0,6.208344369E0,-5.604287231E0,1.293412033E1
1.039726667E0,9.887328258E0,6.296881154E0,-6.993269920E0,1.364975445E1
1.049753667E0,7.982122965E0,6.239108909E0,-9.099017168E0,1.361737421E1
1.059780667E0,4.900652595E0,4.207153523E0,-8.761710008E0,1.088504014E1
1.069807667E0,2.312802417E0,8.995917892E-1,-5.423266205E0,5.964070484E0
1.079834667E0,9.437388521E-1,-1.058609450E0,-2.679164391E0,3.031372432E0
1.089861667E0,-2.216217524E-1,-1.695554837E0,-1.026466575E0,1.994406186E0
1.099888667E0,-1.261294702E0,-2.868951563E0,-1.359096401E0,3.415975764E0
1.109915667E0,2.328823203E-1,-2.770475973E0,-2.812318940E0,3.954606063E0
1.119942667E0,1.638814334E0,-1.508593625E0,-3.238416070E0,3.930509609E0
1.129969667E0,1.528470358E0,1.048930554E0,-4.435689608E0,4.807475350E0
1.139996667E0,5.495055395E-1,9.022087106E-1,3.113286824E0,3.287627069E0
1.150023667E0,-1.012831306E0,5.292560470E-1,8.051910653E0,8.132601329E0
1.160050667E0,-1.764610747E0,5.609646204E-1,9.455019046E0,9.634620779E0
1.170077667E0,-2.979056972E0,-5.892005324E-1,7.671848652E0,8.251012026E0
1.180104667E0,-2.065089803E0,2.600359127E-1,6.717482486E0,7.032551850E0
1.190131667E0,7.153015852E-2,1.355223790E0,4.202719287E0,4.416400966E0
1.200157667E0,1.441525769E0,4.386148489E-1,1.710841506E0,2.279771521E0
1.210184667E0,-1.821570813E0,-1.864772089E0,-8.290224744E-1,2.735465853E0
1.220211667E0,-4.731552873E0,-3.281241662E0,-3.177445106E0,6.576495786E0
1.230238667E0,-3.931257330E0,-1.910840839E0,-3.040269426E0,5.324409366E0
1.240265667E0,-3.196766353E0,-1.570827295E0,-2.221913589E0,4.198060684E0
1.250292667E0,-2.101239629E0,-3.605747805E0,-5.941425991E-1,4.215403971E0
1.260319667E0,-2.413759857E0,-4.948393942E0,1.814719338E0,5.797072151E0
1.270346667E0,-3.029734206E0,-5.444771680E0,2.499738486E0,6.713681590E0
1.280373667E0,1.494267654E-1,-6.693377924E0,2.245870801E0,7.061697533E0
1.290400667E0,3.123332341E0,-5.992545859E0,3.187125463E0,7.471517884E0
1.300427667E0,2.248094205E0,-5.822940352E0,2.252167083E0,6.635722904E0
1.310454667E0,-9.383868957E-1,-5.695062915E0,1.117007639E0,5.878946984E0
1.320481667E0,-3.838605275E0,-5.359352045E0,6.633117981E-1,6.625520911E0
1.330508667E0,-4.132854123E0,-5.631534086E0,5.753119335E-2,6.985554324E0
1.340535667E0,-3.408022161E0,-5.203348916E0,7.751282492E-1,6.268195817E0
1.350562667E0,-1.458138294E0,-3.738401248E0,1.557490966E0,4.304368627E0
1.360588667E0,6.382258689E0,-1.562523665E0,-2.158420721E-1,6.574290378E0
1.370615667E0,8.437078443E0,-4.653483188E-1,2.694291723E-1,8.454196223E0
1.380642667E0,7.594488820E0,-4.149467817E-1,9.123773110E-1,7.660344224E0
1.390669667E0,6.970086880E0,8.426884407E-1,2.454931272E0,7.437669156E0
1.400696667E0,8.834648176E0,1.812506459E0,3.775012711E0,9.776855785E0
1.410723667E0,1.503203486E1,2.675820953E0,1.199272116E0,1.531536299E1
1.420750667E0,1.512494946E1,2.123173120E0,-1.122998697E0,1.531447310E1
1.430777667E0,1.444788866E1,2.324564091E0,-2.147570043E0,1.479044090E1
1.440804667E0,1.147000581E1,2.938600672E0,-3.292747228E0,1.228977590E1
1.450831667E0,6.515389264E0,3.392089083E0,-6.262206581E0,9.652553904E0
1.460858667E0,2.551027923E0,2.775618306E0,-4.639208965E0,5.977797276E0
1.470885667E0,-1.280303416E0,1.930815513E0,-1.686883124E0,2.865798328E0
1.480912667E0,-3.901004421E0,5.940543061E-1,-2.130955764E0,4.484607952E0
1.490939667E0,-5.832024001E0,-4.025047839E-2,3.807460884E-1,5.844577969E0
1.500967417E0,-5.114235595E0,8.152772784E-3,5.836129697E-1,5.147433952E0
1.510994417E0,-3.747519688E0,-6.806749588E-1,8.220050848E-1,3.896525962E0
1.521021417E0,-6.151076154E0,-1.358112314E0,6.758434045E-1,6.335374592E0
1.531047417E0,-7.501399977E0,-1.512089968E0,1.824008517E0,7.866665416E0
1.541074417E0,-6.667406346E0,-1.819331914E0,9.969577970E-1,6.982707272E0
1.551101417E0,-5.343478609E0,-9.130517873E-1,4.002079245E-1,5.435677841E0
1.561128417E0,-4.465430886E0,4.239962250E-1,-8.568333670E-1,4.566619013E0
1.571155417E0,-1.329755073E0,1.468507454E0,-3.692983292E0,4.190809980E0
1.581182417E0,3.570464244E0,2.808850664E0,-1.430387993E0,4.762758316E0
1.591209417E0,1.342765127E0,2.749665440E0,2.390634120E-1,3.069336986E0
1.601236417E0,-5.594370938E0,2.500581947E0,-8.885463989E-1,6.191882667E0
1.611263417E0,-2.421319723E0,4.313757327E0,1.177274306E0,5.085004058E0
1.621290417E0,-4.247300506E-1,4.389396324E0,6.695761249E0,8.017506745E0
1.631317417E0,-1.826458501E0,6.548199161E0,-1.626075590E0,6.989920223E0
1.641344417E0,-6.532177205E0,6.523556655E0,-1.308795143E0,9.324112569E0
1.651371417E0,-5.912896256E0,3.955647236E0,-1.871664494E0,7.356127730E0
1.661398417E0,-4.753571148E0,2.191567417E0,-7.454153305E-1,5.287253580E0
1.671425417E0,-5.961740388E0,1.479233001E0,-1.141678212E0,6.247712210E0
1.681452417E0,-8.651413395E0,1.189839242E0,-2.328422084E0,9.037932316E0
1.691478417E0,-1.013071276E1,-8.098569095E-1,-2.517448533E0,1.047018416E1
1.701505417E0,-8.536498066E0,-1.632009636E0,-9.636537378E-1,8.744362939E0
1.711532417E0,-6.230012981E0,-7.713728750E-1,5.156356890E-1,6.298726698E0
1.721559417E0,-6.646496118E0,-2.238524652E-1,1.484704095E0,6.813983184E0
1.731586417E0,-7.381095269E0,-5.615081191E-3,1.035078939E0,7.453320556E0
1.741613417E0,-7.410530738E0,-2.665198901E-1,6.336373249E-1,7.442344720E0
1.751640417E0,-5.776513460E0,-1.839542523E0,-1.061357057E0,6.154551425E0
1.761667417E0,-6.291308173E0,-3.404753568E0,9.304089546E-2,7.154129017E0
1.771694417E0,-6.670759724E0,-5.046424266E0,1.240272062E0,8.455986516E0
1.781721417E0,-5.482162870E0,-6.226834434E0,1.182959262E0,8.380153305E0
1.791748417E0,2.123293573E-1,-6.577193749E0,1.626741880E0,6.778705666E0
1.801775417E0,1.674296408E1,-4.360029561E0,3.898526663E0,1.773514065E1
1.811802417E0,2.464598123E1,-2.039752064E0,-2.846212910E0,2.489349126E1
1.821829417E0,1.782334827E1,-4.311067316E0,-1.328721431E0,1.838538946E1
1.831856417E0,5.005584973E0,-9.370782888E0,7.407311261E0,1.295128229E1
1.841883417E0,4.107478961E0,-9.460227161E0,-1.027508987E0,1.036450945E1
1.851909417E0,5.069100938E0,-1.012132564E1,-3.892420124E0,1.197029454E1
1.861936417E0,4.905075429E0,-5.184850665E0,-1.409549393E0,7.275250571E0
1.871963417E0,8.793013662E-1,-2.120692146E0,5.099508798E-1,2.351713412E0
1.881990417E0,3.916275010E-1,-3.383678448E-1,9.089132743E-1,1.045938927E0
1.892017417E0,-2.010919443E0,-1.295400926E0,-2.601689368E0,3.534211105E0
1.902044417E0,-5.949606246E0,-7.691339761E0,-5.952577801E0,1.140121503E1
1.912071417E0,-9.013032693E-1,-8.026505086E0,-5.263057759E0,9.640379061E0
1.922098417E0,2.137611065E0,-6.826244205E0,-3.187778013E0,7.831278291E0
1.932125417E0,2.941613157E0,-4.782168126E0,-1.331505729E0,5.770193017E0
1.942152417E0,3.164858097E0,-2.006469712E0,-6.065270019E-1,3.796066712E0
1.952179417E0,2.282347486E0,2.966777819E-1,-7.152500566E-1,2.410126635E0
1.962206417E0,3.049530539E-1,3.255729675E-1,-1.176543916E0,1.258272510E0
1.972233417E0,-1.040742406E0,-2.221848392E-1,-1.477006674E0,1.820455869E0
1.982260417E0,-1.313235811E0,-7.469367760E-1,-1.654440287E0,2.240463235E0
1.992287417E0,-7.744856402E-1,-1.228201216E0,-1.971045964E0,2.448127535E0
2.002314417E0,-1.156620187E-1,-1.226423662E0,-2.369988624E0,2.671018304E0
2.012341417E0,1.822927952E-1,-8.388216770E-1,-2.390946361E0,2.540369455E0
2.022367417E0,8.348888397E-2,-4.056014693E-1,-2.893231541E0,2.922716492E0
2.032394417E0,-1.662427729E-1,1.867249846E-2,-4.118724911E0,4.122120840E0
2.042421417E0,-1.462276076E0,1.734003496E-1,-7.064632264E0,7.216463679E0
2.052448417E0,-2.717789051E0,-1.226458746E0,-1.251745264E1,1.286768040E1
2.062475417E0,-2.924321479E0,-2.631580920E0,-1.169588141E1,1.233979401E1
2.072502417E0,-2.799905886E0,-2.955795579E0,-6.293838848E0,7.495906077E0
2.082529417E0,-1.600476480E0,-2.336353247E0,1.238839055E0,3.091082927E0
2.092556417E0,-6.856684810E-1,-3.792935597E0,5.215759047E0,6.485417808E0
2.102583417E0,1.246372608E0,-6.335062303E0,4.644301890E0,7.953364012E0
2.112610417E0,3.315133586E0,-8.354052658E0,3.228710276E0,9.550124426E0
2.122637417E0,4.566558188E0,-8.973069897E0,3.646462845E0,1.070822713E1
2.132664417E0,4.526911142E0,-6.714362411E0,3.718506389E0,8.910829190E0
2.142691417E0,4.178093738E0,-3.697811923E0,2.830274570E0,6.256255625E0
2.152718417E0,3.024879262E0,-1.991558143E0,2.858925342E0,4.614071142E0
2.162745417E0,1.206346663E0,-2.005963343E-1,2.505967525E0,2.788437626E0
2.172772417E0,-1.356264594E0,2.035269588E0,1.829644648E0,3.054402640E0
2.182799417E0,-3.307841815E0,4.445834527E0,1.875790874E0,5.850286619E0
2.192825417E0,-3.990784032E0,6.087213449E0,2.461733923E0,7.683791947E0
2.202852417E0,-3.571711163E0,6.346216452E0,2.942438784E0,7.854268259E0
2.212879417E0,-2.506239713E0,5.020652078E0,2.984850978E0,6.355904354E0
2.222906417E0,-1.377126875E0,2.937461050E0,2.519457636E0,4.107654151E0
2.232933417E0,-1.363116946E0,1.719383703E0,2.532261284E0,3.350629096E0
2.242960417E0,-2.182635503E0,1.223334578E0,2.772629794E0,3.734691581E0
2.252987417E0,-2.851012305E0,9.550760186E-1,2.715356902E0,4.051370690E0
2.263014417E0,-2.850985115E0,8.991921321E-1,2.584352374E0,3.951650264E0
2.273041417E0,-2.750233497E0,8.313965902E-1,3.166759027E0,4.275905437E0
2.283068417E0,-2.999114384E0,6.661554453E-1,4.054452317E0,5.086947390E0
2.293095417E0,-4.295715744E0,2.060595049E0,4.707136654E0,6.697489170E0
2.303122417E0,-5.899375155E0,3.633313041E0,5.164881839E0,8.641735664E0
2.313149417E0,-6.369370841E0,3.954303254E0,4.672090198E0,8.833675676E0
2.323176417E0,-5.916962410E0,3.934182692E0,3.930635186E0,8.120229713E0
2.333203417E0,-5.356600345E0,3.718210812E0,3.278024524E0,7.298198660E0
2.343230417E0,-4.586157762E0,3.575120089E0,2.971937402E0,6.530447044E0
2.353257417E0,-3.801875697E0,3.554024797E0,2.866902698E0,5.941757497E0
2.363283417E0,-3.334217728E0,3.560770730E0,2.911712251E0,5.681035494E0
2.373310417E0,-3.273129527E0,3.416158854E0,2.838870562E0,5.517490760E0
2.383337417E0,-3.286530761E0,3.226766370E0,2.794839858E0,5.387433107E0
2.393364417E0,-3.354779754E0,3.076808092E0,2.761797243E0,5.324360924E0
2.403391417E0,-3.424483535E0,3.043327813E0,2.480699952E0,5.209875613E0
2.413418417E0,-3.376966722E0,3.141539108E0,2.039722243E0,5.043177474E0
2.423445417E0,-3.281367085E0,3.263590087E0,1.672865594E0,4.921063858E0
2.433472417E0,-3.108960469E0,3.324126019E0,1.343535790E0,4.745580829E0
2.443499417E0,-2.930275114E0,3.315687025E0,1.102245759E0,4.560179646E0
2.453526417E0,-2.782791963E0,3.179803288E0,1.073839985E0,4.359840865E0
2.463553417E0,-2.999381309E0,3.015186918E0,9.593298680E-1,4.359811255E0
2.473580417E0,-3.122341238E0,2.991090250E0,8.666263568E-1,4.409838651E0
2.483607417E0,-3.196365818E0,2.988158163E0,6.630906272E-1,4.425554523E0
2.493633667E0,-3.134012865E0,2.946620128E0,4.792798948E-1,4.328315612E0
2.503660667E0,-3.067204918E0,2.843443669E0,1.208976156E-1,4.184200538E0
2.513687667E0,-2.894995646E0,2.843503603E0,-6.331365108E-1,4.106990914E0
2.523714667E0,-2.608136508E0,2.711076155E0,-1.237212360E0,3.960177318E0
2.533740667E0,-2.163310747E0,2.621127560E0,-1.403436422E0,3.676935798E0
2.543767667E0,-1.643048303E0,2.411870330E0,-1.603168538E0,3.329696018E0
2.553794667E0,-1.132276474E0,2.228840493E0,-1.440092032E0,2.885072792E0
2.563821667E0,-9.973443711E-1,2.008862101E0,-6.072619969E-1,2.323572651E0
2.573848667E0,-1.007214471E0,1.751212437E0,7.792028815E-1,2.165267448E0
2.583875667E0,-1.262385208E0,1.307715747E0,2.414313004E0,3.022026501E0
2.593902667E0,-2.083207986E0,6.813058734E-2,-1.205169033E0,2.407660626E0
2.603929667E0,-3.591548134E0,-9.247439967E0,-3.021544011E1,3.180231414E1
2.613956667E0,1.449907636E1,-2.768108844E1,-3.191672726E1,4.466702757E1
2.623983667E0,3.830663937E1,-3.033492913E1,9.276397718E0,4.973588342E1
2.634010667E0,2.177498197E1,-2.088191568E1,1.223349079E1,3.255553009E1
2.644037667E0,4.866881416E0,-1.370763467E1,-3.574509348E0,1.497874828E1
2.654064667E0,-3.942719042E-1,-7.179921230E0,2.443321041E0,7.594507022E0
2.664091667E0,-4.805427765E0,-3.606747386E0,5.960123048E0,8.463086284E0
2.674118667E0,-6.043881488E0,-3.198172608E-1,7.588552727E0,9.706540012E0
2.684145667E0,-6.506659371E0,1.615644742E0,6.772546885E0,9.529654528E0
2.694172667E0,-6.304696543E0,2.807827109E0,4.954187363E0,8.495708563E0
2.704198667E0,-5.589185627E0,3.167886370E0,4.826907219E0,8.035765883E0
2.714225667E0,-3.352205810E0,2.564012834E0,4.457984164E0,6.138816532E0
2.724252667E0,-8.804596996E-1,1.928808163E0,2.753620496E0,3.475332510E0
2.734279667E0,1.361466862E0,1.883157197E0,1.519425007E0,2.776423130E0
2.744306667E0,5.157285721E0,1.447720309E0,-1.032141736E-1,5.357624778E0
2.754333667E0,8.816196118E0,1.304970480E0,-1.124765433E0,8.982948248E0
2.764360667E0,9.785025957E0,4.005635083E-1,-1.225482553E0,9.869599363E0
2.774387667E0,7.530548932E0,9.222626138E-1,-4.311576024E-1,7.599054706E0
2.784414667E0,4.269770771E0,1.979678940E0,-7.461934488E-1,4.765173218E0
2.794441667E0,3.121662376E0,4.248102159E0,3.345528290E-2,5.271837175E0
2.804468667E0,2.783961698E0,4.247119827E0,7.026854865E-1,5.126620373E0
2.814495667E0,3.183435286E0,2.900209608E0,1.079580197E-1,4.307798849E0
2.824522667E0,2.591823362E0,1.049212682E0,-1.181648755E0,3.035570683E0
2.834549667E0,-3.033465314E-1,-7.692702162E-1,-2.125333081E0,2.280534256E0
2.844576667E0,-2.812425359E0,-2.250186338E0,-3.840940068E0,5.265538488E0
2.854603667E0,-3.962546951E0,-1.972230172E0,-4.689725400E0,6.448642843E0
2.864630667E0,-3.454974133E0,4.575200665E-1,-4.557542074E0,5.737365304E0
2.874656667E0,-3.721908883E0,1.791352987E-2,-3.462276721E0,5.083334213E0
2.884683667E0,-4.783699511E0,-9.670452690E-1,-3.205337201E0,5.838933476E0
2.894710667E0,-5.399473300E0,-1.049429029E-1,-2.531657267E0,5.964445779E0
2.904737667E0,-6.200089270E0,1.595197613E0,-1.018723034E0,6.482558060E0
2.914764667E0,-5.460093139E0,2.536445552E0,-1.230838895E-1,6.021737520E0
2.924791667E0,-3.982953733E0,2.958380633E0,3.148806759E-1,4.971426983E0
2.934818667E0,-3.832610124E0,2.391652704E0,-1.035645680E-1,4.518808321E0
2.944845667E0,-3.445881128E0,1.716826715E0,-1.055568606E0,3.991968913E0
2.954872667E0,-2.362900191E0,1.174154817E0,-1.646085931E0,3.109909281E0
2.964899667E0,-1.415064780E0,1.430946402E0,-1.884148300E0,2.756815328E0
2.974926667E0,-7.330040306E-1,2.522673604E0,-1.282921360E0,2.923536256E0
2.984953667E0,-3.868576348E-2,3.477849026E0,2.384903848E-2,3.478145944E0
2.994980667E0,4.153096014E-1,3.781293206E0,1.222155341E0,3.995538018E0
3.005007667E0,8.871647018E-1,3.403464257E0,1.205552026E0,3.718062108E0
3.015034667E0,9.099290818E-1,2.917666470E0,7.225344448E-1,3.140510244E0
3.025061667E0,7.603268999E-1,2.199776908E0,9.013155484E-1,2.495893659E0
3.035088667E0,2.035298824E-1,1.257561840E0,8.911256057E-1,1.554667501E0
3.045115667E0,-2.010389686E-2,1.119344187E-1,2.924712950E-1,3.138039821E-1
3.055141667E0,-1.524310648E-2,-8.621830577E-1,-1.511062320E-1,8.754570638E-1
3.065168667E0,1.753732002E-1,-6.679660356E-1,-7.064266813E-1,9.879134780E-1
3.075195667E0,4.777923632E-1,6.395438898E-1,-1.161372219E0,1.409286117E0
3.085222667E0,6.417792803E-1,2.090887719E0,-1.449530754E0,2.623896245E0
3.095249667E0,1.023411843E0,2.760396250E0,-2.142196013E0,3.640901401E0
3.105276667E0,1.243703354E0,3.387178007E0,-3.575800998E0,5.079972998E0
3.115303667E0,1.146904453E0,3.611255005E0,-4.668081931E0,6.012282549E0
3.125330667E0,1.232584289E0,3.326313754E0,-4.487921031E0,5.720582348E0
3.135357667E0,1.589611768E0,2.918573958E0,-3.978071600E0,5.183627415E0
3.145384667E0,2.249157813E0,2.928444058E0,-3.886105423E0,5.360625974E0
3.155411667E0,3.460065889E0,3.093460085E0,-3.845899968E0,6.027644467E0
3.165438667E0,4.770385986E0,3.045853810E0,-3.728839881E0,6.777761780E0
3.175465667E0,6.457443357E0,2.544555055E0,-2.707663428E0,7.450152775E0
3.185492667E0,9.600012453E0,1.639786726E0,-8.550045772E-1,9.776511260E0
3.195519667E0,1.618085369E1,1.982159328E-1,2.923643202E0,1.644405684E1
3.205546667E0,2.399875761E1,-1.433276517E0,2.658531321E0,2.418806394E1
3.215573667E0,2.194870977E1,-2.048045754E0,-3.049827285E0,2.225402881E1
3.225600667E0,1.974292718E1,-1.380350445E0,-3.601998278E0,2.011623555E1
3.235626667E0,2.083285286E1,-4.255504149E0,1.172985081E-1,2.126336833E1
3.245653667E0,1.618648690E1,-7.815202500E0,8.699826586E-1,1.799546104E1
3.255680667E0,1.102072213E1,-1.087554863E1,-5.147678892E-1,1.549189660E1
3.265707667E0,9.118873728E0,-1.352609266E1,-2.504716951E-2,1.631286817E1
3.275734667E0,9.211683074E0,-1.330228931E1,-9.988155305E-2,1.618072873E1
3.285761667E0,6.548072276E0,-1.328170360E1,-7.638451695E-1,1.482782386E1
3.295788667E0,5.057733366E0,-1.236218567E1,-1.151673442E0,1.340636614E1
3.305815667E0,3.223797446E0,-1.227351615E1,-1.311056700E0,1.275738760E1
3.315842667E0,1.642474691E0,-1.262588106E1,-1.554005733E-1,1.273321425E1
3.325869667E0,9.253230464E-1,-1.274433864E1,7.516585196E0,1.482475777E1
3.335896667E0,2.894235508E0,-1.705323605E1,1.424546975E1,2.240809826E1
3.345923667E0,8.855061391E0,-1.305789207E1,7.557737900E0,1.749400068E1
3.355950667E0,7.562368895E0,-1.101212673E1,7.212641079E0,1.518152001E1
3.365977667E0,3.902076800E0,-8.765772654E0,1.038525258E1,1.413925192E1
3.376004667E0,1.180891979E0,-6.201679713E0,1.107144790E1,1.274489293E1
3.386031667E0,-2.148903793E0,-3.988783407E0,1.208343487E1,1.290494397E1
3.396058667E0,-5.842054315E0,-1.698486339E0,1.296173928E1,1.431855928E1
3.406085667E0,-8.160760081E0,1.215954223E0,1.378919514E1,1.606917709E1
3.416111667E0,-1.083990050E1,3.479571908E0,1.212914840E1,1.663511660E1
3.426138667E0,-1.303819865E1,5.945827775E0,1.050853879E1,1.777011197E1
3.436165667E0,-1.401315403E1,7.381833773E0,1.046508579E1,1.898362390E1
3.446192667E0,-1.374675020E1,6.673664036E0,1.031242317E1,1.843521100E1
3.456219667E0,-9.941651230E0,5.659528801E0,9.559922188E0,1.490834691E1
3.466246667E0,-7.437043768E0,4.765186642E0,9.488115456E0,1.296306131E1
3.476273667E0,-5.750193973E0,4.838571537E0,1.140756574E1,1.366049272E1
3.486300667E0,-4.085445191E0,4.458903931E0,1.202213149E1,1.345750097E1
3.496328458E0,-3.091797137E0,3.220544347E0,1.159342650E1,1.242331089E1
3.506355458E0,-2.959963182E0,1.494776947E0,1.092062248E1,1.141296348E1
3.516382458E0,-3.800421495E0,1.787153225E-1,1.019428369E1,1.088111036E1
3.526409458E0,-5.418246371E0,-1.921497390E-2,1.006547187E1,1.143116297E1
3.536436458E0,-7.457911896E0,8.750055631E-1,1.023740574E1,1.269608447E1
3.546463458E0,-8.860711555E0,1.937113549E0,1.027692941E1,1.370692877E1
3.556490458E0,-9.264385782E0,2.125694732E0,9.899937193E0,1.372429155E1
3.566517458E0,-8.909158076E0,2.052917070E0,9.141417668E0,1.292876959E1
3.576544458E0,-8.440670972E0,2.253576554E0,8.268107944E0,1.202851374E1
3.586571458E0,-7.910627890E0,2.532316540E0,6.772352757E0,1.071706222E1
3.596597458E0,-8.371306037E0,2.604992753E0,5.315909572E0,1.025298233E1
3.606624458E0,-9.108817102E0,2.607101259E0,3.853299327E0,1.022816903E1
3.616651458E0,-9.582843858E0,2.786361980E0,2.111329000E0,1.020060879E1
3.626678458E0,-9.549022393E0,3.576726319E0,4.309783852E-1,1.020600520E1
3.636705458E0,-8.477592630E0,4.663782474E0,-3.899923271E-1,9.683622142E0
3.646732458E0,-6.588032733E0,5.457478849E0,-4.031924164E-1,8.564392261E0
3.656759458E0,-3.979465869E0,5.992911894E0,4.460957766E-2,7.193964942E0
3.666786458E0,-8.565346473E-1,5.812877294E0,1.549380586E0,6.076493581E0
3.676813458E0,1.679194036E0,4.965143291E0,3.331175714E0,6.210400321E0
3.686840458E0,5.050978662E0,3.431817698E0,2.675304644E0,6.666859313E0
3.696867458E0,9.403481103E0,9.698533943E-1,9.356311029E-1,9.499551464E0
3.706894458E0,9.798037766E0,-3.049349860E0,5.154928708E-1,1.027452245E1
3.716921458E0,9.307468652E0,-5.245117332E0,8.693289399E-2,1.068399672E1
3.726948458E0,6.758998302E0,-6.047250654E0,-6.938183886E0,1.141891826E1
3.736975458E0,7.505118806E0,-1.425881076E1,-3.360957805E1,3.727256672E1
3.747002458E0,2.280541106E1,-3.465989235E1,-5.415304286E1,6.821984288E1
3.757029458E0,5.242407264E1,-3.272384417E1,-4.233150244E0,6.194394991E1
3.767056458E0,2.980938138E1,-1.744284539E1,1.912960338E1,3.948156277E1
3.777083458E0,1.747349766E0,-7.896182928E0,5.083989703E0,9.552480690E0
3.787109458E0,-3.811933200E0,-9.733921292E-1,8.064792654E0,8.973249551E0
3.797136458E0,-6.888163295E0,1.814561171E0,9.442360994E0,1.182783188E1
3.807163458E0,-8.264896068E0,3.304779629E0,4.478943216E0,9.964487330E0
3.817190458E0,-8.508956510E0,4.350402997E0,4.582282813E0,1.059838020E1
3.827217458E0,-7.052843692E0,4.324014806E0,5.925494667E0,1.017601077E1
3.837244458E0,-5.323289927E0,4.653443427E0,6.397918117E0,9.535476266E0
3.847271458E0,-5.442293630E0,3.402937422E0,5.312075552E0,8.331667884E0
3.857298458E0,-4.186713996E0,2.668146483E0,3.029779229E0,5.816110549E0
3.867325458E0,-1.768122584E0,1.101290908E0,2.346339707E0,3.137580144E0
3.877352458E0,1.548010583E0,2.932542372E-1,1.133390953E0,1.940852870E0
3.887379458E0,6.253692450E0,2.311813653E-2,9.063064393E-1,6.319065997E0
3.897406458E0,1.020306504E1,-7.836970514E-1,1.091937118E0,1.029121198E1
3.907433458E0,1.017995684E1,-1.380173859E0,1.704521835E0,1.041353907E1
3.917460458E0,8.273893763E0,-1.596491602E0,5.471706001E-1,8.444258352E0
3.927487458E0,6.667055513E0,-1.778105536E0,-1.852280974E-1,6.902579080E0
3.937514458E0,6.014194005E0,-3.434061567E0,1.431725836E0,7.071997401E0
3.947541458E0,4.563100437E0,-4.445511761E0,1.214805830E0,6.485384616E0
3.957568458E0,2.810044958E0,-3.905120276E0,9.718019789E-1,4.908229429E0
3.967594458E0,8.176442313E-1,-4.177201161E0,-1.575850346E0,4.538816579E0
3.977621458E0,-1.399135210E0,-3.604842948E0,-5.431464586E0,6.667329268E0
3.987648458E0,-4.277199658E0,-2.262362580E0,-8.439358272E0,9.728077374E0
3.997675458E0,-7.588114185E0,-7.430004305E-1,-7.822200447E0,1.092329375E1
4.007702458E0,-8.777520880E0,1.326302292E0,-6.675966085E0,1.110731623E1
4.017729458E0,-8.124713750E0,2.889153693E0,-4.139384878E0,9.565181115E0
4.027756458E0,-8.388490419E0,3.501506276E0,-1.324860515E0,9.185998753E0
4.037783458E0,-6.782842078E0,3.732226295E0,9.526486932E-1,7.800256361E0
4.047810458E0,-3.904687582E0,3.844550139E0,2.673006688E0,6.096893934E0
4.057837458E0,-1.443951779E0,4.140694655E0,2.146013514E0,4.882184241E0
4.067864458E0,-6.080683279E-1,4.396762354E0,-7.774472550E-2,4.439291670E0
4.077891458E0,-1.199069803E0,4.659798766E0,-2.222313392E0,5.300016013E0
4.087918458E0,-8.811490864E-1,5.209733491E0,-2.608964474E0,5.892744894E0
4.097945458E0,-9.927227318E-1,6.631032572E0,-1.084355179E0,6.792048111E0
4.107972458E0,-2.196599531E0,7.872946093E0,-4.292272903E-1,8.184898640E0
4.117999458E0,-2.119572989E0,7.665084593E0,3.673068845E-1,7.961220122E0
4.128026458E0,-1.584736944E0,6.523059057E0,1.395893514E0,6.856399153E0
4.138053458E0,-1.333998397E0,4.735315556E0,2.056876658E0,5.332307823E0
4.148080458E0,-1.556568568E0,2.535332242E0,2.459792647E0,3.860232525E0
4.158107458E0,-1.990833088E0,1.332013267E-1,2.467363915E0,3.173175644E0
4.168133458E0,-2.102194480E0,-2.150488388E0,2.234182802E0,3.746384221E0
4.178160458E0,-1.679944233E0,-3.711510195E0,1.446715758E0,4.323251906E0
4.188187458E0,-1.090791063E0,-4.094848391E0,1.134102559E-1,4.239159159E0
4.198214458E0,-5.290894014E-1,-2.685545458E0,-1.505474720E0,3.123866856E0
4.208241458E0,-1.121145129E-2,-2.277677608E-1,-3.017570828E0,3.026175400E0
4.218268458E0,7.096215999E-1,2.070202024E0,-3.370721603E0,4.018838559E0
4.228295458E0,1.628582291E0,3.548425503E0,-2.681673724E0,4.736557589E0
4.238322458E0,1.582653582E0,3.529993910E0,-2.247548952E0,4.474050252E0
4.248349458E0,1.010760807E0,2.487085111E0,-2.703005536E0,3.809654668E0
4.258376458E0,1.296472136E0,9.436698550E-1,-4.436941204E0,4.717817297E0
4.268403458E0,2.498436311E0,-8.171676832E-1,-6.092830285E0,6.635701011E0
4.278430458E0,3.811453144E0,-1.590586499E0,-6.127478546E0,7.389393332E0
4.288457458E0,5.044368970E0,-7.762500376E-1,-6.613308492E0,8.353686110E0
4.298484458E0,6.809149870E0,3.314055651E-1,-7.401372828E0,1.006253802E1
4.308511458E0,9.221343843E0,1.206348417E0,-5.506919396E0,1.080808124E1
4.318538458E0,1.309543821E1,2.709247146E0,-9.822682026E-1,1.340877969E1
4.328565458E0,2.142782576E1,3.315056110E0,1.796952720E0,2.175707593E1
4.338592458E0,2.364373806E1,7.238157159E-1,-1.511875667E0,2.370308053E1
4.348619458E0,1.509718805E1,-1.045594425E0,-4.546933178E0,1.580167573E1
4.358645458E0,1.279808624E1,9.805078983E-2,-7.004241636E0,1.458972331E1
4.368672458E0,1.290678364E1,-3.480599556E0,-3.743547674E0,1.388213912E1
4.378699458E0,1.126078659E1,-1.013012102E1,7.267667326E-1,1.516419653E1
4.388726458E0,1.432163558E1,-1.429857884E1,4.304224319E0,2.069021386E1
4.398753458E0,1.533539894E1,-1.548065196E1,4.646445479E0,2.228036133E1
4.408780458E0,1.336568014E1,-1.567641089E1,3.111310465E0,2.083438305E1
4.418807458E0,1.200219015E1,-1.658284509E1,5.621466351E-1,2.047826478E1
4.428834458E0,1.038021345E1,-1.806469209E1,-2.825374603E-3,2.083463318E1
4.438861458E0,7.484060644E0,-1.749251163E1,6.524308607E-1,1.903745763E1
4.448888458E0,4.095143090E0,-1.583429273E1,5.634953538E0,1.729877812E1
4.458915458E0,2.854854510E0,-1.439378087E1,1.132264311E1,1.853465320E1
4.468942458E0,6.345254000E0,-1.039143426E1,8.603435236E0,1.490849597E1
4.478969458E0,8.969956255E0,-6.638541566E0,6.065978701E0,1.270143484E1
4.488996458E0,1.030180697E1,-4.974469600E0,1.018073920E1,1.531404667E1
4.499022708E0,7.323908916E0,-4.228357281E0,1.330991642E1,1.576935389E1
4.509049708E0,2.403135467E-1,-6.079242525E0,1.450933705E1,1.573327054E1
4.519076708E0,-3.862103480E0,-6.344221382E0,1.292957492E1,1.491103269E1
4.529103708E0,-4.916422536E0,-4.629053521E0,1.166776800E1,1.348095535E1
4.539129708E0,-5.620343100E0,-2.596660763E0,1.123708081E1,1.282976573E1
4.549156708E0,-8.367938626E0,4.853845342E-1,1.061405998E1,1.352465394E1
4.559183708E0,-1.099696139E1,3.239153988E0,1.373383721E1,1.788976140E1
4.569210708E0,-1.262983495E1,4.950571445E0,1.549384211E1,2.059320353E1
4.579237708E0,-1.224203007E1,5.512691767E0,1.362576897E1,1.912900026E1
4.589264708E0,-1.045986306E1,5.371495543E0,1.241901827E1,1.710244761E1
4.599291708E0,-7.670875676E0,5.602872205E0,1.258702398E1,1.576920046E1
4.609318708E0,-5.777742544E0,5.237745162E0,1.296494239E1,1.512964026E1
4.619345708E0,-4.898834696E0,4.502144676E0,1.345396842E1,1.500923564E1
4.629372708E0,-4.202150938E0,3.447917129E0,1.265187194E1,1.377011505E1
4.639399708E0,-4.089084790E0,1.486908495E0,1.189643389E1,1.266714848E1
4.649426708E0,-4.632141436E0,-1.312832938E-1,1.153786158E1,1.243367281E1
4.659453708E0,-5.264519563E0,-7.686774547E-1,1.124672170E1,1.244165504E1
4.669480708E0,-5.606402754E0,-7.869450335E-1,1.127308211E1,1.261480934E1
4.679507708E0,-6.348243681E0,-1.115014762E0,1.101109528E1,1.275882734E1
4.689534708E0,-6.749103059E0,-1.021042259E0,1.017257415E1,1.225047690E1
4.699561708E0,-7.588117694E0,-8.572040074E-1,9.177267532E0,1.193886796E1
4.709588708E0,-8.261488895E0,-5.685610306E-1,8.360216793E0,1.176727178E1
4.719615708E0,-9.087271866E0,-2.452980056E-2,7.296094880E0,1.165384538E1
4.729642708E0,-9.577667903E0,9.249425389E-1,5.706227589E0,1.118696896E1
4.739668708E0,-9.472675298E0,2.105002313E0,3.654403363E0,1.036905377E1
4.749695708E0,-8.535415161E0,3.197207817E0,2.498257971E0,9.450753552E0
4.759722708E0,-6.928031366E0,3.611483046E0,2.034249249E0,8.073326353E0
4.769749708E0,-5.004031953E0,4.085913845E0,2.971916353E0,7.111069859E0
4.779776708E0,-2.890522526E0,4.941241043E0,5.135917071E0,7.690814500E0
4.789803708E0,-1.272588599E0,5.577770108E0,7.018378449E0,9.054757709E0
4.799830708E0,1.315524119E-1,5.157576327E0,6.786680775E0,8.525076865E0
4.809857708E0,2.551774612E0,3.756355123E0,5.605258453E0,7.213922637E0
4.819884708E0,5.094265600E0,1.639957757E0,4.343076729E0,6.892265151E0
4.829911708E0,5.709799068E0,-2.250485716E0,2.399300863E0,6.589623357E0
4.839938708E0,5.824566463E0,-5.851253740E0,-8.678747374E-1,8.301563188E0
4.849965708E0,5.967118072E0,-6.844536050E0,-4.051592444E0,9.943318015E0
4.859992708E0,5.037465747E0,-5.254074097E0,-4.489398038E0,8.551961793E0
4.870019708E0,1.873295867E0,-4.121228104E0,-9.421875274E0,1.045301354E1
4.880046708E0,1.569679195E0,-1.199215632E1,-3.274567299E1,3.490780437E1
4.890073708E0,1.487109961E1,-3.368595672E1,-4.253049956E1,5.625599236E1
4.900100708E0,4.542495551E1,-4.032848024E1,-6.032215708E0,6.104261239E1
4.910127708E0,3.872933459E1,-2.443359399E1,1.390786205E1,4.785802440E1
4.920154708E0,1.080617376E1,-5.004730110E0,9.812638264E0,1.543076746E1
4.930181708E0,-6.747300947E-1,1.809633430E0,5.744333308E0,6.060313441E0
4.940207708E0,-4.002774625E0,4.454919346E0,7.023393021E0,9.230198297E0
4.950234708E0,-6.732333244E0,5.790316982E0,5.691715384E0,1.054740279E1
4.960261708E0,-8.027388015E0,5.498596469E0,4.598281964E0,1.076186408E1
4.970288708E0,-6.828382532E0,5.613453326E0,7.323486747E0,1.147916044E1
4.980315708E0,-5.778877489E0,6.063419960E0,7.136544830E0,1.100412462E1
4.990342708E0,-4.482429911E0,5.239530317E0,5.166156532E0,8.615917198E0
5.000369708E0,-2.165882937E0,4.172923338E0,1.710896469E0,5.003149489E0
5.010396708E0,4.570739239E-1,2.015503660E0,4.002417945E0,4.504500081E0
5.020423708E0,2.640328354E0,-5.965153992E-2,5.622904766E0,6.212241957E0
5.030450708E0,5.170865879E0,-7.580271900E-1,3.901718366E0,6.521952573E0
5.040477708E0,6.884445051E0,-7.012899023E-1,2.806982771E0,7.467700012E0
5.050504708E0,8.447850768E0,-1.279222850E0,1.633473633E0,8.698898195E0
5.060531708E0,9.215099017E0,-1.683035656E0,1.139327631E0,9.436563271E0
5.070558708E0,8.382069007E0,-1.288902916E0,-1.875131893E-1,8.482659534E0
5.080585708E0,7.315339821E0,-6.843154353E-1,-8.623097961E-1,7.397706570E0
5.090612708E0,6.215790798E0,-7.538452613E-1,-8.175448287E-1,6.314484735E0
5.100639708E0,4.466129043E0,-1.201736718E0,-1.314146515E0,4.808062066E0
5.110666708E0,-5.905781364E-1,-1.182543817E0,-1.657493849E0,2.120018461E0
5.120693708E0,-4.706402829E0,-1.159931465E0,-2.318915681E0,5.373363800E0
5.130719708E0,-5.841763124E0,-1.325091918E0,-3.301354330E0,6.839664129E0
5.140746708E0,-7.855759372E0,-9.633048052E-1,-5.654059900E0,9.726731456E0
5.150773708E0,-1.051245876E1,-5.495318520E-1,-5.539876642E0,1.189554571E1
5.160800708E0,-1.057023510E1,4.653559202E-1,-4.104395140E0,1.134867770E1
5.170827708E0,-8.459294938E0,1.839611228E0,-2.389888015E0,8.980835431E0
5.180854708E0,-6.577124167E0,1.129100851E0,-9.728538930E-1,6.743876907E0
5.190881708E0,-3.894664285E0,-2.769562930E-1,1.043899171E0,4.041638302E0
5.200908708E0,-2.011249226E-1,6.145324248E-1,1.539110975E0,1.669420237E0
5.210935708E0,-1.304513812E-2,3.006497955E0,-1.536283407E0,3.376294839E0
5.220962708E0,-6.640226734E-1,4.980129704E0,-4.155555938E0,6.520066191E0
5.230989708E0,2.536744344E-1,6.451496154E0,-3.765288792E0,7.474192467E0
5.241016708E0,1.013494381E0,8.279504167E0,2.718610293E-1,8.345733552E0
5.251043708E0,4.887523842E-1,9.955817864E0,2.248667963E0,1.021830200E1
5.261070708E0,-3.635243207E-1,9.859504867E0,2.206369643E0,1.010989877E1
5.271097708E0,-5.147713244E-1,8.093015410E0,2.178192934E0,8.396809656E0
5.281124708E0,-1.948859435E-1,5.161774628E0,1.896235518E0,5.502509153E0
5.291151708E0,3.089575195E-1,1.916334883E0,1.349934983E0,2.364343163E0
5.301178708E0,9.371987414E-1,-1.227856230E0,1.616777932E0,2.236055295E0
5.311205708E0,1.067643106E0,-3.999744013E0,1.917792009E0,4.562427003E0
5.321232708E0,7.816212898E-1,-5.347459393E0,1.183593539E0,5.532372680E0
5.331258708E0,2.112528849E-1,-4.982116004E0,-4.386610419E-1,5.005849695E0
5.341285708E0,-2.701910645E-1,-3.115788848E0,-2.054361624E0,3.741863846E0
5.351312708E0,1.143159896E-1,-7.984180015E-1,-2.997472193E0,3.104090688E0
5.361339708E0,1.326475369E0,1.466163597E0,-2.612332470E0,3.276194978E0
5.371366708E0,2.673420087E0,3.277042192E0,-1.804660373E0,4.598149579E0
5.381393708E0,3.180816903E0,3.387325357E0,-2.147512448E0,5.118923613E0
5.391420708E0,2.395991923E0,2.231151313E0,-3.243753993E0,4.608769190E0
5.401447708E0,1.750931185E0,6.931324518E-1,-3.805093712E0,4.245577790E0
5.411474708E0,2.136887180E0,1.988462627E-1,-4.716746846E0,5.182038929E0
5.421501708E0,2.690715566E0,1.047180775E0,-5.634167672E0,6.330906980E0
5.431528708E0,3.696290478E0,2.549801177E0,-6.011290863E0,7.503310414E0
5.441555708E0,4.956880590E0,3.481883605E0,-5.807676780E0,8.391858448E0
5.451582708E0,6.140800842E0,3.631128522E0,-4.516337914E0,8.443449383E0
5.461609708E0,8.293057428E0,3.605401357E0,-2.017663183E0,9.265240697E0
5.471636708E0,1.397229368E1,3.801687124E0,1.490182643E0,1.455673247E1
5.481663708E0,1.924046074E1,2.687258107E0,1.686770858E0,1.950030465E1
5.491690708E0,1.436203400E1,-8.667526567E-1,-5.475078383E0,1.539466674E1
5.501717958E0,8.003640718E0,-3.816451929E0,-8.911118063E0,1.257106182E1
5.511744958E0,9.936994507E0,-7.697178791E0,-5.622711807E0,1.376972437E1
5.521771958E0,1.299515963E1,-1.277538267E1,-4.591584563E-1,1.822897152E1
5.531797958E0,1.424855124E1,-1.572641160E1,1.709094357E0,2.128995626E1
5.541824958E0,1.314943841E1,-1.580785162E1,3.042810334E0,2.078592308E1
5.551851958E0,1.094195078E1,-1.513983530E1,2.044436999E0,1.879150400E1
5.561878958E0,8.860757748E0,-1.525488745E1,-6.162991610E-1,1.765232120E1
5.571905958E0,7.191009305E0,-1.639720652E1,-1.240492648E0,1.794764103E1
5.581932958E0,5.778219677E0,-1.616074161E1,1.625970340E-1,1.716344458E1
5.591959958E0,5.154283175E0,-1.421911167E1,3.850868348E0,1.560701633E1
5.601986958E0,4.939431914E0,-1.150386938E1,9.108168646E0,1.548211014E1
5.612013958E0,6.775751744E0,-7.810986657E0,8.542184483E0,1.341235401E1
5.622040958E0,7.905249621E0,-4.306438075E0,6.476100653E0,1.108955635E1
5.632067958E0,1.026232657E1,-2.902286247E0,7.982404216E0,1.332131334E1
5.642094958E0,1.021413382E1,-2.320086001E0,9.493198441E0,1.413619982E1
5.652121958E0,4.061254967E0,-2.648952120E0,1.031851597E1,1.140098729E1
5.662148958E0,-1.437444997E0,-2.387490949E0,1.064197459E1,1.100081744E1
5.672175958E0,-3.821654781E0,-5.890349101E-1,8.182145103E0,9.049834577E0
5.682202958E0,-6.424777302E0,1.601143501E0,9.705942950E0,1.174932987E1
5.692229958E0,-9.815917382E0,4.073752806E0,1.118774200E1,1.543091919E1
5.702256958E0,-1.050981582E1,6.019555317E0,1.175801393E1,1.688023004E1
5.712283958E0,-8.373730293E0,5.787119139E0,1.244157683E1,1.607491651E1
5.722310958E0,-5.830267498E0,3.961459368E0,1.278577201E1,1.460003922E1
5.732337958E0,-4.916449433E0,1.852209785E0,1.241021236E1,1.347648051E1
5.742363958E0,-4.100601174E0,5.687405401E-1,1.221662041E1,1.289900035E1
5.752390958E0,-3.206707789E0,1.838067855E-1,1.125280046E1,1.170223389E1
5.762417958E0,-3.003650361E0,-2.042885587E-2,1.055746829E1,1.097645068E1
5.772444958E0,-2.923141803E0,-3.025011702E-1,1.040269600E1,1.080982650E1
5.782471958E0,-3.207023831E0,-1.363611621E-1,1.048518618E1,1.096552440E1
5.792498958E0,-3.477956322E0,-6.181062430E-2,1.085286728E1,1.139669816E1
5.802525958E0,-4.360725380E0,-1.157371554E-1,1.124624924E1,1.206264660E1
5.812552958E0,-5.831329352E0,-2.031277402E-1,1.072854612E1,1.221259042E1
5.822579958E0,-6.607247268E0,-9.836605708E-1,9.660694857E0,1.174531097E1
5.832606958E0,-6.455465829E0,-1.859942581E0,8.709290890E0,1.099928058E1
5.842633958E0,-7.213378413E0,-2.402827757E0,8.322167206E0,1.127230573E1
5.852660958E0,-7.577164105E0,-2.364072558E0,8.035222700E0,1.129455881E1
5.862687958E0,-8.247459086E0,-2.198231196E0,7.671930513E0,1.147655521E1
5.872714958E0,-8.737908332E0,-1.520382489E0,7.242783476E0,1.145078676E1
5.882741958E0,-8.776951361E0,-3.975448832E-1,7.117987522E0,1.130746052E1
5.892768958E0,-8.501104869E0,9.229104853E-1,6.936880542E0,1.101094271E1
5.902795958E0,-8.154424038E0,2.344471083E0,6.426233844E0,1.064366748E1
5.912822958E0,-7.822562975E0,3.848823869E0,5.254697410E0,1.017928198E1
5.922849958E0,-7.105939919E0,5.545133289E0,3.271052889E0,9.588674169E0
5.932876958E0,-5.454475719E0,7.136334915E0,3.397581958E0,9.603236150E0
5.942902958E0,-2.912808604E0,8.788293205E0,5.834378091E0,1.094342356E1
5.952929958E0,-1.154813397E-1,9.450241871E0,7.490438202E0,1.205931473E1
5.962956958E0,1.585758453E0,8.142615586E0,6.638819309E0,1.062500542E1
5.972983958E0,2.528300380E0,5.876521897E0,5.408986720E0,8.377526470E0
5.983010958E0,2.661800500E0,3.989619559E0,5.006276114E0,6.932895979E0
5.993037958E0,2.980556783E0,1.491098464E0,4.245952138E0,5.397703486E0
6.003064958E0,3.360300111E0,-1.283214452E0,1.700970821E0,3.978889028E0
6.013091958E0,3.317028961E0,-2.877504285E0,-1.910421009E0,4.788780687E0
6.023118958E0,4.035854663E0,-4.034680542E0,-1.239104285E1,1.364202012E1
6.033145958E0,8.925536127E0,-1.562166926E1,-4.711871613E1,5.043684323E1
6.043172958E0,3.303775077E1,-4.266120120E1,-4.909165089E1,7.294834645E1
6.053199958E0,5.541189225E1,-4.018329622E1,-2.523192837E0,6.849482900E1
6.063226958E0,3.320787902E1,-2.408318672E1,1.973173327E1,4.552037357E1
6.073253958E0,6.344949945E0,-7.650471232E0,7.255431588E0,1.230566485E1
6.083280958E0,-1.274020582E0,-9.211805865E-1,3.845099192E0,4.154093152E0
6.093307958E0,-4.311038665E0,2.062556497E0,1.058313055E1,1.161214217E1
6.103334958E0,-8.418691288E0,4.665744215E0,5.020450349E0,1.085580277E1
6.113361958E0,-1.075975388E1,5.398678079E0,2.469000258E0,1.228877500E1
6.123388958E0,-9.829913278E0,4.873684652E0,6.819319348E0,1.291832472E1
6.133415958E0,-8.734323989E0,4.871529953E0,8.096269970E0,1.286739317E1
6.143442958E0,-5.734732180E0,4.701439712E0,6.616832024E0,9.938468422E0
6.153468958E0,-3.849191074E0,3.447005548E0,3.094164967E0,6.022622022E0
6.163495958E0,-2.017129186E0,1.220968210E0,5.407306230E0,5.899028241E0
6.173522958E0,4.429675162E-1,2.645280361E-1,6.003409985E0,6.025539540E0
6.183549958E0,-3.532887697E-2,-9.237454677E-1,4.789153209E0,4.877554949E0
6.193576958E0,9.104395437E-1,-8.919553256E-1,5.733852174E0,5.873801599E0
6.203603958E0,6.400054690E0,-2.228578538E0,6.931350245E0,9.693857775E0
6.213630958E0,1.501816293E1,-4.796970352E0,5.819796889E0,1.680554010E1
6.223657958E0,1.633864315E1,-5.491483331E0,4.468080844E0,1.780649869E1
6.233684958E0,1.140877260E1,-5.462874075E0,1.085491001E0,1.269572275E1
6.243711958E0,6.297688070E0,-4.496360902E0,-2.698823315E0,8.195229324E0
6.253738958E0,3.285075681E0,-2.782284717E0,-7.299453521E0,8.474364412E0
6.263765958E0,6.793160659E-1,-1.166023679E0,-7.403681309E0,7.525661331E0
6.273792958E0,-2.003252574E0,-8.049850094E-1,-5.433014098E0,5.846252127E0
6.283819958E0,-4.530203417E0,-4.823911983E-1,-6.311199231E0,7.783744600E0
6.293846958E0,-7.916061707E0,-3.660158193E-1,-5.765147642E0,9.799741214E0
6.303873958E0,-8.136364912E0,1.164812136E-1,-3.109723531E0,8.711164233E0
6.313900958E0,-8.815324298E0,1.952884074E0,-5.546142519E-1,9.046065203E0
6.323927958E0,-9.288816619E0,3.352768897E0,8.718537676E-1,9.913793545E0
6.333954958E0,-8.855477128E0,3.657981859E0,8.218553229E-1,9.616431387E0
6.343981958E0,-7.755388407E0,2.662553036E0,7.106518793E-1,8.230447382E0
6.354008958E0,-6.046044958E0,1.862936355E0,3.638530073E-1,6.337000908E0
6.364035958E0,-4.338800075E0,2.018890368E0,-8.539110017E-1,4.861097449E0
6.374061958E0,-2.836935133E0,2.671803916E0,-1.809508592E0,4.296633387E0
6.384088958E0,-1.676844040E0,3.591086204E0,-1.740720778E0,4.328719774E0
6.394115958E0,-2.962749088E-1,5.033124774E0,-8.137985176E-1,5.107092308E0
6.404142958E0,9.844992077E-1,6.650186296E0,-1.763730741E-1,6.724977615E0
6.414169958E0,2.180278198E0,7.524147400E0,1.110011300E0,7.911923420E0
6.424196958E0,4.005599415E0,7.740272770E0,1.732553241E0,8.885853361E0
6.434223958E0,4.925303872E0,6.852999895E0,3.781651640E-1,8.447794663E0
6.444250958E0,6.218051916E0,4.939091021E0,-4.995932682E-1,7.956656533E0
6.454277958E0,6.466037595E0,2.643668284E0,-1.459042127E0,7.136345570E0
6.464304958E0,3.708262652E0,5.722389293E-1,-7.560642797E-1,3.827571355E0
6.474331958E0,1.260127013E0,-7.328046405E-1,-4.064282656E-2,1.458277947E0
6.484358958E0,5.329450554E-1,-1.375511289E0,6.992432307E-1,1.632483640E0
6.494385958E0,2.270409518E-1,-1.154966594E0,2.085864083E-1,1.195409435E0
6.504412917E0,-2.102717221E-1,5.506322980E-3,-1.495985566E0,1.510700940E0
6.514439917E0,-5.900337607E-1,1.825753326E0,-2.761596099E0,3.362726284E0
6.524466917E0,-3.657901168E-2,3.802104031E0,-2.977819701E0,4.829569676E0
6.534493917E0,5.539143401E-1,4.106362728E0,-2.683636342E0,4.936693222E0
6.544520917E0,8.320845151E-1,2.937380943E0,-2.810928472E0,4.149926544E0
6.554547917E0,5.734112960E-1,2.069286350E0,-3.073433372E0,3.749231815E0
6.564574917E0,-2.805377126E-2,1.357918187E0,-3.898331074E0,4.128161089E0
6.574601917E0,7.743268883E-1,1.022485644E0,-4.926701941E0,5.090918487E0
6.584627917E0,1.848760366E0,1.214309986E0,-5.671603301E0,6.087655348E0
6.594654917E0,3.196242442E0,1.631210030E0,-6.634762511E0,7.543002418E0
6.604681917E0,4.598942115E0,1.865835990E0,-6.141594309E0,7.896251843E0
6.614708917E0,8.506013607E0,2.704231989E0,-1.972405003E0,9.140870835E0
6.624735917E0,1.884776758E1,4.766274224E0,1.980811984E0,1.954173301E1
6.634762917E0,2.258341099E1,1.207827178E0,-2.018898846E-1,2.261658812E1
6.644789917E0,1.221338105E1,-3.142132308E0,-6.585805528E0,1.422717493E1
6.654816917E0,6.429688963E0,-3.951370583E0,-8.106529495E0,1.107565123E1
6.664843917E0,9.506238316E0,-7.742895831E0,-3.393657306E0,1.272155308E1
6.674870917E0,1.349445805E1,-1.321371569E1,1.499711997E0,1.894602376E1
6.684897917E0,1.615615973E1,-1.669708916E1,2.643666530E0,2.338382468E1
6.694924917E0,1.577609189E1,-1.816136762E1,1.223041048E0,2.408767690E1
6.704951917E0,1.261835921E1,-1.843148559E1,-1.051178662E0,2.236174472E1
6.714978917E0,9.858742390E0,-1.740771414E1,-1.552766708E0,2.006575186E1
6.725005917E0,7.724056102E0,-1.631721427E1,-1.942931528E0,1.815729901E1
6.735032917E0,5.694485210E0,-1.535389719E1,3.681480065E-1,1.638001385E1
6.745059917E0,4.868905138E0,-1.360507100E1,5.252594751E0,1.537510799E1
6.755086917E0,5.763193502E0,-1.192250195E1,1.171660629E1,1.768160951E1
6.765113917E0,7.203641630E0,-8.924204131E0,1.131355420E1,1.610994664E1
6.775140917E0,8.788968558E0,-6.310952479E0,7.055259177E0,1.291707287E1
6.785167917E0,1.190291612E1,-5.568534431E0,4.930944681E0,1.403574734E1
6.795194917E0,1.194078269E1,-4.561596825E0,5.110825499E0,1.376629921E1
6.805220917E0,5.319496254E0,-5.500967515E0,9.100373138E0,1.189009988E1
6.815247917E0,5.706765532E-2,-5.425417396E0,1.117236850E1,1.242015413E1
6.825274917E0,-3.516255292E0,-3.939066871E0,1.221608831E1,1.330838505E1
6.835301917E0,-8.218808314E0,-5.780798592E-1,1.361257298E1,1.591179215E1
6.845328917E0,-1.132387454E1,5.142315094E0,1.383146116E1,1.860061442E1
6.855355917E0,-1.195063992E1,7.817353106E0,1.458142971E1,2.040948056E1
6.865382917E0,-1.058454908E1,8.605001705E0,1.331020059E1,1.905886076E1
6.875409917E0,-8.437970143E0,6.916621109E0,1.321279650E1,1.713525545E1
6.885436917E0,-7.303713802E0,4.162560610E0,1.286978831E1,1.537213704E1
6.895463917E0,-4.217888719E0,2.853821600E0,1.162499913E1,1.269155182E1
6.905490917E0,-8.289825672E-1,1.540642653E0,1.141457772E1,1.154787324E1
6.915517917E0,-9.587230732E-1,1.112027127E0,1.093386993E1,1.103201097E1
6.925544917E0,-1.430778879E0,5.611474921E-1,1.066337540E1,1.077355974E1
6.935571917E0,-2.428780185E0,5.653818995E-2,1.108506256E1,1.134816204E1
6.945598917E0,-4.159172148E0,9.274941176E-2,1.162714038E1,1.234899627E1
6.955625917E0,-5.726073623E0,3.737823835E-1,1.183823890E1,1.315566542E1
6.965652917E0,-6.755149664E0,4.345638978E-1,1.171622739E1,1.353110775E1
6.975679917E0,-6.900737733E0,-1.072293104E-1,1.125987910E1,1.320668606E1
6.985706917E0,-6.437956342E0,-7.677098867E-1,1.013303645E1,1.202975843E1
6.995733917E0,-6.507220704E0,-1.025135895E0,9.061344727E0,1.120280292E1
7.005760917E0,-6.773671889E0,-8.478414457E-1,8.278852202E0,1.073037091E1
7.015787917E0,-7.116489465E0,-3.141745515E-1,7.818200952E0,1.057673835E1
7.025813917E0,-7.551996519E0,4.375588417E-2,7.464534452E0,1.061856114E1
7.035840917E0,-7.511898068E0,8.215884706E-1,6.496040828E0,9.965047247E0
7.045867917E0,-7.269491803E0,2.047503133E0,5.506879635E0,9.346844573E0
7.055894917E0,-7.171404176E0,3.369072688E0,5.031163033E0,9.385749309E0
7.065921917E0,-6.623025395E0,4.455264916E0,4.671742288E0,9.248731095E0
7.075948917E0,-5.376484972E0,5.348104341E0,4.871566206E0,9.013377169E0
7.085975917E0,-3.559301909E0,6.193023494E0,4.822036196E0,8.618248265E0
7.096002917E0,-2.003035643E0,6.598795118E0,5.181639374E0,8.625870124E0
7.106029917E0,-1.124544700E0,5.997077451E0,6.402682428E0,8.844426551E0
7.116056917E0,1.163847345E-1,4.611996024E0,7.010727367E0,8.392517557E0
7.126083917E0,1.102469122E0,3.005872303E0,6.572520654E0,7.310864123E0
7.136110917E0,2.394972754E0,1.420317918E0,6.020031281E0,6.632795346E0
7.146137917E0,4.016700354E0,-9.763391259E-1,3.534360026E0,5.438641431E0
7.156164917E0,4.551175041E0,-2.621401210E0,-9.653753042E-3,5.252145442E0
7.166191917E0,3.533685842E0,-2.429333039E0,-2.379718537E0,4.904248665E0
7.176218917E0,1.932838649E0,-2.547894400E0,-1.009359230E1,1.058811771E1
7.186245917E0,4.176940375E0,-1.074086153E1,-4.876012311E1,5.010351827E1
7.196272917E0,3.082698402E1,-3.918508529E1,-5.296552013E1,7.274008644E1
7.206299917E0,6.374084866E1,-3.745009011E1,1.182218595E1,7.486767739E1
7.216326917E0,3.059360995E1,-2.354097676E1,2.081113630E1,4.385487374E1
7.226353917E0,7.208600069E0,-1.337955909E1,3.583161473E0,1.561459454E1
7.236380917E0,1.198244761E0,-3.782894758E0,2.268565891E0,4.570828640E0
7.246406917E0,-4.793823380E0,1.174029686E0,8.430742400E0,9.769160953E0
7.256433917E0,-1.002787661E1,4.772426080E0,4.062237300E0,1.182523285E1
7.266460917E0,-1.179281539E1,6.149327252E0,3.359463959E0,1.371753325E1
7.276487917E0,-1.033265220E1,5.405087796E0,5.653069966E0,1.295900751E1
7.286514917E0,-8.934271283E0,4.175904833E0,6.432020833E0,1.177413591E1
7.296541917E0,-7.057577013E0,2.624737338E0,5.494368932E0,9.321305132E0
7.306568917E0,-4.587467539E0,1.707731956E0,4.161894904E0,6.425151831E0
7.316595917E0,6.598875225E-1,-7.710436767E-1,8.751938142E0,8.810583473E0
7.326622917E0,1.136877648E0,-2.414353935E0,7.846741211E0,8.288120616E0
7.336649917E0,1.845701687E0,-3.014466541E0,4.599466610E0,5.800751360E0
7.346676917E0,4.057157823E0,-2.420139170E0,2.383056420E0,5.291177667E0
7.356703917E0,7.608450217E0,-2.996372332E0,2.909776238E-1,8.182385339E0
7.366730917E0,1.088243198E1,-3.480004309E0,6.028339005E-1,1.144120467E1
7.376757917E0,1.138872133E1,-2.567070343E0,1.017265835E0,1.171868821E1
7.386784917E0,6.472161968E0,-1.377292936E0,-3.023257245E0,7.275018951E0
7.396811917E0,2.091778250E0,-9.155196047E-1,-5.786022202E0,6.220270518E0
7.406838917E0,2.700602038E0,-1.042142229E0,-2.431082819E0,3.780142254E0
7.416865917E0,3.593781186E0,-1.279705830E0,-1.139582570E0,3.981401594E0
7.426892917E0,1.091196860E0,-1.618316919E0,-2.048118406E0,2.829213538E0
7.436919917E0,-2.121579754E0,-1.486976761E0,-3.754636334E0,4.561742490E0
7.446946917E0,-4.887798661E0,-1.792530617E0,-5.151068376E0,7.323745434E0
7.456973917E0,-6.595330642E0,-1.273247581E0,-4.510432227E0,8.090954490E0
7.467000917E0,-6.863326662E0,7.924988651E-1,-3.643360312E0,7.810722226E0
7.477026917E0,-7.801486686E0,2.190971001E0,-2.200891387E0,8.396872711E0
7.487053917E0,-8.767769478E0,3.188001376E0,1.378773451E-2,9.329379642E0
7.497080917E0,-6.811343161E0,2.580761599E0,4.663072987E-1,7.298778568E0
7.507107958E0,-5.180952911E0,2.300931399E0,1.601829525E0,5.890875673E0
7.517134958E0,-5.745837797E0,3.395923687E0,2.293170390E0,7.057306860E0
7.527161958E0,-6.187214870E0,4.906307437E0,1.883042006E0,8.117840090E0
7.537188958E0,-5.460804745E0,5.550188207E0,4.870594691E-1,7.801423237E0
7.547215958E0,-3.481325780E0,5.379366480E0,-4.005371958E-1,6.420096803E0
7.557242958E0,-1.624204481E0,6.290624049E0,7.663204421E-1,6.541959809E0
7.567269958E0,-2.746378720E-2,7.701796921E0,7.846026389E-1,7.741707265E0
7.577296958E0,1.892781129E0,7.675430072E0,1.582038747E-1,7.906951097E0
7.587323958E0,4.302497052E0,5.274501929E0,-5.107817692E-1,6.825888184E0
7.597350958E0,6.066047114E0,1.384568626E0,-1.273036058E0,6.350951005E0
7.607377958E0,7.241687708E0,-1.893161783E0,-1.933067421E0,7.730643702E0
7.617404958E0,6.912725109E0,-3.574391234E0,-1.310506770E0,7.891734228E0
7.627431958E0,3.271748123E0,-2.766154588E0,-7.480810761E-2,4.285037133E0
7.637458958E0,4.551332331E-1,-4.260281324E-1,4.045758677E-1,7.431876359E-1
7.647485958E0,7.913826317E-1,1.544757192E0,-4.694495559E-1,1.798038970E0
7.657512958E0,1.339185462E0,3.003334027E0,-2.125567116E0,3.915541922E0
7.667539958E0,1.682631614E0,4.559255308E0,-3.346313571E0,5.900497659E0
7.677566958E0,1.989130964E0,6.828479596E0,-3.621366595E0,7.981169814E0
7.687593958E0,2.322786537E0,6.178292604E0,-3.215226012E0,7.341955810E0
7.697619958E0,1.636762546E0,4.095252433E0,-3.089984208E0,5.384987143E0
7.707646958E0,6.710580432E-1,2.608167499E0,-3.335477511E0,4.286988083E0
7.717673958E0,5.886497247E-1,1.372566631E0,-4.060166801E0,4.326130153E0
7.727700958E0,4.794629127E-1,6.233488566E-1,-5.552414242E0,5.607829562E0
7.737727958E0,7.196905053E-1,2.496269917E-1,-6.425221106E0,6.470219032E0
7.747754958E0,1.993228692E0,1.310021889E-1,-6.119615795E0,6.437376769E0
7.757781958E0,3.549417191E0,1.591927850E-1,-5.160609863E0,6.265428868E0
7.767808958E0,5.288366847E0,3.423895597E-1,-2.440965198E0,5.834583585E0
7.777835958E0,1.057288506E1,1.237055070E0,1.263455833E0,1.071972594E1
7.787862958E0,2.054436059E1,1.801114914E0,4.250922271E0,2.105671169E1
7.797889958E0,1.928777290E1,-1.061906403E0,9.274398847E-1,1.933923404E1
7.807916958E0,9.047817194E0,-3.080530137E0,-5.429455483E0,1.099234501E1
7.817943958E0,6.293023746E0,-4.748237903E0,-7.835659568E0,1.111510108E1
7.827970958E0,9.381820092E0,-8.891386634E0,-5.531451974E0,1.405959692E1
7.837997958E0,9.406223447E0,-1.252103347E1,-1.740153598E0,1.575694936E1
7.848024958E0,8.494379987E0,-1.284989023E1,-1.424683449E0,1.546945032E1
7.858051958E0,1.074986975E1,-1.143579960E1,-9.940898108E-1,1.572658344E1
7.868078958E0,1.244519742E1,-1.023915172E1,4.477085848E-1,1.612214656E1
7.878105958E0,1.056557136E1,-9.891659875E0,1.051157466E0,1.451141500E1
7.888132958E0,8.854028773E0,-1.020813691E1,1.694718685E0,1.361880891E1
7.898159958E0,7.964802343E0,-1.060392442E1,2.804719606E0,1.355535840E1
7.908186958E0,7.377143136E0,-9.720278569E0,4.581006073E0,1.303425000E1
7.918213958E0,6.314447944E0,-9.183324662E0,7.130062607E0,1.323040050E1
7.928240958E0,7.029096395E0,-9.056550010E0,1.098492548E1,1.587759056E1
7.938266958E0,9.108410720E0,-7.921073356E0,8.222498492E0,1.460534253E1
7.948293958E0,1.136028983E1,-5.444450083E0,2.593684530E0,1.286178141E1
7.958320958E0,1.235679220E1,-6.042971077E0,9.359047526E-1,1.378708565E1
7.968347958E0,8.139713028E0,-8.496079772E0,3.807248411E0,1.236662606E1
7.978374958E0,2.526729233E0,-8.865470604E0,8.007795750E0,1.221088541E1
7.988401958E0,2.758499998E-1,-6.814275540E0,9.181716678E0,1.143741079E1
7.998428958E0,-9.889892846E-1,-3.206796082E0,1.043190050E1,1.095838441E1
8.008455958E0,-4.994299262E0,1.030547054E0,1.177544565E1,1.283223178E1
8.018482958E0,-9.625803936E0,4.475927222E0,1.317012820E1,1.691574127E1
8.028509958E0,-7.992231631E0,5.132501128E0,1.349325002E1,1.650109482E1
8.038536958E0,-5.082829031E0,4.612322883E0,1.216870131E1,1.397089706E1
8.048563958E0,-3.901098269E0,3.468958919E0,1.090505602E1,1.209018158E1
8.058590958E0,-3.096959644E0,2.422645140E0,1.080631175E1,1.149942356E1
8.068617958E0,-2.846844410E0,8.540003179E-1,1.124479212E1,1.163095823E1
8.078644958E0,-3.426173673E0,-4.009964946E-1,1.147300543E1,1.198037219E1
8.088671958E0,-4.710935298E0,-9.096878842E-1,1.163010842E1,1.258093261E1
8.098698958E0,-5.704213808E0,-1.234649233E0,1.146841654E1,1.286806092E1
8.108725958E0,-5.976322174E0,-1.712605757E0,1.182834073E1,1.336260041E1
8.118752958E0,-5.690842980E0,-2.122232011E0,1.298463464E1,1.433493283E1
8.128779958E0,-5.755122006E0,-1.755759231E0,1.364182192E1,1.490984323E1
8.138806958E0,-5.651246805E0,-7.278548263E-1,1.322691285E1,1.440199940E1
8.148833958E0,-5.545471258E0,1.956873044E-2,1.183579359E1,1.307052579E1
8.158860958E0,-6.021987174E0,-3.182887986E-2,1.019102913E1,1.183733151E1
8.168886958E0,-6.410449870E0,-2.633908989E-1,8.888861221E0,1.096244024E1
8.178913958E0,-7.266028497E0,-3.154657629E-1,8.265063883E0,1.100935828E1
8.188940958E0,-8.096538942E0,-3.363397381E-1,7.923132745E0,1.133327401E1
8.198967958E0,-8.480596930E0,5.717407465E-2,7.485173954E0,1.131157028E1
8.208994958E0,-8.850616922E0,6.526470615E-1,7.095612566E0,1.136252990E1
8.219021958E0,-8.732088014E0,1.425015717E0,6.603828986E0,1.104040706E1
8.229048958E0,-8.189146559E0,2.308254452E0,5.875551260E0,1.033983861E1
8.239075958E0,-7.838383201E0,3.364334689E0,4.805025476E0,9.790161844E0
8.249102958E0,-7.382709686E0,4.403600673E0,3.325838960E0,9.217228758E0
8.259129958E0,-6.578187776E0,5.413397275E0,2.072806374E0,8.767779122E0
8.269156958E0,-4.385027577E0,6.480957935E0,2.304689990E0,8.157381844E0
8.279183958E0,-1.275920928E0,7.175147563E0,3.639045067E0,8.145757532E0
8.289210958E0,1.731953462E0,7.018923994E0,5.075829914E0,8.833402863E0
8.299237958E0,4.939969273E0,4.375532284E0,6.538436065E0,9.289764548E0
8.309264958E0,9.271602416E0,1.811417708E0,7.140908023E0,1.184214562E1
8.319291958E0,1.032312943E1,-7.720102215E-1,8.750745310E0,1.355501916E1
8.329318958E0,9.767094301E0,-3.412164329E0,8.745720212E0,1.354719966E1
8.339345958E0,7.021223119E0,-3.781655733E0,5.508443765E0,9.692339598E0
8.349372958E0,3.417143818E0,-1.512534648E0,1.512743102E0,4.031504015E0
8.359399958E0,-8.802100235E-1,-1.594737437E0,-9.549714704E0,9.721882950E0
8.369426958E0,-9.340687269E-1,-1.188847350E1,-5.546225783E1,5.672980107E1
8.379453958E0,2.631968824E1,-4.492851286E1,-4.722787663E1,7.029772107E1
8.389480958E0,5.011482007E1,-3.792137335E1,1.216694246E1,6.401218818E1
8.399507958E0,2.031813884E1,-2.541047895E1,1.253578717E1,3.486639021E1
8.409533958E0,5.229951993E0,-1.522403988E1,5.442333975E-1,1.610651974E1
8.419560958E0,3.035868520E-1,-5.576736905E0,8.382335055E0,1.007252205E1
8.429587958E0,-4.808502231E0,-4.239354140E-1,1.059834968E1,1.164587613E1
8.439614958E0,-8.195722922E0,3.822686815E0,5.295120966E0,1.047955699E1
8.449641958E0,-9.635838928E0,5.939701062E0,6.432424875E0,1.301942896E1
8.459668958E0,-9.202560833E0,6.587833343E0,7.072440051E0,1.334563907E1
8.469695958E0,-8.451510540E0,6.503233488E0,7.547270799E0,1.306450813E1
8.479722958E0,-5.697703518E0,6.143585286E0,3.941034752E0,9.259547530E0
8.489749958E0,-3.264971784E0,4.241233435E0,4.737388686E0,7.147793601E0
8.499776708E0,6.995947945E-1,1.779409465E0,6.841989588E0,7.104122214E0
8.509803708E0,1.287014265E0,4.905796391E-1,6.022239189E0,6.177737365E0
8.519830708E0,6.485676638E0,-6.852936745E-3,6.283737198E0,9.030470729E0
8.529857708E0,1.290629131E1,-8.428270197E-1,3.925972324E0,1.351650737E1
8.539884708E0,1.679664619E1,-3.744200224E-1,-3.246264495E0,1.711156763E1
8.549911708E0,1.448179082E1,1.724719287E0,-7.187103950E0,1.625888634E1
8.559938708E0,8.576935655E0,3.212310006E0,-6.864238243E0,1.144554618E1
8.569965708E0,1.324313654E0,3.894555527E0,-8.368532703E0,9.324897265E0
8.579992708E0,2.823088342E-1,2.287390417E0,-5.103197222E0,5.599506682E0
8.590019708E0,-1.910028076E-1,4.021252996E-1,-2.701134135E0,2.737574189E0
8.600046708E0,-2.979880845E0,-9.498544550E-1,-2.243713325E0,3.849176901E0
8.610073708E0,-5.577171938E0,-1.985258353E0,-2.946900795E0,6.612890582E0
8.620100708E0,-5.491105016E0,-2.002786551E0,-3.176717420E0,6.652437285E0
8.630127708E0,-5.445967435E0,-1.536831876E0,-2.149034185E0,6.052996072E0
8.640154708E0,-6.844338999E0,-1.255220030E0,-8.644962162E-1,7.011983126E0
8.650180708E0,-8.870890973E0,-4.856288016E-1,1.447736682E0,9.001360091E0
8.660207708E0,-8.649467441E0,9.819357884E-1,2.125359979E0,8.960727646E0
8.670234708E0,-6.817690898E0,1.342766297E0,3.569076115E-1,6.957823909E0
8.680261708E0,-4.174662884E0,1.177880663E0,-1.498714462E0,4.589265529E0
8.690288708E0,-3.020649387E0,7.368105680E-1,-2.745648987E0,4.147987571E0
8.700315708E0,-2.814126899E0,1.165326106E0,-2.581897713E0,3.992930119E0
8.710342708E0,-2.572518779E0,2.189027971E0,-1.532983531E0,3.709411656E0
8.720369708E0,-1.677145171E0,3.336717705E0,6.033459704E-1,3.782925763E0
8.730396708E0,-5.531226271E-1,4.914723920E0,2.636347570E0,5.604532483E0
8.740423708E0,3.912073785E-1,6.563634641E0,3.167387018E0,7.298402800E0
8.750450708E0,9.006717700E-1,7.436696443E0,2.156088266E0,7.795151072E0
8.760477708E0,1.583997856E0,6.762546977E0,1.075018784E0,7.028282593E0
8.770504708E0,2.548338203E0,4.498964667E0,5.908675736E-1,5.204213213E0
8.780531708E0,3.136930041E0,1.287629977E0,1.292165954E-1,3.393378547E0
8.790558708E0,3.446518475E0,-2.055621407E0,4.184735298E-2,4.013205722E0
8.800585708E0,3.027699375E0,-4.090269436E0,-1.193543892E-1,5.090335258E0
8.810612708E0,1.673914585E0,-3.782391313E0,-6.312689102E-1,4.184133664E0
8.820639708E0,5.181036526E-1,-1.527928321E0,-1.239797706E0,2.034722266E0
8.830666708E0,1.092300230E0,1.787890266E0,-1.653938888E0,2.669304261E0
8.840693708E0,2.600235751E0,4.302542660E0,-2.802597359E0,5.755662539E0
8.850720708E0,3.939004891E0,4.373185211E0,-2.527495219E0,6.405368101E0
8.860747708E0,4.243934848E0,3.016473305E0,-2.845133222E0,5.933369806E0
8.870774708E0,4.006675302E0,1.901617441E0,-4.206465013E0,6.112605318E0
8.880800708E0,3.756781678E0,1.662007899E0,-5.848898481E0,7.147397587E0
8.890827708E0,3.351585420E0,1.404718716E0,-6.652844440E0,7.580679300E0
8.900854708E0,2.709134295E0,1.267518479E0,-6.840088658E0,7.465442021E0
8.910881708E0,2.425098193E0,1.598451004E0,-7.132019670E0,7.700769535E0
8.920908708E0,2.984396065E0,2.270981376E0,-6.038535964E0,7.108297466E0
8.930935708E0,5.154255694E0,3.150596738E0,-1.707634600E0,6.277629129E0
8.940962708E0,1.103721128E1,5.470434524E0,2.754406947E0,1.262269561E1
8.950989708E0,1.965102299E1,4.837682176E0,3.261628346E0,2.049888028E1
8.961016708E0,1.449412260E1,1.477201386E0,1.021992724E0,1.460500541E1
8.971043708E0,2.260765706E0,-1.728355086E-1,-3.350570344E0,4.045646465E0
8.981070708E0,-1.749998555E0,-2.665888873E0,-4.126461947E0,5.215088362E0
8.991097708E0,1.396556003E0,-7.178855283E0,-1.813966509E0,7.535038576E0
9.001124708E0,7.776493347E0,-1.206464543E1,1.376822820E0,1.441961023E1
9.011151708E0,1.328302390E1,-1.529934267E1,3.899221605E0,2.063280250E1
9.021178708E0,1.471242723E1,-1.609127318E1,2.560288743E0,2.195312429E1
9.031205708E0,1.345050336E1,-1.613894202E1,-8.765235002E-1,2.102735798E1
9.041232708E0,1.164185899E1,-1.522757979E1,-1.764530493E0,1.924904244E1
9.051259708E0,9.426226187E0,-1.347637612E1,-5.115916085E-1,1.645381960E1
9.061286708E0,6.113275659E0,-1.051945905E1,2.707515786E0,1.246442135E1
9.071313708E0,3.625108813E0,-7.917517664E0,7.147056370E0,1.126538568E1
9.081340708E0,2.169777183E0,-5.738429959E0,1.189681396E1,1.338550312E1
9.091367708E0,7.591065860E-1,-4.396681078E0,1.571228707E1,1.633349357E1
9.101394708E0,-9.413017327E-1,-3.079831688E0,1.484752597E1,1.519277591E1
9.111421708E0,-1.715593538E0,-1.684960852E0,1.198558405E1,1.222442552E1
9.121447708E0,-1.265567263E0,-3.993326694E-1,8.078768669E0,8.187040386E0
9.131474708E0,-8.773717850E-1,1.116526121E0,5.332249031E0,5.518087672E0
9.141501708E0,-2.683365031E0,1.678277777E0,5.152106257E0,6.046591029E0
9.151528708E0,-5.016492369E0,1.460207039E0,5.143195100E0,7.331429337E0
9.161555708E0,-6.318044567E0,1.753120968E0,3.018874757E0,7.218360276E0
9.171582708E0,-5.710493132E0,2.702837136E0,3.765403397E0,7.354816323E0
9.181609708E0,-5.085838008E0,3.677814738E0,5.377162079E0,8.264740862E0
9.191636708E0,-4.430352269E0,4.060371161E0,6.405005527E0,8.782865762E0
9.201663708E0,-3.696574652E0,4.324823183E0,7.265750754E0,9.228211839E0
9.211690708E0,-3.447677978E0,4.577992710E0,7.718248647E0,9.613316955E0
9.221717708E0,-3.841342356E0,4.779942383E0,7.938505660E0,1.003113316E1
9.231744708E0,-4.302476002E0,4.778598400E0,7.975389311E0,1.024466383E1
9.241771708E0,-4.313957595E0,4.644664125E0,7.782831729E0,1.003770914E1
9.251798708E0,-4.223318735E0,4.378857303E0,7.572234317E0,9.713369393E0
9.261825708E0,-4.329021776E0,4.040657566E0,7.408932694E0,9.484704885E0
9.271852708E0,-4.753669381E0,3.865316233E0,7.256827319E0,9.497346203E0
9.281879708E0,-5.278835301E0,3.711666316E0,7.174647626E0,9.649773963E0
9.291906708E0,-5.731249579E0,3.561927894E0,7.239248250E0,9.896528041E0
9.301933708E0,-6.069470658E0,3.428650553E0,7.364671025E0,1.014063598E1
9.311960708E0,-6.355114160E0,3.187957522E0,7.461859351E0,1.030678874E1
9.321987708E0,-6.408442520E0,2.818684219E0,7.421713538E0,1.020269318E1
9.332014708E0,-6.066333042E0,2.251312512E0,7.239668080E0,9.709871189E0
9.342041708E0,-5.607193297E0,1.448010624E0,6.888532255E0,8.999401539E0
9.352068708E0,-4.499562837E0,4.543081909E-1,6.497964562E0,7.916817865E0
9.362095708E0,-2.413238871E0,-5.552305484E-1,5.870613286E0,6.371507134E0
9.372121708E0,1.553701093E0,-3.025878552E0,6.759821005E0,7.567371282E0
9.382148708E0,8.790448489E0,-7.015085882E0,7.682144430E0,1.361979286E1
9.392175708E0,1.417207433E1,-1.156742510E1,4.357907022E0,1.880543453E1
9.402202708E0,1.054441496E1,-1.185278560E1,-2.321321225E0,1.603314522E1
9.412229708E0,4.891876509E0,-8.689537241E0,-5.174337956E0,1.123442417E1
9.422256708E0,4.041520615E0,-4.500210709E0,-5.819029734E0,8.393264702E0
9.432283708E0,4.108901589E0,-1.719536900E0,-5.982673420E0,7.458703685E0
9.442310708E0,3.737354304E0,-1.101296756E0,-3.960520306E0,5.555753129E0
9.452337708E0,4.283111193E0,-1.454872624E0,-7.193080974E-1,4.580294749E0
9.462364708E0,2.737068783E0,-1.349647300E0,2.019001465E0,3.659161143E0
9.472391708E0,3.753675052E0,-3.320847777E0,2.530798895E0,5.614539109E0
9.482418708E0,5.703158970E0,-5.549338607E0,4.784103262E0,9.284870770E0
9.492445708E0,6.846283198E0,-7.498806737E0,4.735952610E0,1.120414848E1
9.502472708E0,4.981369899E0,-8.315955709E0,2.656759615E0,1.005124555E1
9.512499708E0,2.476491126E0,-6.394637829E0,1.544657789E0,7.029250952E0
9.522526708E0,-7.889484358E-1,-3.872477025E0,1.205817197E0,4.131889769E0
9.532553708E0,-2.542654125E0,-1.538886003E0,9.313696522E-1,3.114596211E0
9.542580708E0,3.093703330E-2,5.368714607E-1,1.885313065E0,1.960508459E0
9.552607708E0,2.201738648E0,1.935120233E0,3.459123902E0,4.534080013E0
9.562634708E0,3.986549186E0,4.588134706E0,4.797224413E0,7.743185169E0
9.572661708E0,6.149644171E0,6.671356140E0,7.520147320E0,1.178463966E1
9.582688708E0,6.483683907E0,6.961278634E0,6.396117175E0,1.146332727E1
9.592715708E0,5.140505381E0,6.501671112E0,4.379453134E0,9.374227039E0
9.602742708E0,2.546603335E0,6.700680512E0,2.029237308E0,7.449973954E0
9.612768708E0,3.271002603E-1,6.741259604E0,7.334481266E-1,6.788926408E0
9.622795708E0,-4.150675267E-1,5.959637144E0,5.462799230E-1,5.998998058E0
9.632822708E0,-2.561630094E-1,4.763578658E0,1.248455679E0,4.931119822E0
9.642849708E0,-4.546736419E-2,3.311382304E0,1.353627938E0,3.577656865E0
9.652876708E0,4.818497461E-1,1.941211277E0,1.443659857E0,2.466705127E0
9.662903708E0,1.441570793E0,9.848324990E-1,1.815961579E0,2.519074802E0
9.672930708E0,2.024666247E0,1.085191185E0,2.312165655E0,3.259297982E0
9.682957708E0,1.615235437E0,6.186447716E-1,2.489352661E0,3.031267646E0
9.692984708E0,1.092835250E0,3.090095598E-1,2.661481826E0,2.893658809E0
9.703011708E0,-6.210327744E-3,-2.379062480E-1,2.142960098E0,2.156134488E0
9.713038708E0,-1.169399276E0,-6.327599502E-1,1.441045128E0,1.960737332E0
9.723065708E0,-1.892556596E0,-1.763976908E0,2.726194131E-1,2.601481567E0
9.733092708E0,-2.061371559E0,-2.939222231E0,-7.066208088E-1,3.658905983E0
9.743119708E0,-1.687970706E0,-3.520254203E0,-9.556560624E-1,4.019292633E0
9.753146708E0,-7.901640719E-1,-2.962663718E0,-4.526657081E-1,3.099458310E0
9.763173708E0,-6.064001173E-1,-1.723446348E0,9.290759722E-2,1.829377009E0
9.773200708E0,-6.553921831E-1,-3.415656871E-1,2.685251927E-1,7.863280558E-1
9.783227708E0,-2.065417832E-1,8.386199480E-1,4.000325811E-1,9.518240338E-1
9.793254708E0,6.341293681E-1,1.575144587E0,5.308254397E-1,1.779037991E0
9.803281708E0,1.198576298E0,1.974542161E0,8.693944287E-1,2.468045494E0
9.813308708E0,1.603935692E0,2.733095600E0,1.374562286E0,3.454249954E0
9.823335708E0,2.081432186E0,3.375542048E0,1.760776727E0,4.339006654E0
9.833362708E0,2.393046096E0,3.583696493E0,1.818656561E0,4.677292150E0
9.843389708E0,2.547631860E0,3.403097051E0,1.717476926E0,4.584890907E0
9.853415708E0,2.727089925E0,3.299575607E0,1.440439357E0,4.516534532E0
9.863442708E0,2.690398647E0,3.249797090E0,1.194414834E0,4.384752308E0
9.873469708E0,2.821034215E0,3.187769242E0,1.090283525E0,4.394180805E0
9.883496708E0,2.417309117E0,2.737612574E0,1.178608056E0,3.837580348E0
9.893523708E0,2.552006747E0,2.154929933E0,1.182744377E0,3.543352327E0
9.903550708E0,2.813638072E0,2.215984805E0,9.938758028E-1,3.716845029E0
9.913577708E0,2.143561192E0,2.721278962E0,7.430986637E-1,3.542937961E0
9.923604708E0,2.452936787E0,2.385270469E0,4.499532578E-1,3.450923358E0
9.933631708E0,2.661689987E0,2.259960544E0,2.745419776E-1,3.502483197E0
9.943658708E0,1.984154398E0,2.951007879E0,1.649166244E-1,3.559847422E0
9.953685708E0,1.504485664E0,3.098019744E0,3.727066420E-2,3.444211455E0
9.963712708E0,8.561487311E-1,2.878414112E0,-5.531414844E-2,3.003550916E0
9.973739708E0,4.950878423E-1,2.097523139E0,-1.658218465E-1,2.161530054E0
9.983766708E0,1.011285303E0,1.040853503E0,-4.851370507E-1,1.530173825E0
9.993793708E0,2.009878054E0,3.492442507E-1,-1.085063131E0,2.310615359E0
1.000382071E1,3.649153149E0,-3.280580342E-1,-1.924858954E0,4.138722359E0
1.001384771E1,4.940514234E0,-7.881193006E-1,-2.968681088E0,5.817463393E0
1.002387471E1,5.172241729E0,-9.731111705E-1,-4.143664455E0,6.698431531E0
1.003390171E1,4.665004542E0,-8.595401162E-1,-5.109961866E0,6.972287061E0
1.004392871E1,3.885798152E0,-6.048166913E-1,-5.121073914E0,6.456828056E0
1.005395571E1,3.591045274E0,-5.808080238E-1,-4.383114953E0,5.696019734E0
1.006398271E1,3.490894749E0,-7.870825893E-1,-3.552120359E0,5.042162650E0
1.007400971E1,3.526631176E0,-1.122577112E0,-2.599672079E0,4.522786945E0
1.008403671E1,3.348671753E0,-1.431065685E0,-1.573847090E0,3.967183657E0
1.009406371E1,2.908716137E0,-1.711932596E0,-7.308316438E-1,3.453325596E0
1.010408971E1,2.187307135E0,-1.878278865E0,-6.221188948E-2,2.883767383E0
1.011411671E1,1.213032954E0,-1.973818860E0,6.266835237E-1,2.400029599E0
1.012414371E1,6.955169463E-1,-2.023986216E0,1.682753528E0,2.722484796E0
1.013417071E1,5.708408600E-1,-1.855860640E0,3.133359146E0,3.686192825E0
1.014419771E1,1.285627306E-1,-1.520179591E0,4.046173829E0,4.324233691E0
1.015422471E1,-2.891565084E-2,-1.333198498E0,4.256575359E0,4.460570383E0
1.016425171E1,-1.942924511E-1,-1.467780352E0,4.172226934E0,4.427144261E0
1.017427871E1,-4.580574256E-1,-1.834153436E0,3.921292798E0,4.353214058E0
1.018430571E1,-8.168250364E-1,-2.228441713E0,3.400602337E0,4.146956940E0
1.019433271E1,-9.227631354E-1,-2.821936440E0,2.512873379E0,3.889646474E0
1.020435971E1,-9.400387341E-1,-2.614735091E0,6.913478816E-1,2.863297804E0
1.021438671E1,-7.871767294E-1,-2.172894918E0,-5.629927272E-1,2.378671970E0
1.022441371E1,-2.588685161E-1,-1.908111359E0,-1.110336259E0,2.222779448E0
1.023444071E1,1.431585503E-1,-1.322807996E0,-8.271088269E-1,1.566660262E0
1.024446771E1,5.293320608E-1,-3.273236239E-1,-1.007001632E-1,6.304551596E-1
1.025449471E1,1.591139061E0,2.432131809E0,6.318246880E-1,2.974254711E0
1.026452171E1,2.513257248E0,7.714542097E0,2.106535745E0,8.382607865E0
1.027454871E1,1.136548449E0,8.100474703E0,3.702623889E0,8.978800390E0
1.028457571E1,-1.437470725E0,4.862025304E0,4.029461025E0,6.476277348E0
1.029460271E1,-3.012255124E0,1.458417791E0,3.951960567E0,5.178673160E0
1.030462971E1,-3.352722119E0,9.074703276E-2,3.954516385E0,5.185284994E0
1.031465671E1,-3.323921658E0,-3.183732909E-1,3.705591643E0,4.988108476E0
1.032468371E1,-3.454434435E0,-4.532556921E-1,3.437281336E0,4.894227311E0
1.033471071E1,-3.591310737E0,-3.151503056E-1,3.742115107E0,5.196177248E0
1.034473771E1,-4.011349567E0,-3.699316996E-1,3.723908631E0,5.485915630E0
1.035476471E1,-4.492941450E0,-6.742553008E-1,3.055918037E0,5.475379269E0
1.036479071E1,-4.842956949E0,-5.579851717E-1,2.323536735E0,5.400407616E0
1.037481771E1,-4.896815068E0,3.498447597E-1,1.938251709E0,5.278068667E0
1.038484471E1,-5.149650427E0,8.216022116E-1,1.811832275E0,5.520567535E0
1.039487171E1,-5.626977351E0,1.328424246E0,1.073710177E0,5.880513467E0
1.040489871E1,-5.530100098E0,2.037507318E0,-3.102813292E-1,5.901670752E0
1.041492571E1,-4.237867777E0,1.803974202E0,-1.809779903E0,4.948651283E0
1.042495271E1,-2.250031972E0,5.734715223E-1,-4.555043851E0,5.112723144E0
1.043497971E1,1.228704661E-1,-1.067445470E0,-7.599465970E0,7.675051792E0
1.044500671E1,1.927872024E0,-2.739405330E0,-7.695855566E0,8.393284518E0
1.045503371E1,2.573084205E0,-3.140589228E0,-6.953041077E0,8.051636060E0
1.046506071E1,1.721742470E0,-2.107932937E0,-6.174327607E0,6.747599558E0
1.047508771E1,2.911866617E-1,-6.550325793E-1,-5.043154503E0,5.093845767E0
1.048511471E1,-2.227163512E-1,8.012802136E-1,-4.277539674E0,4.357636769E0
1.049514171E1,6.562248266E-1,1.506185449E0,-2.903722615E0,3.336289954E0
1.050516921E1,1.989829121E0,1.047815198E0,-2.396527821E0,3.286439139E0
1.051519621E1,2.818522836E0,9.398048455E-1,-2.812511314E0,4.091151918E0
1.052522321E1,2.747269251E0,1.615840039E0,-2.913431040E0,4.318160232E0
1.053525021E1,1.312525667E0,2.132878329E0,-1.080269291E0,2.727430170E0
1.054527721E1,-2.350288332E-2,2.287709675E0,3.031945038E-1,2.307833367E0
1.055530421E1,-1.111919977E0,1.575793043E0,9.710526583E-1,2.159266777E0
1.056533121E1,-6.070234305E-1,-1.574286801E-1,2.106890379E0,2.198237544E0
1.057535821E1,7.957762295E-1,-1.305687933E0,1.622973349E0,2.229825840E0
1.058538521E1,2.816109105E0,-3.028838412E0,3.428082204E-1,4.149921698E0
1.059541221E1,3.927001142E0,-5.212715571E0,8.632887661E-2,6.526959037E0
1.060543921E1,2.864802963E0,-5.957204118E0,3.253618830E-1,6.618250318E0
1.061546621E1,2.860756105E-1,-5.649725359E0,1.521422124E0,5.857982688E0
1.062549221E1,-1.129020744E0,-5.211691723E0,3.423661124E0,6.337024061E0
1.063551921E1,-1.584783137E0,-4.918094255E0,5.376982570E0,7.457287057E0
1.064554621E1,-2.112880266E0,-5.017696896E0,5.545197024E0,7.771148898E0
1.065557321E1,-2.404801923E0,-5.788883829E0,4.555060515E0,7.748730514E0
1.066560021E1,-2.301862276E0,-5.872197881E0,3.227949554E0,7.085261902E0
1.067562721E1,-3.707393171E0,-5.981912697E0,2.252803552E0,7.389395610E0
1.068565421E1,-4.543079571E0,-5.063882883E0,2.518711531E0,7.254404842E0
1.069568121E1,-5.685329640E0,-4.135501742E0,2.578256359E0,7.488174252E0
1.070570821E1,-5.775166846E0,-4.731042411E0,2.187311521E0,7.779437388E0
1.071573521E1,-5.005871487E0,-5.772181842E0,2.719154084E0,8.109909463E0
1.072576221E1,-2.213225504E0,-5.495519664E0,2.493284329E0,6.427718900E0
1.073578921E1,1.393588541E0,-4.469266659E0,1.932979567E0,5.064863621E0
1.074581621E1,4.507070662E0,-3.629854998E0,9.736211939E-1,5.868344868E0
1.075584321E1,6.777337509E0,-2.131652167E0,7.848939764E-1,7.147888026E0
1.076587021E1,7.674577548E0,-9.331015974E-1,1.404199630E0,7.857582054E0
1.077589721E1,6.713640865E0,3.614713633E-1,6.925546007E-1,6.758939790E0
1.078592421E1,4.920959975E0,1.422581960E0,-2.832975984E-2,5.122537368E0
1.079595121E1,2.733319548E0,7.626997000E-1,7.038598267E-1,2.923724550E0
1.080597821E1,-9.978893316E-1,6.348544228E-1,1.698920202E-1,1.194858383E0
1.081600521E1,-1.044514444E0,2.273765236E0,-3.945542078E0,4.672078880E0
1.082603221E1,4.876004827E-1,2.247860316E0,-5.203972814E0,5.689636481E0
1.083605921E1,-1.160529635E0,-2.798255217E-1,-5.580676174E0,5.706932444E0
1.084608621E1,-3.149746553E0,-3.182389804E0,-3.567037776E0,5.724706691E0
1.085611321E1,-2.091469517E0,-3.623750505E0,-2.639053077E-1,4.192309444E0
1.086614021E1,-1.018629990E0,-9.271579027E-1,1.652044829E0,2.150925603E0
1.087616621E1,-1.831156154E0,1.228577777E0,2.761210767E0,3.533669638E0
1.088619321E1,-3.494919972E0,2.081009433E0,3.231702297E0,5.195090529E0
1.089622021E1,-4.864326768E0,2.342802726E0,3.452334700E0,6.408511091E0
1.090624721E1,-6.676660150E0,6.600997764E-1,3.056557138E0,7.372656509E0
1.091627421E1,-7.437492249E0,1.676500808E0,5.853238285E-1,7.646538426E0
1.092630121E1,-6.737237304E0,-1.829552847E-1,-2.904651153E0,7.338994308E0
1.093632821E1,-3.814217708E0,-2.330840492E-1,-4.897411484E0,6.211861567E0
1.094635521E1,-2.620657736E-1,2.276902267E0,-4.006604551E0,4.615825217E0
1.095638221E1,2.379555400E0,1.969401289E0,-2.690094591E0,4.096026642E0
1.096640921E1,3.964032728E0,6.754112953E-1,-1.749380504E0,4.385210147E0
1.097643621E1,5.055484527E0,-8.246451026E-1,-8.753066947E-1,5.196549351E0
1.098646321E1,5.776592397E0,-2.137987041E0,-1.144137551E0,6.264906946E0
1.099649021E1,5.918575657E0,-2.578040305E0,-2.602450676E0,6.960501357E0
1.100651721E1,5.387637951E0,-2.573949593E0,-3.397335205E0,6.869770425E0
1.101654421E1,4.410812044E0,-2.746450641E0,-2.294153307E0,5.679911391E0
1.102657121E1,3.645326146E0,-2.655211272E0,7.177954227E-1,4.566593903E0
1.103659821E1,3.228205077E0,-3.332622900E0,-2.811809063E-1,4.648305725E0
1.104662521E1,3.669465791E0,-4.222355114E0,-2.167652889E0,5.999331709E0
1.105665221E1,4.988044496E0,-3.846815350E0,-3.994510755E0,7.458866697E0
1.106667921E1,5.057272605E0,-3.840274070E0,-5.213116690E0,8.215856423E0
1.107670621E1,4.110733522E0,-4.372425658E0,-5.530553257E0,8.161081763E0
1.108673321E1,3.510518589E0,-4.000571394E0,-5.311836401E0,7.519569017E0
1.109676021E1,3.951965537E0,-2.565719637E0,-5.072584124E0,6.923298243E0
1.110678721E1,4.656711436E0,-1.521275359E0,-5.210215302E0,7.151614056E0
1.111681421E1,5.061441085E0,-4.625849247E-1,-9.605418788E0,1.086720943E1
1.112684021E1,5.472065313E0,-7.049561065E-1,-5.326273177E0,7.668744868E0
1.113686721E1,6.485457367E0,1.947602869E0,-3.823633479E0,7.776534394E0
1.114689421E1,8.106000322E0,4.761076634E0,-3.602893487E0,1.006756840E1
1.115692121E1,8.168185460E0,5.753466659E0,-3.271690235E0,1.051311511E1
1.116694821E1,7.903544573E0,5.911719212E0,-3.808210278E0,1.057907871E1
1.117697521E1,8.570020738E0,6.479431227E0,-4.618851007E0,1.169453159E1
1.118700221E1,9.284547567E0,6.803690910E0,-5.459572152E0,1.273970022E1
1.119702921E1,9.595937528E0,6.578201809E0,-5.985266660E0,1.308350767E1
1.120705621E1,9.588464786E0,6.409352347E0,-5.940480496E0,1.297334818E1
1.121708321E1,8.913310769E0,6.308798364E0,-5.418450438E0,1.219047377E1
1.122711021E1,7.929374648E0,6.042952366E0,-4.740227802E0,1.103911297E1
1.123713721E1,7.666890213E0,6.142328719E0,-4.235441183E0,1.069805448E1
1.124716421E1,7.912709498E0,6.116067705E0,-3.874311589E0,1.072508956E1
1.125719121E1,7.846126669E0,5.003782861E0,-3.176602229E0,9.833125055E0
1.126721821E1,6.867667635E0,3.154586293E0,-2.007181026E0,7.819529979E0
1.127724521E1,6.116841291E0,2.127415275E0,-7.154904503E-1,6.515640392E0
1.128727221E1,5.649114325E0,1.515412940E0,6.401116544E-1,5.883766818E0
1.129729921E1,4.913686039E0,8.065602493E-1,1.898621182E0,5.329128664E0
1.130732621E1,4.395760726E0,2.741455364E-1,2.892619922E0,5.269261633E0
1.131735321E1,4.119834128E0,-2.030410552E-1,3.464722027E0,5.386887565E0
1.132738021E1,3.340491498E0,-1.071762469E0,3.072420049E0,4.663402535E0
1.133740721E1,1.751163905E0,-3.188564463E0,1.907741230E0,4.107675128E0
1.134743421E1,-3.914997393E-1,-6.218700957E0,1.027707793E0,6.315195717E0
1.135746121E1,-2.897662561E0,-8.423043956E0,7.924690443E-1,8.942713513E0
1.136748821E1,-4.809196295E0,-8.423573129E0,6.490964860E-1,9.721434025E0
1.137751521E1,-4.841891001E0,-6.553022529E0,1.447209263E-1,8.149046379E0
1.138754221E1,-2.901056870E0,-3.785238907E0,2.503339201E-2,4.769149947E0
1.139756821E1,-1.722157622E0,-2.083503563E0,8.411982778E-1,2.830976600E0
1.140759521E1,-4.609593987E-1,-1.806072037E0,1.573815223E0,2.439523340E0
1.141762221E1,8.047312403E-1,-2.546236714E0,1.272899964E0,2.958240709E0
1.142764921E1,1.873511045E0,-4.104769654E0,7.217335224E-1,4.569472270E0
1.143767621E1,1.880796091E0,-5.070435272E0,1.384257554E0,5.582371966E0
1.144770321E1,1.427954966E0,-5.152564094E0,2.104771932E0,5.746132353E0
1.145773021E1,1.107129938E0,-4.179730374E0,2.635923062E0,5.063987864E0
1.146775721E1,4.251352626E-1,-2.748666443E0,2.501222509E0,3.740591029E0
1.147778421E1,-8.556020164E-1,-1.324244218E0,9.047659904E-1,1.817767603E0
1.148781121E1,-1.817751997E0,1.387200750E-1,-1.696301234E0,2.490161332E0
1.149783821E1,-2.814615726E-1,1.928485836E0,-3.621965935E0,4.113017805E0
1.150786442E1,1.805669310E0,3.024007443E0,-3.795534684E0,5.177948069E0
1.151789142E1,2.898488188E0,3.165532866E0,-3.331762775E0,5.433458869E0
1.152791842E1,4.992570240E0,1.452116100E0,-1.511413445E0,5.414680912E0
1.153794542E1,6.915508384E0,-6.565334134E-1,1.966494053E0,7.219583866E0
1.154797242E1,6.583729767E0,-6.854791774E-1,5.560712610E0,8.645050843E0
1.155799942E1,5.468022548E0,-3.979982617E-1,7.396081098E0,9.206502529E0
1.156802642E1,5.476995685E0,-9.933489686E-1,6.635945987E0,8.661408838E0
1.157805342E1,5.987449425E0,-1.078091496E0,4.473731593E0,7.551563167E0
1.158808042E1,6.093407990E0,-1.436705763E0,1.486946356E0,6.434652581E0
1.159810742E1,5.334337072E0,-1.579505879E0,-1.063683956E0,5.664045760E0
1.160813442E1,4.297245083E0,-1.475641641E0,-2.339867424E0,5.110656819E0
1.161816142E1,3.906406664E0,-1.501566734E0,-2.627376772E0,4.941439505E0
1.162818842E1,4.201364487E0,-1.660057853E0,-2.176268762E0,5.014319630E0
1.163821542E1,4.465998650E0,-2.067635681E0,-1.128480461E0,5.049131550E0
1.164824242E1,4.252002252E0,-2.718914933E0,2.483756876E-1,5.053089356E0
1.165826942E1,3.395673719E0,-3.137571480E0,1.602207840E0,4.893058835E0
1.166829542E1,2.526293031E0,-3.394043223E0,2.476044399E0,4.902293518E0
1.167832242E1,2.133857591E0,-3.867025082E0,2.609152755E0,5.129805971E0
1.168834942E1,1.907104176E0,-4.358332699E0,2.022234390E0,5.169288363E0
1.169837642E1,1.261137997E0,-4.648347286E0,1.235287457E0,4.972276807E0
1.170840342E1,6.227433043E-1,-4.379530902E0,6.830103368E-1,4.476003046E0
1.171843042E1,1.159022369E0,-4.105245033E0,6.149428993E-1,4.309817212E0
1.172845742E1,2.527764775E0,-4.442429986E0,1.177362599E0,5.245089287E0
1.173848442E1,2.950286917E0,-4.650560750E0,2.011291911E0,5.863207598E0
1.174851142E1,2.177184436E0,-4.405657431E0,2.484656762E0,5.506674922E0
1.175853842E1,1.411676610E0,-4.303192286E0,2.119357227E0,5.000196972E0
1.176856542E1,1.317981850E0,-4.336374650E0,1.016598668E0,4.644856738E0
1.177859242E1,1.434575915E0,-4.050665368E0,-3.020683300E-1,4.307800280E0
1.178861942E1,1.196896320E0,-3.506487811E0,-1.600494021E0,4.036037497E0
1.179864642E1,6.453940290E-1,-2.932085997E0,-2.752136473E0,4.072826649E0
1.180867342E1,4.692156672E-2,-2.355316937E0,-3.642795471E0,4.338165321E0
1.181870042E1,-5.354415241E-1,-1.916517316E0,-4.267999649E0,4.709093039E0
1.182872742E1,-1.121411324E0,-1.609951892E0,-4.483959543E0,4.894425567E0
1.183875442E1,-1.556036763E0,-1.371365613E0,-4.349520360E0,4.818736496E0
1.184878142E1,-1.749985691E0,-1.300436549E0,-4.204075549E0,4.735803665E0
1.185880842E1,-1.743781210E0,-1.586132967E0,-4.168030388E0,4.788430642E0
1.186883542E1,-1.551042657E0,-1.953905875E0,-3.979324366E0,4.696648156E0
1.187886242E1,-1.093318303E0,-2.415043906E0,-3.503156945E0,4.393164071E0
1.188888942E1,-3.915595271E-1,-2.901027049E0,-2.725597715E0,3.999769957E0
1.189891642E1,3.930571452E-2,-3.043495628E0,-1.550224339E0,3.415787768E0
1.190894342E1,9.034964137E-2,-3.055148836E0,-3.298741794E-1,3.074233960E0
1.191897042E1,1.924541596E-2,-3.303974759E0,4.043554276E-1,3.328681857E0
1.192899742E1,9.133080415E-2,-3.408336157E0,6.789634788E-1,3.476505153E0
1.193902342E1,3.568077337E-1,-3.058667690E0,7.876854372E-1,3.178554412E0
1.194905042E1,3.420037897E-1,-2.201599777E0,5.611210334E-1,2.297578069E0
1.195907742E1,8.962016467E-2,-1.527635375E0,-1.324259859E-1,1.535981203E0
1.196910442E1,-1.291012591E-1,-1.288511737E0,-1.096547062E0,1.696863310E0
1.197913142E1,-2.694424747E-1,-1.086030553E0,-1.989213409E0,2.282330300E0
1.198915842E1,-5.698520958E-2,-8.721139687E-1,-2.288837603E0,2.450021972E0
1.199918542E1,1.296888312E-1,-7.168019807E-1,-1.624355924E0,1.780212470E0
1.200921242E1,2.164064746E-1,-5.314779890E-1,-6.641799635E-1,8.777446319E-1
1.201923942E1,2.955950969E-1,-4.051699448E-1,-2.326548636E-2,5.020761180E-1
1.202926642E1,5.039201347E-1,-4.767805025E-1,1.609492886E-1,7.121515451E-1
1.203929342E1,1.379636792E0,-9.295599389E-1,1.954186249E-1,1.675012775E0
1.204932042E1,1.614426767E0,-4.769281447E-1,3.872511524E-1,1.727367273E0
1.205934742E1,1.399212978E0,-8.693874121E-2,3.561106360E-1,1.446433575E0
1.206937442E1,1.281430613E0,-5.592452466E-2,2.374232680E-1,1.304439257E0
1.207940142E1,1.310740951E0,-1.072449517E-1,2.562741065E-1,1.339858103E0
1.208942842E1,1.279408499E0,-3.363862234E-1,4.691887701E-1,1.403630970E0
1.209945542E1,9.186135127E-1,-5.986481711E-1,1.055846348E0,1.522183277E0
1.210948242E1,3.803389030E-1,-7.847200218E-1,1.774805367E0,1.977467391E0
1.211950942E1,-1.306834426E-2,-9.296856540E-1,2.106198068E0,2.302293747E0
1.212953642E1,-1.360641966E-1,-1.208451368E0,1.788028260E0,2.162386005E0
1.213956342E1,-2.206546229E-1,-1.342054983E0,1.098990029E0,1.748593470E0
1.214959042E1,-4.830008071E-1,-9.186768088E-1,4.711586970E-1,1.139845330E0
1.215961742E1,-6.344533038E-1,-5.324962816E-1,-9.830280483E-2,8.341143363E-1
1.216964442E1,-5.246738034E-1,-6.338577649E-1,-4.768492073E-1,9.510223092E-1
1.217967142E1,1.156314304E-2,-1.106788168E0,-5.965066284E-1,1.257351945E0
1.218969842E1,8.550490891E-1,-1.586997478E0,-2.604612976E-1,1.821403313E0
1.219972442E1,1.335371908E0,-1.789947609E0,3.284954059E-1,2.257219486E0
1.220975142E1,1.460352780E0,-1.633915829E0,7.675312543E-1,2.321942162E0
1.221977842E1,1.438655371E0,-1.315350749E0,8.215852547E-1,2.115391028E0
1.222980542E1,1.336759160E0,-9.979735315E-1,6.261584437E-1,1.781839111E0
1.223983242E1,1.089005397E0,-7.195156735E-1,3.944590151E-1,1.363537118E0
1.224985942E1,7.717106248E-1,-4.771860069E-1,2.796892816E-1,9.494576704E-1
1.225988642E1,3.180552024E-1,-4.835851997E-1,3.066209722E-1,6.550039524E-1
1.226991342E1,-1.638711057E-1,-5.476078257E-1,3.816612142E-1,6.873087752E-1
1.227994042E1,-4.624959739E-1,-6.826934177E-1,2.090829831E-1,8.506988435E-1
1.228996742E1,-6.376178169E-1,-8.158450431E-1,-1.790674710E-1,1.050821000E0
1.229999442E1,-7.499030685E-1,-8.183054052E-1,-5.426157653E-1,1.235479752E0
1.231002142E1,-7.485794051E-1,-7.627013080E-1,-7.342904180E-1,1.296636737E0
1.232004842E1,-6.877945286E-1,-8.021227974E-1,-8.428550863E-1,1.351616437E0
1.233007542E1,-6.274012694E-1,-9.176810279E-1,-9.273748344E-1,1.447686052E0
1.234010242E1,-6.267158295E-1,-9.179937078E-1,-8.749247253E-1,1.414559456E0
1.235012942E1,-5.444631931E-1,-8.531073019E-1,-5.857734793E-1,1.169342895E0
1.236015642E1,-3.777240647E-1,-7.893587641E-1,1.940456986E-2,8.752938163E-1
1.237018342E1,-2.659920327E-1,-8.180194764E-1,5.323655963E-1,1.011593176E0
1.238021042E1,-1.446532448E-1,-9.701858085E-1,5.853799617E-1,1.142302396E0
1.239023742E1,3.882050525E-2,-1.151694346E0,2.700513160E-1,1.183568592E0
1.240026442E1,3.305671475E-1,-1.180670077E0,-7.624944627E-2,1.228442285E0
1.241029142E1,7.212642834E-1,-1.066771871E0,-3.434490752E-1,1.332734654E0
1.242031842E1,9.657390741E-1,-9.595139091E-1,-6.854854631E-1,1.524207736E0
1.243034542E1,8.625697048E-1,-1.004904675E0,-1.070752071E0,1.703047239E0
1.244037242E1,6.665289362E-1,-1.000258331E0,-1.330996436E0,1.793412687E0
1.245039942E1,6.796405133E-1,-1.061449735E0,-1.444976796E0,1.917431800E0
1.246042642E1,9.878194030E-1,-1.391663930E0,-1.606700841E0,2.343929022E0
1.247045242E1,1.604630049E0,-1.630475912E0,-1.845218707E0,2.939068113E0
1.248047942E1,2.220835947E0,-1.443136239E0,-1.996555758E0,3.316773945E0
1.249050642E1,2.585554269E0,-1.053294916E0,-2.253064923E0,3.587592871E0
1.250053342E1,2.779361694E0,-8.160448717E-1,-2.697110665E0,3.957927058E0
1.251056129E1,2.799828703E0,-9.220316488E-1,-3.136586224E0,4.304341561E0
1.252058829E1,2.771094316E0,-1.456094692E0,-3.522752718E0,4.712638557E0
1.253061529E1,2.680260452E0,-2.113672125E0,-3.545525284E0,4.921600907E0
1.254064229E1,2.086289176E0,-2.402349893E0,-3.189804073E0,4.505412030E0
1.255066929E1,1.198564896E0,-2.301469782E0,-2.686496215E0,3.735047908E0
1.256069629E1,4.340781039E-1,-2.029481868E0,-2.185417900E0,3.013846687E0
1.257072329E1,-1.752344384E-1,-1.653738036E0,-1.908579136E0,2.531448384E0
1.258075029E1,-3.892767010E-1,-1.444903121E0,-1.525745555E0,2.137096366E0
1.259077729E1,1.086342502E-1,-1.581406663E0,-4.551689011E-1,1.649189850E0
1.260080429E1,1.080412475E0,-2.023954934E0,8.759433103E-1,2.455801574E0
1.261083129E1,1.479274370E0,-2.815829901E0,1.289943720E0,3.432361504E0
1.262085829E1,2.573781485E0,-4.878786932E0,9.840074569E-1,5.603140525E0
1.263088529E1,2.910403644E0,-5.191097830E0,1.033643886E0,6.040394501E0
1.264091229E1,2.181303361E0,-4.013072156E0,1.183597485E0,4.718446300E0
1.265093929E1,7.631241348E-1,-2.567693657E0,7.236800605E-1,2.774729174E0
1.266096629E1,-2.187969625E-1,-2.094597777E0,2.371735919E-1,2.119307262E0
1.267099329E1,-2.249721046E0,-2.141945460E0,9.323911607E-2,3.107711163E0
1.268102029E1,-7.979463066E0,-3.706260565E0,2.292152975E0,9.091873485E0
1.269104729E1,-5.230977595E0,-3.667411664E0,8.197877621E0,1.039318202E1
1.270107429E1,-3.591154324E0,-1.648860727E0,6.250282354E0,7.394671093E0
1.271110129E1,-7.253895854E-2,2.678980058E-1,1.536090449E0,1.560962879E0
1.272112829E1,2.960858391E0,1.171202777E0,5.519344729E-1,3.231567734E0
1.273115529E1,3.396831467E0,9.880720027E-1,-5.591622162E-1,3.581537754E0
1.274118129E1,2.482038379E0,3.787460849E-1,-1.995309716E0,3.207058462E0
1.275120829E1,1.011656893E0,1.501908503E-2,-2.688329317E0,2.872418799E0
1.276123529E1,8.126100710E-1,-5.959216876E-1,-2.322688304E0,2.531864677E0
1.277126229E1,-1.564194506E-1,-1.157785464E0,-1.501673738E0,1.902618784E0
1.278128929E1,-1.338288499E0,-1.285510654E0,-2.293114257E-1,1.869796106E0
1.279131629E1,-2.038066019E-1,-1.829395849E0,1.782324302E0,2.562207295E0
1.280134329E1,4.116064136E-1,-1.392324081E0,2.536845501E0,2.922938809E0
1.281137029E1,8.386603669E-1,-4.131464971E-1,1.705172045E0,1.944647254E0
1.282139729E1,6.943517424E-2,-3.036436796E-1,1.006374226E0,1.053475112E0
1.283142429E1,7.674512936E-1,1.366712472E-1,1.086320867E0,1.337069012E0
1.284145129E1,2.433055961E0,7.846206191E-1,7.708097881E-1,2.670119577E0
1.285147829E1,4.052497885E0,7.532004596E-1,6.681408674E-1,4.175699014E0
1.286150529E1,2.855501505E0,6.376067072E-1,2.377735162E0,3.770153267E0
1.287153229E1,-1.729019768E0,3.181421432E-1,3.659460036E0,4.059848708E0
1.288155929E1,-2.860169629E0,-1.370346297E0,2.340396012E0,3.941557151E0
1.289158629E1,-1.366153259E0,-1.253051005E0,-5.537699139E-1,1.934728060E0
1.290161329E1,3.553185941E-1,-1.661716562E-1,-1.753059572E0,1.796408134E0
1.291164029E1,5.748666680E-1,-6.743644975E-2,-1.081504515E0,1.226650471E0
1.292166729E1,3.299638976E-1,-1.845771196E-1,-5.911575955E-1,7.017208772E-1
1.293169429E1,6.774715617E-1,8.285093447E-2,7.472332299E-1,1.012022477E0
1.294172129E1,1.264090987E0,2.655602341E-1,1.127795752E0,1.714751154E0
1.295174829E1,1.242768384E0,5.584754607E-1,7.387688005E-1,1.549886266E0
1.296177529E1,-5.089502385E-1,5.960657483E-1,3.302986287E0,3.394708108E0
1.297180229E1,-3.969465943E-2,1.309424742E0,-4.256597579E-2,1.310717622E0
1.298182929E1,-8.612730847E-1,1.452375716E0,3.707836390E-2,1.688952739E0
1.299185529E1,-1.050200277E0,1.439595750E0,-1.821197176E-1,1.791235366E0
1.300188229E1,-6.124466864E-1,9.241058023E-1,-8.677490222E-1,1.407853275E0
1.301190929E1,6.549632898E-1,5.174959442E-1,-9.296681124E-1,1.249424573E0
1.302193629E1,1.607689312E0,1.914466844E-1,-5.568449646E-1,1.712131149E0
1.303196329E1,1.892135012E0,2.297934190E-1,-4.648945749E-2,1.906604623E0
1.304199029E1,1.624816538E0,5.943272615E-1,6.091600031E-1,1.834210889E0
1.305201729E1,8.468558975E-1,1.157160469E0,1.356107889E0,1.973629618E0
1.306204429E1,3.746812833E-1,2.019555635E0,1.733841528E0,2.687972744E0
1.307207129E1,-3.832007861E-1,2.463559131E0,2.182085572E0,3.313225600E0
1.308209829E1,-1.158439036E0,3.034967464E0,2.298011300E0,3.979178865E0
1.309212529E1,-1.894736292E0,3.087760512E0,2.517308199E0,4.411477209E0
1.310215229E1,-2.522369842E0,3.416662299E0,2.729709477E0,5.048489350E0
1.311217929E1,-1.980421975E0,3.797762473E0,2.948946151E0,5.200130229E0
1.312220629E1,-1.453076798E0,3.534190749E0,2.510264643E0,4.572019796E0
1.313223329E1,-1.014530361E0,2.587975309E0,1.512943661E0,3.164788551E0
1.314226029E1,-7.948553661E-1,1.975009792E0,1.220185268E0,2.453835940E0
1.315228729E1,-1.254593939E-1,2.040215748E0,1.520908154E0,2.547819061E0
1.316231429E1,1.666828490E-1,1.581986853E0,2.453365388E0,2.923947212E0
1.317234129E1,4.680813074E-2,1.085494290E0,2.748338706E0,2.955309544E0
1.318236829E1,1.807257414E-2,1.134287477E0,2.692387285E0,2.921623519E0
1.319239529E1,7.695257396E-2,8.682510788E-1,2.620757139E0,2.761910501E0
1.320242229E1,1.195205963E-1,7.344381333E-1,2.731708056E0,2.831238854E0
1.321244929E1,1.501025574E-1,7.554285412E-1,2.498110036E0,2.614145522E0
1.322247629E1,2.518310997E-1,7.576865166E-1,2.914742863E0,3.022124040E0
1.323250329E1,3.217925964E-1,1.044566777E0,2.972491719E0,3.167077082E0
1.324253029E1,2.203971992E-1,1.013693551E0,2.181183347E0,2.415307503E0
1.325255729E1,2.314278254E-1,4.922069192E-1,1.115748734E0,1.241258123E0
1.326258429E1,6.812640658E-1,6.664130882E-1,5.428829831E-1,1.096790347E0
1.327261129E1,8.753929411E-1,1.207857291E0,2.512946177E-1,1.512739575E0
1.328263829E1,6.227271514E-1,9.122954500E-1,5.309698659E-1,1.225561541E0
1.329266429E1,4.683286446E-1,2.257343915E-1,1.344499996E0,1.441515860E0
1.330269129E1,6.337063220E-1,-8.615565285E-2,1.840605839E0,1.948547242E0
1.331271829E1,6.495332730E-1,-2.939054708E-1,2.406861312E0,2.510230124E0
1.332274529E1,5.841043916E-1,-5.100751331E-1,2.178361480E0,2.312274491E0
1.333277229E1,6.326190323E-1,-3.031044567E-1,1.463713614E0,1.623125594E0
1.334279929E1,6.713302311E-1,2.715863563E-1,1.031996140E0,1.260737666E0
1.335282629E1,2.105713919E-1,5.041405016E-1,2.738537604E-1,6.111414227E-1
1.336285329E1,-7.319778442E-2,6.116871697E-1,-2.477167064E-1,6.639899667E-1
1.337288029E1,-2.495281738E-1,9.464019665E-1,-7.622383547E-1,1.240543551E0
1.338290729E1,-7.334478343E-1,8.568933009E-1,-8.987018430E-1,1.442177818E0
1.339293429E1,-2.665365547E-1,9.248516147E-1,-1.327582832E0,1.639776942E0
1.340296129E1,-4.955427557E-1,1.034265006E0,-1.497431583E0,1.886151656E0
1.341298829E1,-8.804743177E-1,8.682684743E-1,-1.352265683E0,1.832415795E0
1.342301529E1,-5.970600674E-1,5.900497309E-1,-1.268437076E0,1.521043071E0
1.343304229E1,-8.354969501E-2,3.042717071E-1,-1.466326734E0,1.499891968E0
1.344306929E1,1.262688679E-1,-1.644223885E-1,-2.155449750E0,2.165396540E0
1.345309629E1,-1.098808765E-2,-4.725969659E-1,-1.574072208E0,1.643524246E0
1.346312329E1,2.101120931E-1,1.656581976E-1,-1.561907076E0,1.584658778E0
1.347315029E1,-1.506956112E-1,4.842981215E-1,-1.307144474E0,1.402098611E0
1.348317729E1,-2.665652061E-1,2.218945250E-1,-1.484762421E0,1.524733956E0
1.349320429E1,-6.162813270E-1,9.696788549E-2,-2.033763930E0,2.127299031E0
1.350323129E1,-1.184187469E0,2.103497970E0,-1.168022842E0,2.681656397E0
1.351325779E1,-1.664129269E0,3.635052880E0,-7.102729797E-1,4.060470831E0
1.352328479E1,7.138000202E-1,2.968712663E0,-1.591596898E0,3.443246438E0
1.353331179E1,1.315524119E-1,3.661059249E0,-1.006649630E0,3.799211015E0
1.354333779E1,3.069870079E-1,5.298442769E-1,-2.226624983E0,2.309293138E0
1.355336479E1,3.189463765E0,-1.205980919E0,-2.973312668E0,4.524119506E0
1.356339179E1,2.179128635E0,-2.851975049E-1,-2.450575097E0,3.291695236E0
1.357341879E1,1.334007753E0,-9.666383028E-1,-2.238278484E0,2.779182769E0
1.358344579E1,2.129682240E0,-1.352509366E0,-1.064546421E0,2.738263521E0
1.359347279E1,2.760537753E0,1.396956830E-1,1.793957337E0,3.295203559E0
1.360349979E1,6.613328957E0,-1.121244824E0,-1.588349939E0,6.893197036E0
1.361352679E1,7.194127625E0,-4.610495043E0,-3.979569950E0,9.425980788E0
1.362355379E1,1.788990712E0,-3.483519071E0,-1.578519600E0,4.222217073E0
1.363358079E1,1.693559475E0,-7.524591789E-1,-3.529199274E0,3.986174359E0
1.364360779E1,1.831952252E0,6.613807552E-1,-2.372684922E0,3.069708015E0
1.365363479E1,1.649241089E0,5.833194029E-1,-2.816849363E-1,1.771892801E0
1.366366179E1,1.360812559E0,-5.831719069E-1,3.762601411E-1,1.527570616E0
1.367368879E1,9.600455672E-1,-1.547755937E0,9.927788651E-1,2.074330206E0
1.368371579E1,-5.612742305E-3,-1.891925097E0,1.985920842E0,2.742862313E0
1.369374279E1,-1.225048690E0,-2.607518458E0,2.949414513E0,4.122977415E0
1.370376979E1,-1.151025863E0,-3.076714829E0,2.361687478E0,4.045812950E0
1.371379679E1,-2.598642969E-1,-2.293663310E0,2.530314161E0,3.425041692E0
1.372382379E1,-6.618320140E-1,-1.076817095E0,3.675650976E0,3.886896804E0
1.373385079E1,-7.280558243E-1,-2.518638441E-1,3.047678141E0,3.143539841E0
1.374387779E1,7.336603805E-1,-5.080537507E-1,2.999546785E0,3.129481920E0
1.375390479E1,1.075997315E0,-1.175193282E0,3.013576595E0,3.408884475E0
1.376393179E1,1.016728476E-1,-1.565806876E0,1.933351450E0,2.489967142E0
1.377395879E1,-1.746389653E0,-1.812365541E0,7.075908619E-1,2.614427376E0
1.378398579E1,-2.987695356E0,-1.812570779E0,-3.156794786E-1,3.508759026E0
1.379401279E1,-3.914216790E0,-1.844435180E0,-2.026200557E-1,4.331753582E0
1.380403979E1,-4.751953223E0,-1.917262251E0,4.926548159E-1,5.147782313E0
1.381406679E1,-5.149746321E0,-1.357445147E0,-3.706240100E-1,5.338530383E0
1.382409279E1,-4.697049038E0,-7.831681708E-1,3.724319690E-1,4.776434614E0
1.383411979E1,-3.453541273E0,-7.705612814E-1,1.434766973E0,3.818280802E0
1.384414679E1,-2.868746033E0,-6.967556790E-1,1.642809736E0,3.378460612E0
1.385417379E1,-2.777092097E0,-4.519871387E-1,1.883574103E0,3.385909670E0
1.386420079E1,-2.485946074E0,3.493161714E-1,1.183084685E-1,2.513154703E0
1.387422779E1,-1.723292128E0,1.326615703E0,-2.168575580E0,3.071215562E0
1.388425479E1,-1.375551635E0,1.537758660E0,-2.230374802E0,3.038324498E0
1.389428179E1,-1.332610414E0,9.789554626E-1,-2.119182980E-1,1.667067389E0
1.390430879E1,-1.028635015E0,1.475965869E-1,2.211546768E0,2.443524883E0
1.391433579E1,-6.773514014E-1,-2.138174736E-1,2.689322759E0,2.781542690E0
1.392436279E1,-1.334472606E0,-2.503929770E-1,2.014278669E0,2.429162888E0
1.393438979E1,-2.312358028E0,-2.720346916E-1,8.409161496E-1,2.475508533E0
1.394441679E1,-2.326039782E0,-6.803440064E-1,1.356261671E-1,2.427287270E0
1.395444379E1,-2.014385673E0,-1.241377916E0,5.690510273E-3,2.366178597E0
1.396447079E1,-1.104747490E0,-1.797130036E0,-7.341085696E-1,2.233620106E0
1.397449779E1,-4.795024545E-1,-1.505314799E0,-1.038264356E0,1.890472988E0
1.398452479E1,-6.392486785E-1,-5.911423928E-1,-5.760577458E-1,1.043997475E0
1.399455179E1,-9.838224656E-1,3.776541173E-2,-1.851982766E-1,1.001813991E0
1.400457879E1,-1.358614005E0,5.227650529E-1,-4.267163497E-1,1.516971377E0
1.401460579E1,-1.534802015E0,7.437740171E-1,-7.931087297E-1,1.880914265E0
1.402463279E1,-1.460239783E0,4.777385688E-1,-8.689272362E-1,1.765097421E0
1.403465979E1,-1.354985808E0,-3.298443586E-1,-7.450001782E-1,1.581078463E0
1.404468679E1,-1.313817609E0,-9.121247113E-1,-8.618503511E-1,1.816830820E0
1.405471379E1,-1.644015140E0,-8.807087910E-1,-6.998199123E-1,1.992029534E0
1.406474079E1,-1.925898297E0,-8.084284347E-1,-1.655492932E-1,2.095243984E0
1.407476779E1,-1.719824291E0,-7.274088299E-1,7.127206242E-1,1.998722063E0
1.408479479E1,-1.269569097E0,-7.523787796E-1,1.729242108E0,2.273358263E0
1.409482179E1,-1.319630911E0,-7.570740938E-1,1.818968802E0,2.371336001E0
1.410484879E1,-1.598118590E0,-7.139421076E-1,8.880359370E-1,1.962728760E0
1.411487479E1,-1.686945397E0,-7.666980261E-1,3.066168791E-1,1.878197153E0
1.412490179E1,-1.428507821E0,-6.814666718E-1,-1.454319477E-1,1.589396700E0
1.413492879E1,-1.041238250E0,-4.928197074E-1,-5.046328372E-1,1.257657607E0
1.414495579E1,-9.631328970E-1,-3.098299241E-1,-6.269150734E-1,1.190227738E0
1.415498279E1,-1.124309058E0,-3.605071574E-1,-9.228414881E-1,1.498556866E0
1.416500979E1,-1.274161500E0,-4.221718937E-1,-9.825205100E-1,1.663449184E0
1.417503679E1,-1.247652563E0,-3.479707271E-1,-4.323764545E-1,1.365529181E0
1.418506379E1,-1.242613433E0,-1.990099847E-1,6.932926655E-2,1.260356959E0
1.419509079E1,-1.096842932E0,-1.740657628E-1,4.035958743E-1,1.181631472E0
1.420511779E1,-1.085215158E0,-3.132891369E-1,5.006356806E-1,1.235507227E0
1.421514479E1,-1.123438700E0,-3.830206919E-1,2.396680140E-1,1.210892282E0
1.422517179E1,-1.029843196E0,-2.047250533E-1,-1.622508788E-1,1.062456918E0
1.423519879E1,-9.856183648E-1,-1.886077881E-1,-3.632734752E-1,1.067231969E0
1.424522579E1,-1.011293196E0,-1.664942032E-1,-5.719097310E-1,1.173675845E0
1.425525279E1,-1.258005936E0,6.660738766E-2,-6.493689662E-1,1.417284563E0
1.426527979E1,-1.388664016E0,7.614712000E-2,-5.695135421E-1,1.502841245E0
1.427530679E1,-8.578464702E-1,-6.886265874E-2,-4.361075628E-1,9.647965788E-1
1.428533379E1,-3.661701858E-1,-2.299850249E-1,-3.668981642E-1,5.670872768E-1
1.429536079E1,-2.149427703E-1,-1.112245667E-1,-4.950983673E-1,5.510841062E-1
1.430538779E1,-4.247686422E-1,-1.079279065E-2,-4.500952721E-2,4.272829756E-1
1.431541479E1,-8.513101602E-1,-3.060479450E-1,6.745862532E-1,1.128477269E0
1.432544179E1,-1.202204787E0,-6.253158599E-1,1.104854202E0,1.748433322E0
1.433546879E1,-1.447681426E0,-7.497142035E-1,9.912685293E-1,1.908000575E0
1.434549579E1,-1.595404020E0,-7.607204175E-1,5.039153838E-1,1.837917369E0
1.435552279E1,-1.576955177E0,-8.486602020E-1,1.708217275E-1,1.798941865E0
1.436554979E1,-1.401395743E0,-8.232575583E-1,3.379924536E-2,1.625670762E0
1.437557679E1,-1.097853330E0,-6.637209570E-1,-4.593455672E-2,1.283712362E0
1.438560379E1,-9.228525978E-1,-5.678038162E-1,-1.927031779E-1,1.100541960E0
1.439562979E1,-6.914101544E-1,-4.875613064E-1,-1.439678049E-1,8.581903972E-1
1.440565679E1,-4.564052948E-1,-4.346831810E-1,2.921093524E-2,6.309584295E-1
1.441568379E1,-3.568366044E-1,-4.106920552E-1,5.420953631E-2,5.467531438E-1
1.442571079E1,-3.509516376E-1,-3.925563312E-1,8.405781806E-2,5.332290707E-1
1.443573779E1,-4.164962938E-1,-3.795451069E-1,8.892971814E-2,5.704666035E-1
1.444576479E1,-3.078611666E-1,-3.213278890E-1,-8.009632945E-2,4.521565350E-1
1.445579179E1,-5.755070843E-2,-2.631942862E-1,-2.353597856E-1,3.577394932E-1
1.446581879E1,3.485305249E-1,-1.675981575E-1,-2.483248168E-1,4.595953479E-1
1.447584579E1,8.070261993E-1,-1.596114457E-2,-1.550009161E-1,8.219314622E-1
1.448587279E1,7.645382839E-1,8.646453202E-2,-1.574286801E-1,7.853525909E-1
1.449589979E1,5.183526709E-1,-1.521036208E-2,8.228786588E-3,5.186410700E-1
1.450592667E1,3.611271816E-1,-1.902257127E-1,3.067665678E-1,5.105921956E-1
1.451595367E1,1.622057822E-1,-2.627276784E-1,4.919946653E-1,5.808573830E-1
1.452598067E1,-4.813142873E-2,-2.983395606E-1,5.680160701E-1,6.434014173E-1
1.453600767E1,-1.705305362E-1,-3.251753569E-1,5.373363143E-1,6.508071843E-1
1.454603467E1,-3.310237420E-1,-3.592763186E-1,4.627825606E-1,6.729219042E-1
1.455606167E1,-2.575698495E-4,-3.653053826E-1,5.582500505E-1,6.671515629E-1
1.456608867E1,2.570441848E-1,-3.206694925E-1,6.177244198E-1,7.419461538E-1
1.457611567E1,2.756202042E-2,-3.134546131E-1,4.367554343E-1,5.383017451E-1
1.458614267E1,-5.582500505E-1,-3.311500418E-1,-1.435479748E-1,6.647627323E-1
1.459616967E1,-7.208979553E-1,-3.184463811E-1,-2.011721681E0,2.160584662E0
1.460619667E1,1.791946480E-1,-2.810768259E-1,-2.102326627E0,2.128589239E0
1.461622367E1,9.213051322E-1,-2.819129777E-1,1.546763957E-1,9.758088240E-1
1.462625067E1,1.126700569E0,-1.584782553E-1,1.306817615E0,1.732726697E0
1.463627767E1,6.515963899E-1,1.859765410E-2,1.771692309E0,1.887807556E0
1.464630467E1,-6.845159948E-2,5.018314362E-2,1.496474394E0,1.498879441E0
1.465633167E1,-3.075036094E-1,-7.625587821E-2,1.614861215E0,1.645645822E0
1.466635867E1,-3.463937330E-1,-1.268559283E-1,9.457520485E-1,1.015149241E0
1.467638467E1,-6.834369642E-1,-9.877584457E-2,1.514440548E-1,7.069498237E-1