"Time (s)","Linear Acceleration x (m/s^2)","Linear Acceleration y (m/s^2)","Linear Acceleration z (m/s^2)","Absolute acceleration (m/s^2)"
3.464833368E-3,3.966742328E-1,-1.039271246E0,-1.343199576E0,1.744024160E0
1.348983333E-2,7.586607358E-1,-1.230444208E0,-2.441805443E0,2.837599845E0
2.351583331E-2,3.107258637E-1,-1.054845305E0,-3.271459855E0,3.451332896E0
3.354183328E-2,5.170330274E-1,-9.364777797E-1,-3.849255393E0,3.995132146E0
4.356683337E-2,1.076419046E0,-1.569878585E0,-4.329619946E0,4.729567170E0
5.359283334E-2,2.031537749E0,-2.696253464E0,-5.083728917E0,6.102559141E0
6.361883332E-2,3.230349251E0,-4.076889253E0,-6.362367046E0,8.218022675E0
7.364483329E-2,3.797824454E0,-4.553972349E0,-8.324774480E0,1.022076342E1
8.366983337E-2,3.324114617E0,-3.642752786E0,-1.036244844E1,1.147605000E1
9.369583335E-2,2.257445657E0,-3.001171727E0,-1.209400897E1,1.266365451E1
1.037218333E-1,1.037634026E0,-3.642294949E0,-1.334021903E1,1.386738766E1
1.137468333E-1,2.084535304E-1,-5.205438126E0,-1.413973221E1,1.506891058E1
1.237728334E-1,-1.189792318E0,-6.819352677E0,-1.392041251E1,1.554660931E1
1.337988334E-1,-3.091184641E0,-8.423198907E0,-1.290274673E1,1.571580655E1
1.438248333E-1,-3.757692966E0,-9.548910127E0,-1.449695499E1,1.776129626E1
1.538498333E-1,-5.183165497E0,-1.080302328E1,-1.210558763E1,1.703278510E1
1.638758334E-1,-6.083895155E0,-1.216058420E1,-7.309600779E0,1.543774115E1
1.739018334E-1,-6.189578315E0,-1.335659825E1,-4.144247423E0,1.529327902E1
1.839278333E-1,-5.507302973E0,-1.473266561E1,-3.695640852E0,1.615671945E1
1.939528333E-1,-4.705862546E0,-1.564900382E1,-3.532728068E0,1.671875087E1
2.039788333E-1,-3.964483548E0,-1.594606109E1,-1.974782481E0,1.654973595E1
2.140048334E-1,-3.233566389E0,-1.628532005E1,3.061660588E-1,1.660606330E1
2.240298333E-1,-1.801289746E0,-1.712869554E1,1.600689611E0,1.729737156E1
2.340558333E-1,6.127215421E-1,-1.776501761E1,2.375966964E0,1.793366938E1
2.440818333E-1,3.071162313E0,-1.698965109E1,4.160245990E0,1.775916464E1
2.541078334E-1,5.211505197E0,-1.566218111E1,6.907015888E0,1.789331082E1
2.641328333E-1,7.973301271E0,-1.520018441E1,9.165434521E0,1.945827149E1
2.741588333E-1,1.165112449E1,-1.523661608E1,1.150019265E1,2.236420359E1
2.841848333E-1,1.506007460E1,-1.492614530E1,1.423828469E1,2.554064235E1
2.942098334E-1,1.740365968E1,-1.434907423E1,1.522725234E1,2.721493185E1
3.042358333E-1,1.703060733E1,-1.246309926E1,1.262482973E1,2.459180259E1
3.142618333E-1,1.711301564E1,-1.078449228E1,8.751607774E0,2.203976445E1
3.242878333E-1,1.951895193E1,-9.045322187E0,5.742996050E0,2.226632752E1
3.343128334E-1,2.145804183E1,-6.806996341E0,4.594759017E0,2.297595632E1
3.443388334E-1,2.248535553E1,-5.482828867E0,4.263401983E0,2.353357648E1
3.543648333E-1,2.368232735E1,-4.104914373E0,5.419346232E0,2.463883650E1
3.643908333E-1,2.506176036E1,-2.386613574E0,6.592767808E0,2.602407240E1
3.744158334E-1,2.605479066E1,-1.172219973E0,5.932035363E0,2.674724770E1
3.844418334E-1,2.551981253E1,-1.155743104E-1,4.084088052E0,2.584480536E1
3.944678333E-1,2.415486891E1,6.870647961E-1,1.694050349E0,2.422394594E1
4.044928333E-1,2.220997272E1,1.509982046E0,-3.715928936E-1,2.226434403E1
4.145188333E-1,2.034201185E1,1.628933124E0,-8.205912280E-1,2.042361964E1
4.245448334E-1,1.848843045E1,1.326784687E0,-1.228121109E0,1.857661702E1
4.345708333E-1,1.673108721E1,1.539461369E0,-5.741256503E0,1.775559762E1
4.445958333E-1,1.371051384E1,1.031413173E0,-1.248335752E1,1.857084322E1
4.546218333E-1,1.117626392E1,4.630070937E-1,-1.270679600E1,1.692884861E1
4.646478334E-1,8.963747681E0,1.313477594E-1,-4.013515375E0,9.822134717E0
4.746728333E-1,7.796776754E0,1.247090646E0,-7.154139687E0,1.065488984E1
4.846990834E-1,6.859123099E0,1.187473020E0,-1.104832918E1,1.305845471E1
4.947250834E-1,5.989195404E0,4.231594884E-1,-2.570675737E0,6.531301500E0
5.047510833E-1,2.818767542E0,9.223854053E-1,-2.509596307E0,3.885140784E0
5.147760833E-1,6.489032355E-1,1.653931725E0,-1.356958191E1,1.368539801E1
5.248020834E-1,2.531528628E-1,-3.860705996E-1,-3.412463706E0,3.443551281E0
5.348280834E-1,-2.717316596E0,2.081129301E-1,-3.385058391E0,4.345772749E0
5.448540833E-1,-8.558552009E-1,-4.888178730E-1,4.574891347E0,4.679857036E0
5.548790833E-1,-3.313044083E0,2.011746824E0,-1.132713261E0,4.038121557E0
5.649050833E-1,-2.310880437E0,4.078525304E0,-3.427857671E0,5.807301030E0
5.749310834E-1,-2.491743295E0,4.852120705E0,2.972531480E-1,5.462620198E0
5.849560833E-1,-2.377423505E0,4.230807849E0,7.324280798E-1,4.907986193E0
5.949820833E-1,-2.087583165E0,3.572562810E0,-6.191967487E-1,4.183851469E0
6.050080833E-1,-1.288458820E0,4.658069159E0,-3.525229599E0,5.982054676E0
6.150340834E-1,1.136764212E0,4.941905286E0,-3.210796747E0,6.001989377E0
6.250590833E-1,2.708443739E0,4.450906987E0,-1.429530206E0,5.402758286E0
6.350850833E-1,2.818477228E0,3.740926368E0,-1.646094702E0,4.964672370E0
6.451110833E-1,1.947704610E-1,2.722033253E0,-1.676015197E0,3.202565768E0
6.551370834E-1,-1.539717477E0,9.525289714E-1,-1.078130087E0,2.107227049E0
6.651620833E-1,1.002766494E0,7.081510252E-1,-2.047455186E-1,1.244563877E0
6.751880833E-1,3.615535752E0,1.854567236E0,-5.697649723E-1,4.103187849E0
6.852140833E-1,2.642761381E0,2.989893032E0,-1.395419304E0,4.227391997E0
6.952390834E-1,3.256388656E0,2.975156295E0,2.569763571E-2,4.410927615E0
7.052650834E-1,2.934404125E0,1.946301278E0,5.598135960E-1,3.565418278E0
7.152910833E-1,3.168483371E0,2.064641907E0,1.178135309E0,3.961064993E0
7.253170833E-1,4.411578614E0,3.129881222E0,3.730895177E0,6.570978706E0
7.353420834E-1,1.913680247E0,5.334128326E-1,4.202921308E0,4.648790043E0
7.453680834E-1,-4.014342172E0,-1.414014620E0,1.141724989E0,4.406576490E0
7.553940833E-1,-4.803757800E0,-5.355610996E-1,2.615288238E0,5.495693519E0
7.654200833E-1,-4.749058852E0,-3.341613579E-1,3.279387217E0,5.780969150E0
7.754450833E-1,-6.391966821E0,6.650301486E-1,1.882585924E0,6.696539009E0
7.854710834E-1,-6.600871464E0,1.666340686E0,4.950872576E-1,6.825929003E0
7.954970833E-1,-5.817312992E0,2.259378161E0,5.270446301E-2,6.240889190E0
8.055220833E-1,-4.020447834E0,2.765423101E0,-3.689147957E-1,4.893635034E0
8.155480833E-1,-2.425335006E0,2.884270098E0,-1.308446649E0,3.989147343E0
8.255740834E-1,-1.529660266E0,2.071941571E0,-2.437135856E0,3.545762765E0
8.356000833E-1,-1.188234912E0,9.435868245E-1,-3.028054301E0,3.386941267E0
8.456250833E-1,-2.096244353E-1,-5.396909881E-1,-4.875045884E-1,7.568814241E-1
8.556510833E-1,-2.691847587E-1,-1.178400480E0,-1.406457678E0,1.854511075E0
8.656770834E-1,1.023860909E0,5.623448557E-1,-3.071210260E0,3.285856869E0
8.757020833E-1,3.521823596E0,3.369350431E0,-2.886578287E0,5.664635732E0
8.857280833E-1,4.450088961E0,4.726226059E0,-6.856866074E-1,6.527684938E0
8.957540833E-1,4.820456278E0,4.927495993E0,5.590920496E-1,6.915894693E0
9.057800834E-1,3.352847834E0,4.550340058E0,1.232721698E0,5.785048490E0
9.158050834E-1,2.998077965E-1,2.947088490E0,1.484922634E0,3.313640070E0
9.258310833E-1,-2.342738407E0,1.034867123E0,1.570222986E0,3.004159355E0
9.358570833E-1,-4.232072602E0,-1.551582062E-1,1.149094820E0,4.388044152E0
9.458830833E-1,-4.898597884E0,-5.861400998E-1,2.243885379E0,5.419856367E0
9.559080834E-1,-5.265639889E0,-1.880907773E0,2.762524052E0,6.236691160E0
9.659340833E-1,-5.453448948E0,-3.100108370E0,1.397002730E0,6.426693859E0
9.759600833E-1,-4.820925810E0,-3.249231080E0,-5.305997372E-2,5.813918097E0
9.859850833E-1,-2.453153134E0,-1.955425858E0,-4.078079161E0,5.145131702E0
9.960110834E-1,3.938792052E0,-1.733650324E0,-5.419440957E0,6.920257695E0
1.006037083E0,2.043962644E0,1.692618658E0,-3.074461897E0,4.061410736E0
1.016063083E0,-4.071575888E0,3.024246009E0,-4.437668306E-1,5.091239842E0
1.026088083E0,-3.825657785E0,3.532714035E0,5.694404519E-1,5.238319231E0
1.036114083E0,-2.264684217E0,3.229068126E0,3.293874571E0,5.138607327E0
1.046140083E0,-1.465185650E0,1.745474564E0,1.379755052E-1,2.283087314E0
1.056165083E0,-4.967320794E-1,9.535422939E-1,-1.259512939E1,1.264093628E1
1.066191083E0,-8.599935678E-1,1.895904127E0,-1.312860128E1,1.329263754E1
1.076217083E0,-1.595718454E0,4.602103704E0,-5.522372417E0,7.363577460E0
1.086243083E0,-1.440953327E0,5.485499876E0,-1.051186702E0,5.768192859E0
1.096268083E0,3.823133250E-1,4.764914746E0,6.928950548E-3,4.780232633E0
1.106294083E0,3.268826269E0,-6.786857361E-1,-9.078271540E-1,3.459767282E0
1.116320083E0,3.040906773E0,-9.165626310E0,-3.749822906E0,1.035939146E1
1.126346083E0,1.460639440E0,-1.406910486E1,-5.797066423E0,1.528656791E1
1.136371083E0,1.634347499E0,-1.593079752E1,-4.880285866E0,1.674152297E1
1.146397083E0,1.416913377E0,-1.842801468E1,-4.468505352E0,1.901491280E1
1.156423083E0,9.251498227E-1,-1.877559189E1,-5.284548615E0,1.952703785E1
1.166448083E0,8.520264441E-1,-1.427839309E1,-4.394440133E0,1.496360793E1
1.176474083E0,9.972731812E-1,-5.873357384E0,-2.290594107E0,6.382609351E0
1.186500083E0,1.492689491E0,-2.811499161E-1,3.873683891E-1,1.567552698E0
1.196526083E0,2.188853578E0,1.199059278E0,3.256847371E0,4.103154632E0
1.206551083E0,1.974582068E0,9.632013094E-1,4.056337459E0,4.613090579E0
1.216577083E0,6.628918219E-1,-1.257361865E-1,2.589385073E0,2.675845700E0
1.226603083E0,1.578556730E-1,-6.182050610E-1,5.170637253E-1,8.212495400E-1
1.236629083E0,-2.618997127E-1,-2.516811186E-1,-1.183957966E0,1.238422913E0
1.246654083E0,-3.170874882E-1,-8.044599295E-3,-1.127236174E0,1.171012631E0
1.256680083E0,-7.860012929E-1,9.860042810E-2,6.166830307E-1,1.003901408E0
1.266706083E0,-1.314113917E0,6.132559776E-3,2.066408935E-1,1.330275706E0
1.276731083E0,-7.103168339E-1,1.619322056E-1,7.458562106E-2,7.323490005E-1
1.286757083E0,1.586659509E-1,8.792984426E-2,2.835431814E-1,3.366055217E-1
1.296783083E0,6.277637967E-1,6.509693491E-1,7.989261246E-1,1.206702710E0
1.306809083E0,5.586554088E-1,8.709217215E-1,1.450499491E0,1.781726490E0
1.316834083E0,3.549047939E-1,1.542262185E0,1.579518304E0,2.235935629E0
1.326860083E0,-1.289103475E-1,2.169353845E0,1.522469945E0,2.653418307E0
1.336886083E0,-1.932607099E-1,2.580476840E0,1.592626008E0,3.038530570E0
1.346912083E0,-3.011352606E-1,3.031881888E0,1.972856993E0,3.629759626E0
1.356937083E0,-4.664113426E-1,3.392390215E0,2.163180939E0,4.050333651E0
1.366963083E0,-5.937327093E-1,3.553743546E0,2.077256105E0,4.158918687E0
1.376989083E0,-5.644090690E-1,3.956663482E0,1.815577417E0,4.389768202E0
1.387014083E0,-5.225789653E-1,4.290126683E0,1.715388885E0,4.649820938E0
1.397040083E0,-4.982903624E-1,4.480269949E0,1.516973562E0,4.756292768E0
1.407066083E0,-6.717917226E-1,4.680083342E0,1.074408919E0,4.848591417E0
1.417092083E0,-1.217002482E0,4.712851138E0,8.261478370E-1,4.937061995E0
1.427117083E0,-1.800607376E0,4.715073080E0,3.894654930E-1,5.062191664E0
1.437143083E0,-2.400754188E0,4.729308127E0,-6.472563672E-1,5.343118643E0
1.447169083E0,-3.084207744E0,4.771810368E0,-1.585247991E0,5.898772990E0
1.457195083E0,-3.962727922E0,4.231304278E0,-4.888682760E0,7.583295300E0
1.467220083E0,-5.529960934E0,1.651772933E0,-1.210424862E1,1.340975974E1
1.477246083E0,-6.701638286E0,-4.946167907E0,-2.461485299E1,2.598591004E1
1.487271708E0,3.985699293E0,-1.489439375E1,-2.096412285E1,2.602351265E1
1.497296708E0,1.653205384E1,-1.865744539E1,6.628497804E0,2.579430278E1
1.507322708E0,1.620305440E1,-5.596767712E0,2.008405842E1,2.640515449E1
1.517348708E0,1.843552836E0,4.439965092E0,1.269194525E1,1.357193616E1
1.527374708E0,-1.011096321E1,5.944847197E0,-1.019283709E-1,1.172958544E1
1.537399708E0,-1.139539768E1,6.859289744E0,-6.610346292E0,1.485266381E1
1.547425708E0,-6.911649806E0,5.786973544E0,3.500156153E0,9.670111630E0
1.557451708E0,-4.789278632E0,2.607722526E0,7.205631437E0,9.036510997E0
1.567476708E0,-3.611904046E0,-7.649403530E-1,3.802845458E0,5.300246990E0
1.577502708E0,-2.421916723E0,-3.601629903E0,3.118205502E0,5.344214080E0
1.587528708E0,-3.520533992E-1,-4.876074994E0,3.469236077E0,5.994634926E0
1.597554708E0,1.044924042E0,-4.450008854E0,5.351306276E0,7.037820964E0
1.607579708E0,1.880133309E0,-3.684424138E0,4.162548623E0,5.868278583E0
1.617605708E0,2.281012128E0,-3.277342154E0,1.871297289E0,4.409732585E0
1.627631708E0,2.037579677E0,-3.051870010E0,1.900361167E0,4.132434399E0
1.637657708E0,1.173278173E0,-2.566653437E0,2.085198670E0,3.508895130E0
1.647682708E0,-6.211380243E-2,-1.857935232E0,1.336164937E0,2.289348857E0
1.657708708E0,-1.428571848E0,-2.016242748E-1,9.342169538E-1,1.718787709E0
1.667734708E0,-1.124384194E0,1.027734105E0,7.899681902E-1,1.715962397E0
1.677759708E0,2.634275901E-1,7.437927282E-1,5.483657710E-1,9.608989211E-1
1.687785708E0,1.472310044E0,1.027806026E-1,3.958072369E-1,1.528045839E0
1.697811708E0,1.632586610E0,-3.102737278E-1,7.307474439E-1,1.815378928E0
1.707837708E0,1.415858978E0,-1.215630287E-1,9.423524773E-1,1.705128267E0
1.717862708E0,1.231165900E0,3.303080428E-1,1.002906243E0,1.621941370E0
1.727888708E0,1.135314979E0,4.353655511E-1,1.080681227E0,1.626762177E0
1.737914708E0,1.066917613E0,3.748281580E-1,1.148666877E0,1.611907235E0
1.747940708E0,1.087263438E0,5.576167971E-1,8.880423689E-1,1.510528889E0
1.757965708E0,1.006667756E0,1.007635471E0,1.403670895E-1,1.431227492E0
1.767991708E0,1.001067439E0,1.345953614E0,-6.303298473E-1,1.791938299E0
1.778017708E0,1.150633807E0,1.314077518E0,-9.690742528E-1,1.997464090E0
1.788042708E0,7.097313814E-1,1.342796702E0,-3.988058352E-1,1.570308158E0
1.798068708E0,5.579964276E-1,1.340895188E0,3.854310969E-2,1.452874905E0
1.808094708E0,4.943338439E-1,1.132052525E0,-1.590126908E-1,1.245469351E0
1.818120708E0,3.433281840E-1,6.352438474E-1,-8.225178856E-1,1.094506583E0
1.828145708E0,2.370499232E-1,2.711155093E-1,-1.156128436E0,1.210920825E0
1.838171708E0,3.539609072E-1,4.561851472E-1,-9.395879138E-1,1.102823041E0
1.848197708E0,6.008430697E-1,6.376318502E-1,-6.700382157E-1,1.102967806E0
1.858223708E0,7.887949464E-1,7.258078623E-1,-5.467778865E-1,1.203312336E0
1.868248708E0,1.066468108E0,6.502378625E-1,-9.340016301E-1,1.559654625E0
1.878274708E0,1.299452170E0,8.052504730E-1,-1.239573027E0,1.968132505E0
1.888300708E0,1.770751639E0,9.877134222E-1,-1.325759670E0,2.422556062E0
1.898325708E0,2.166658278E0,9.865597665E-1,-1.242359225E0,2.685361188E0
1.908351708E0,2.333233758E0,8.734763700E-1,-9.914167562E-1,2.681389177E0
1.918377708E0,1.996106107E0,7.583967340E-1,-9.829591973E-1,2.350704997E0
1.928403708E0,1.844710730E0,8.085155582E-1,-1.195899296E0,2.342398389E0
1.938428708E0,1.968268829E0,1.015041554E0,-1.295939309E0,2.565901446E0
1.948454708E0,2.021722759E0,9.708336800E-1,-1.559252294E0,2.731510326E0
1.958480708E0,1.574605328E0,6.309800577E-1,-2.133550758E0,2.725721301E0
1.968506708E0,1.263655954E0,1.023946863E-1,-3.032646119E0,3.286982435E0
1.978531708E0,1.214818255E0,-3.257021910E-1,-3.925273290E0,4.121848579E0
1.988557708E0,1.423883404E0,-7.225913090E-1,-4.329724319E0,4.614769206E0
1.998583708E0,1.939692463E0,-7.104536587E-1,-4.180149619E0,4.662703303E0
2.008608708E0,2.275895669E0,-6.036770689E-1,-4.686930723E0,5.245135528E0
2.018634708E0,2.895878868E0,-2.064552444E-1,-5.163611823E0,5.923818468E0
2.028660708E0,3.824556170E0,-1.750907797E-1,-4.909833308E0,6.226102295E0
2.038686708E0,4.917610105E0,-9.623031771E-1,-4.134891878E0,6.496633543E0
2.048711708E0,5.449740059E0,-1.485968701E0,-2.688996777E0,6.256074916E0
2.058737708E0,6.044293132E0,-2.029051659E0,-1.003698540E0,6.454296311E0
2.068763708E0,6.706023697E0,-2.739781891E0,-5.779382104E-1,7.267129503E0
2.078789708E0,6.367981542E0,-3.447497299E0,-2.197836071E0,7.567490333E0
2.088814708E0,4.130738893E0,-4.519761459E0,-4.735368766E0,7.740475747E0
2.098840708E0,1.101881770E0,-5.204296750E0,-6.169148144E0,8.145995146E0
2.108866708E0,-1.156213951E0,-4.934160649E0,-5.342409738E0,7.363702453E0
2.118891708E0,-2.571076271E0,-4.122344338E0,-4.230105014E0,6.441889820E0
2.128917708E0,-2.842076005E0,-4.111291346E0,-3.187600842E0,5.927977031E0
2.138943708E0,-1.897626863E0,-4.948430779E0,-2.064610916E0,5.687756422E0
2.148969708E0,-9.218473153E-1,-5.326786562E0,-3.354302037E-1,5.416361415E0
2.158994708E0,-3.192185059E-2,-5.561418369E0,9.803722429E-1,5.647258009E0
2.169020708E0,6.008303520E-1,-5.508028613E0,2.121166209E0,5.932851119E0
2.179046708E0,1.122987733E0,-4.919884672E0,3.000225062E0,5.870921313E0
2.189072708E0,1.152653143E0,-4.021202125E0,3.331738801E0,5.347818175E0
2.199097708E0,9.983714345E-1,-3.140870479E0,3.179356853E0,4.579314674E0
2.209123708E0,5.666644862E-1,-2.264862850E0,1.942534064E0,3.037128736E0
2.219149708E0,1.160710314E-1,-9.599701381E-1,1.625044433E0,1.890974500E0
2.229174708E0,4.715276563E-1,5.171037787E-1,1.759264637E0,1.893342735E0
2.239200708E0,2.211624536E-1,1.248801541E0,1.930269675E0,2.309623159E0
2.249226708E0,3.095583209E-1,8.308449054E-1,8.748250303E-1,1.245571533E0
2.259252708E0,-1.026151848E0,3.120027494E-1,8.647964707E-1,1.377754066E0
2.269277708E0,-9.003729773E-1,5.019776165E-2,2.663142436E0,2.811675469E0
2.279303708E0,-6.268747276E-1,7.814043581E-2,1.628903303E0,1.747112997E0
2.289329708E0,-8.068441316E-1,1.054948801E-1,1.960031126E0,2.122227282E0
2.299355708E0,-1.732939011E0,-7.945781350E-2,3.288434614E0,3.717955536E0
2.309380708E0,-2.787770575E0,-1.232786018E-1,3.548674887E0,4.514416446E0
2.319406708E0,-1.776344939E0,2.022528505E-1,2.836738082E0,3.353116536E0
2.329432708E0,-5.056604853E-1,4.955714071E-1,2.183643855E0,2.295557455E0
2.339457708E0,-8.747016540E-1,5.236210853E-1,2.837724800E0,3.015288388E0
2.349483708E0,-1.241825228E0,4.381172508E-1,3.078529805E0,3.348346216E0
2.359509708E0,-1.394969946E0,4.969150972E-1,2.619556121E0,3.009142741E0
2.369535708E0,-1.502577717E0,9.630182916E-1,3.016178898E0,3.504636810E0
2.379560708E0,-2.114467493E0,1.378082310E0,3.669499997E0,4.453685425E0
2.389586708E0,-2.405142231E0,1.490937665E0,3.891182853E0,4.811331237E0
2.399612708E0,-2.094660927E0,1.673930957E0,3.109565656E0,4.105977084E0
2.409637708E0,-1.949440064E0,2.047850457E0,2.596409333E0,3.838665065E0
2.419663708E0,-1.960267353E0,2.295249075E0,3.015702642E0,4.266764446E0
2.429689708E0,-1.513334840E0,2.556381633E0,2.961239337E0,4.194545005E0
2.439715708E0,-1.604287402E0,2.664476185E0,2.607020275E0,4.058291035E0
2.449740708E0,-1.812665211E0,2.971019974E0,2.368214725E0,4.209650323E0
2.459766708E0,-2.031407795E0,3.171760735E0,2.125573987E0,4.324898676E0
2.469792708E0,-2.057500117E0,3.292280036E0,1.762846057E0,4.263805904E0
2.479819417E0,-1.933822736E0,3.429141135E0,1.588804852E0,4.245348060E0
2.489844417E0,-1.863789172E0,3.848245579E0,1.527914287E0,4.540619581E0
2.499870417E0,-1.627748186E0,4.464328685E0,1.697264856E0,5.045840144E0
2.509896417E0,-1.392730170E0,5.027292176E0,1.675252427E0,5.479035923E0
2.519922417E0,-1.407057602E0,5.519575694E0,1.383862867E0,5.861791823E0
2.529947417E0,-1.809004562E0,5.836635116E0,1.114186943E0,6.211297733E0
2.539973417E0,-2.354876057E0,5.845792440E0,6.744237006E-1,6.338262997E0
2.549999417E0,-2.766496650E0,5.506404256E0,-4.878136137E-1,6.181581810E0
2.560024417E0,-3.192802233E0,4.235306112E0,-4.158177245E0,6.739602508E0
2.570050417E0,-4.286002934E0,-1.016421497E-1,-1.603754896E1,1.660069664E1
2.580076417E0,-2.531435950E0,-1.227409971E1,-3.738210570E1,3.942693899E1
2.590102417E0,1.416447295E1,-3.058137991E1,-2.469081300E1,4.177905382E1
2.600127417E0,2.434404037E1,-3.154519284E1,2.280985027E1,4.591318723E1
2.610153417E0,9.530127116E0,-6.469179888E0,2.950032329E1,3.166927037E1
2.620179417E0,-7.305846866E0,3.611856099E0,1.028775728E1,1.312474201E1
2.630205417E0,-1.559289160E1,7.748548919E0,-6.415062153E0,1.855616613E1
2.640230417E0,-1.338672544E1,1.252336768E1,-7.121326282E0,1.966602258E1
2.650256417E0,-4.354002543E0,1.216719974E1,8.312662557E0,1.536549532E1
2.660282417E0,-1.759271946E0,7.980822544E0,9.015783223E0,1.216852141E1
2.670307417E0,-3.638926076E0,2.983357599E0,4.963649912E0,6.839592532E0
2.680333417E0,-2.986523574E0,-2.154190260E-1,2.314049920E0,3.784250976E0
2.690359417E0,-2.414733711E0,-3.468213984E0,1.835465552E0,4.607426714E0
2.700385417E0,-2.604448962E0,-6.551207553E0,4.293455795E0,8.254407154E0
2.710410417E0,-1.760982842E0,-8.560103860E0,5.134857556E0,1.013623208E1
2.720436417E0,-1.662918895E-1,-8.891422302E0,4.620133009E0,1.002151049E1
2.730462417E0,2.097204466E0,-8.260149883E0,3.744432066E0,9.308550594E0
2.740488417E0,3.680006274E0,-6.713588240E0,1.667330474E0,7.835477276E0
2.750513417E0,2.015612711E0,-4.142781526E0,1.045970109E0,4.724339831E0
2.760539417E0,-5.022524357E-2,-1.372463136E0,2.165773594E0,2.564518063E0
2.770565417E0,-5.863827592E-1,1.040582777E0,1.650697192E0,2.037512816E0
2.780590417E0,1.190995967E-1,2.359405310E0,-8.084405677E-1,2.496908946E0
2.790616417E0,1.054446233E0,2.223448191E0,-9.334587161E-1,2.631904992E0
2.800642417E0,1.266645197E0,1.511161430E0,6.145305245E-1,2.065344206E0
2.810668417E0,1.679392841E0,1.206026820E0,1.622494755E0,2.628183828E0
2.820693417E0,2.025168231E0,1.154231014E0,1.516671846E0,2.780979879E0
2.830719417E0,1.918457422E0,1.271379980E0,7.832986367E-1,2.431140203E0
2.840745417E0,1.797412165E0,1.301427067E0,1.274938595E-1,2.222759003E0
2.850771417E0,1.967391601E0,1.431681982E0,-5.489958085E-2,2.433794768E0
2.860796417E0,1.988592435E0,1.615439504E0,-1.025122519E-1,2.564108700E0
2.870822417E0,1.409391519E0,1.933046810E0,-3.613976884E-1,2.419434378E0
2.880848417E0,3.237538987E-1,2.099647433E0,-7.755185509E-1,2.261584611E0
2.890873417E0,-4.104318541E-1,1.793087856E0,-1.130774909E0,2.159229089E0
2.900899417E0,-8.060613357E-1,1.311219984E0,-8.356051236E-1,1.751361940E0
2.910925417E0,-7.650388786E-1,6.539572763E-1,-5.650416646E-1,1.154216915E0
2.920951417E0,-4.961574443E-1,3.117209136E-1,-1.017268174E0,1.173957697E0
2.930976417E0,-3.591707763E-1,2.442738658E-1,-1.694560518E0,1.749345226E0
2.941002417E0,9.121481001E-2,1.028735733E-1,-1.951522257E0,1.956359434E0
2.951028417E0,1.142740943E0,3.157262564E-2,-1.920335548E0,2.234847268E0
2.961053417E0,2.096160153E0,3.615204799E-1,-2.097041329E0,2.986999628E0
2.971079417E0,2.649237172E0,8.514376295E-1,-1.772850058E0,3.299454646E0
2.981105417E0,2.824146103E0,1.193930685E0,-1.079369185E0,3.250586029E0
2.991131417E0,2.833066615E0,1.512999794E0,-5.506264508E-1,3.258623070E0
3.001156417E0,2.848102146E0,1.601488048E0,-8.048983245E-1,3.365161380E0
3.011182417E0,2.770958076E0,1.656651850E0,-1.292249277E0,3.477443343E0
3.021208417E0,2.649453811E0,1.428456658E0,-1.685319140E0,3.449694845E0
3.031234417E0,2.493576982E0,9.692660415E-1,-1.933836184E0,3.301079401E0
3.041259417E0,2.471985554E0,3.614362800E-1,-2.356159521E0,3.434069954E0
3.051285417E0,2.344271693E0,-3.427339607E-1,-2.798385610E0,3.666611291E0
3.061311417E0,1.826261888E0,-9.362129009E-1,-3.473573542E0,4.034530980E0
3.071337417E0,1.845602723E0,-8.615041959E-1,-4.209418150E0,4.676284855E0
3.081362417E0,2.388578531E0,-4.088490129E-1,-4.567423868E0,5.170476352E0
3.091388417E0,2.161281471E0,9.247956276E-2,-5.284478449E0,5.710114057E0
3.101414417E0,1.984469856E0,2.831420624E-1,-6.592263193E0,6.890299271E0
3.111439417E0,2.624239156E0,3.360570252E-1,-6.770448319E0,7.269012032E0
3.121465417E0,3.974682262E0,-6.856328130E-2,-5.730384775E0,6.974246173E0
3.131491417E0,5.246698419E0,-1.182933242E0,-3.218758608E0,6.267980722E0
3.141517417E0,5.432172099E0,-2.240571177E0,-7.081390384E-1,5.918624318E0
3.151542417E0,6.284308471E0,-2.787457164E0,1.647217660E-1,6.876742227E0
3.161568417E0,7.123756385E0,-2.449507980E0,-1.323290976E0,7.648470003E0
3.171594417E0,5.537951739E0,-3.066911387E0,-3.709592893E0,7.337297483E0
3.181620417E0,2.279794300E0,-3.883825886E0,-4.027147574E0,6.041480211E0
3.191645417E0,-1.260238841E0,-3.642713610E0,-4.430048799E0,5.872213956E0
3.201671417E0,-3.789536318E0,-3.676499407E0,-6.740281364E0,8.562045682E0
3.211697417E0,-4.083502454E0,-3.929513690E0,-4.748828471E0,7.393743435E0
3.221722417E0,-2.166346037E0,-5.317985333E0,-1.741275094E0,6.000505154E0
3.231748417E0,2.685936052E-1,-7.267503750E0,9.215258646E-1,7.330618200E0
3.241774417E0,8.576777780E-1,-7.945213585E0,3.599795047E0,8.764733565E0
3.251800417E0,1.033191311E0,-7.303413840E0,4.944862808E0,8.880259354E0
3.261825417E0,1.415505367E0,-6.480370874E0,4.602020674E0,8.073255626E0
3.271851417E0,1.443484002E0,-5.237147577E0,3.301323924E0,6.356893931E0
3.281877417E0,7.974312839E-1,-4.248086371E0,1.883598661E0,4.714878407E0
3.291903417E0,-1.621020672E-1,-2.692310686E0,1.570015702E0,3.120859371E0
3.301928417E0,-1.846299273E-1,-1.091406775E0,1.231061089E0,1.655526612E0
3.311954417E0,6.346480161E-2,-1.635463879E0,-7.165318394E-1,1.786669460E0
3.321980417E0,5.520753908E-1,-1.948625547E0,-1.092374782E0,2.301132639E0
3.332005417E0,9.234601235E-1,-1.356047662E0,-2.737830091E-1,1.663310253E0
3.342031417E0,7.870270407E-1,-5.730750811E-1,9.640304446E-1,1.370102664E0
3.352057417E0,7.119394362E-2,-5.223610103E-1,1.786826365E0,1.862975594E0
3.362083417E0,-1.469161757E0,-3.000118643E-1,3.846317752E0,4.128268843E0
3.372108417E0,-8.967593980E-1,5.574226695E-1,3.923765585E0,4.063352534E0
3.382134417E0,-9.175573593E-1,6.134851885E-1,3.231011156E0,3.414338688E0
3.392160417E0,-8.257622132E-1,5.197408730E-1,3.240869854E0,3.384560713E0
3.402186417E0,-8.947935641E-1,4.812077218E-1,3.429878176E0,3.577188938E0
3.412211417E0,-1.065201601E0,2.414286107E-1,3.667927973E0,3.827092610E0
3.422237417E0,-1.485390412E0,1.679647779E-1,3.878205543E0,4.156329519E0
3.432263417E0,-1.641420438E0,1.868641484E-1,4.275337320E0,4.583414498E0
3.442288417E0,-1.907308244E0,1.344140393E-1,4.264869635E0,4.673864019E0
3.452314417E0,-2.548171265E0,4.098845547E-1,4.354428513E0,5.061840557E0
3.462340417E0,-2.925976826E0,9.715727681E-1,4.225273460E0,5.230509520E0
3.472366417E0,-2.999646188E0,1.575929283E0,3.871390613E0,5.144812498E0
3.482391333E0,-3.081307817E0,2.052186168E0,3.398083649E0,5.025226205E0
3.492417333E0,-3.002077460E0,2.633059096E0,3.120178353E0,5.067640697E0
3.502443333E0,-2.964143356E0,3.077436960E0,3.170793021E0,5.320779310E0
3.512469333E0,-3.681348210E0,3.241132686E0,3.382105547E0,5.957843877E0
3.522494333E0,-4.237796441E0,3.306253127E0,3.256520219E0,6.284516875E0
3.532520333E0,-3.743213798E0,3.295636337E0,3.096686579E0,5.870463029E0
3.542546333E0,-2.641106034E0,3.234358102E0,2.882473834E0,5.073969730E0
3.552572333E0,-1.717111183E0,3.234813015E0,2.777875916E0,4.596637974E0
3.562597333E0,-1.687649402E0,3.260989830E0,2.510872169E0,4.448223716E0
3.572623333E0,-2.155014425E0,3.623822426E0,2.514948848E0,4.909291584E0
3.582649333E0,-2.050177065E0,4.306821068E0,2.414975494E0,5.346404431E0
3.592674333E0,-1.330620753E0,5.168436361E0,2.188554931E0,5.768280393E0
3.602700333E0,-6.293665186E-1,5.837716851E0,1.532076336E0,6.068137947E0
3.612726333E0,-4.215199292E-1,6.173877372E0,4.032906497E-1,6.201377605E0
3.622752333E0,-3.981158638E-1,6.155262761E0,-1.053331461E0,6.257416644E0
3.632777333E0,5.328246027E-2,5.566286176E0,-2.428908824E0,6.073382821E0
3.642803333E0,7.501922134E-1,4.475665267E0,-4.524861693E0,6.408489782E0
3.652829333E0,1.210449069E0,2.368132864E0,-7.884414822E0,8.320891617E0
3.662855333E0,2.092278479E0,-2.859973748E0,-1.326380995E1,1.372901065E1
3.672880333E0,4.463903593E0,-1.369044152E1,-2.542714118E1,2.922146698E1
3.682906333E0,1.280703482E1,-2.855113776E1,-2.316701925E1,3.893453980E1
3.692932333E0,1.790353113E1,-3.169305489E1,8.101354124E0,3.729099213E1
3.702957333E0,3.719280268E0,-9.945746620E0,3.075457912E1,3.253605782E1
3.712983333E0,-5.801950602E0,4.386381208E0,1.670108515E1,1.821618006E1
3.723009333E0,-1.271035462E1,7.376823878E0,-4.609869391E0,1.540199795E1
3.733035333E0,-1.676495078E1,1.040697148E1,-1.145910426E1,2.281840705E1
3.743060333E0,-1.022598262E1,1.059008406E1,3.899419533E0,1.522911926E1
3.753086333E0,-4.803504908E0,7.210747166E0,1.070561217E1,1.377238781E1
3.763112333E0,-4.669541104E0,3.367820799E0,8.448937765E0,1.022405890E1
3.773138333E0,-3.998047443E0,5.074242979E-1,6.878884349E0,7.972509809E0
3.783163333E0,-3.712396048E0,-2.563177267E0,6.583874778E0,7.981175929E0
3.793189333E0,-3.208017857E0,-5.227942305E0,6.629347404E0,9.031666863E0
3.803215333E0,-1.359706850E0,-7.419899731E0,5.827436861E0,9.532194664E0
3.813240333E0,9.008085948E-1,-8.039544961E0,3.441267383E0,8.791362836E0
3.823266333E0,2.924946839E0,-7.273585439E0,5.354716372E-1,7.857931599E0
3.833292333E0,3.375231268E0,-6.273519773E0,1.177534215E-1,7.124822968E0
3.843318333E0,1.730135855E0,-4.100780391E0,2.065290217E0,4.906647896E0
3.853343333E0,3.151473820E-1,-1.532915996E0,3.062445284E0,3.439145307E0
3.863369333E0,-3.188799521E-1,6.286838561E-1,1.121285462E0,1.324465516E0
3.873395333E0,-7.546507153E-1,1.547037606E0,-6.149234574E-1,1.827827649E0
3.883421333E0,-2.087613863E-1,1.245282102E0,-8.554605138E-1,1.525162785E0
3.893446333E0,1.067879918E0,8.292474461E-1,-8.595885019E-1,1.602158307E0
3.903472333E0,1.381801431E0,6.053739309E-1,-4.013925704E-1,1.561079366E0
3.913498333E0,1.153650678E0,8.984410572E-1,4.473518316E-1,1.529127163E0
3.923523333E0,1.038386855E0,1.382285289E0,6.731361437E-1,1.855282228E0
3.933549333E0,9.820463008E-1,1.963979166E0,5.522648771E-1,2.264205290E0
3.943575333E0,1.073555226E0,2.208224380E0,1.989854264E-1,2.463406368E0
3.953601333E0,1.139128826E0,2.247947440E0,-3.820968318E-1,2.548897833E0
3.963626333E0,1.232983654E0,2.241549416E0,-6.752411413E-1,2.645891735E0
3.973652333E0,1.082388176E0,2.000930060E0,-8.252830338E-1,2.419995321E0
3.983678333E0,1.129250686E0,1.645515243E0,-5.592446619E-1,2.072602740E0
3.993704333E0,1.464461765E0,1.381277813E0,-3.148292935E-1,2.037570647E0
4.003729333E0,1.261749031E0,1.234738988E0,-3.417697549E-1,1.798165051E0
4.013755333E0,6.290925765E-1,7.233730817E-1,-8.540764779E-1,1.283928625E0
4.023781333E0,3.680755010E-1,4.114001530E-1,-1.508947089E0,1.606751685E0
4.033807333E0,4.949011700E-1,3.246941310E-1,-1.844541600E0,1.937185371E0
4.043832333E0,6.385966408E-1,3.211846322E-1,-2.241856980E0,2.353059276E0
4.053858333E0,9.444767708E-1,1.637091744E-1,-2.370643074E0,2.557104935E0
4.063884333E0,1.151769044E0,3.474240124E-1,-2.151289895E0,2.464817151E0
4.073909333E0,1.470766525E0,8.759339547E-1,-1.785521998E0,2.473560848E0
4.083935333E0,1.788346641E0,1.394568534E0,-1.395318732E0,2.662690270E0
4.093961333E0,1.968114316E0,1.585655542E0,-1.116213295E0,2.762916861E0
4.103987333E0,2.271343319E0,1.457213264E0,-1.008653471E0,2.880946510E0
4.114012333E0,2.194837326E0,1.169122118E0,-1.129515565E0,2.731293252E0
4.124038333E0,2.051553207E0,7.193414265E-1,-1.446293004E0,2.611146511E0
4.134064333E0,1.874875639E0,2.523050165E-1,-1.890023582E0,2.674136426E0
4.144090333E0,1.764655916E0,-2.068645495E-1,-2.684167854E0,3.218937792E0
4.154115333E0,2.099281397E0,-6.279763430E-1,-3.396504900E0,4.041977512E0
4.164141333E0,2.364071096E0,-1.016412726E0,-4.030129361E0,4.781617890E0
4.174167333E0,2.628371383E0,-8.328616101E-1,-4.585947555E0,5.350972768E0
4.184192333E0,2.684383908E0,-6.029514295E-1,-5.376206059E0,6.039292921E0
4.194218333E0,3.346965535E0,-1.195626962E-1,-5.372563829E0,6.330949031E0
4.204244333E0,4.524628682E0,-4.909567845E-1,-4.076962928E0,6.110231582E0
4.214270333E0,5.556821873E0,-1.344933275E0,-1.895659128E0,6.023341131E0
4.224295333E0,6.628003129E0,-2.620805086E0,1.200969855E-1,7.128356618E0
4.234321333E0,7.338763182E0,-3.637037133E0,4.411062013E-1,8.202442248E0
4.244347333E0,7.586654720E0,-3.687446564E0,-1.936146419E0,8.654666658E0
4.254373333E0,6.096090108E0,-4.419987495E0,-5.508767116E0,9.329797382E0
4.264398333E0,2.395567123E0,-4.677685398E0,-6.099000267E0,8.050918381E0
4.274424333E0,-1.104908727E0,-4.127975206E0,-5.836973670E0,7.234035127E0
4.284450333E0,-3.447368952E0,-3.692678652E0,-6.136024836E0,7.948020453E0
4.294476333E0,-4.272364303E0,-3.796791251E0,-5.312739796E0,7.803455945E0
4.304501333E0,-3.082812598E0,-4.412754489E0,-2.306024909E0,5.856098238E0
4.314527333E0,-1.074844829E0,-5.312053918E0,1.005808800E0,5.512246327E0
4.324553333E0,7.614712000E-2,-5.814125674E0,3.334513890E0,6.702897778E0
4.334578333E0,5.180606756E-1,-5.716002964E0,4.171731091E0,7.095379978E0
4.344604333E0,9.429810530E-1,-5.363188988E0,3.602540900E0,6.529265680E0
4.354630333E0,1.440229149E0,-4.934109778E0,3.050839731E0,5.977233672E0
4.364656333E0,1.322915292E0,-4.095497432E0,2.187662208E0,4.827946770E0
4.374681333E0,8.158380264E-1,-3.112522593E0,1.058929585E0,3.387435674E0
4.384707333E0,1.735956466E-1,-1.846644843E0,-2.405339867E-2,1.854942369E0
4.394733333E0,2.597450137E-1,-6.489707708E-1,-2.566342950E-2,6.994920623E-1
4.404759333E0,-8.983925253E-2,-4.551928747E-1,2.158710158E-1,5.117342473E-1
4.414784333E0,-5.845359161E-1,-2.756260514E-1,3.980910131E-1,7.590312327E-1
4.424810333E0,-7.263475603E-1,-5.384923089E-1,1.108014037E0,1.430122320E0
4.434836333E0,-3.289547047E-1,-4.311046851E-1,1.634292389E0,1.721910004E0
4.444861333E0,-1.032758910E0,-7.426548600E-1,2.832414943E0,3.104947925E0
4.454887333E0,-2.105883780E0,-9.689005905E-1,3.890718876E0,4.528930141E0
4.464913333E0,-1.776388208E0,-5.851893425E-2,4.601216389E0,4.932562396E0
4.474939333E0,-1.740429586E0,4.627422148E-1,4.824171599E0,5.149355020E0
4.484964208E0,-1.390310007E0,7.462216616E-1,3.898179924E0,4.205426899E0
4.494990208E0,-1.739456025E-1,6.873799610E-1,3.608066518E0,3.677076595E0
4.505016208E0,5.999594092E-2,4.801043522E-1,3.347007343E0,3.381798021E0
4.515042208E0,-4.825891265E-1,-1.504283935E-1,3.864441197E0,3.897361509E0
4.525067208E0,-1.049552698E0,-1.975861877E-1,4.785424732E0,4.903151133E0
4.535093208E0,-1.551645797E0,3.992677653E-1,5.155226916E0,5.398461261E0
4.545119208E0,-2.075410431E0,1.282881453E0,5.134468131E0,5.684705469E0
4.555145208E0,-2.741890982E0,2.259704436E0,4.826491190E0,5.993266847E0
4.565170208E0,-3.226748243E0,3.037077724E0,4.502398737E0,6.317225634E0
4.575196208E0,-3.937840126E0,3.362472936E0,4.560853937E0,6.900304177E0
4.585222208E0,-4.752086832E0,3.520555335E0,3.971912436E0,7.124094856E0
4.595247208E0,-4.868223352E0,3.420989531E0,3.399750105E0,6.852814660E0
4.605273208E0,-4.199303344E0,3.431061360E0,3.114453344E0,6.253491046E0
4.615299208E0,-3.320612719E0,3.575325034E0,3.007660382E0,5.731966408E0
4.625325208E0,-2.620676155E0,3.487503948E0,2.856339703E0,5.214336372E0
4.635350208E0,-2.040016358E0,3.399776418E0,2.594616576E0,4.738373308E0
4.645376208E0,-1.377602254E0,3.593442047E0,2.015663874E0,4.344365842E0
4.655402208E0,-5.587233827E-1,3.916247528E0,1.184303244E0,4.129375339E0
4.665428208E0,-1.615214387E-1,4.336800912E0,9.722282410E-2,4.340896636E0
4.675453208E0,-3.740139332E-1,4.627723864E0,-5.812880802E-1,4.679060848E0
4.685479208E0,-7.369356984E-1,4.394236357E0,-1.157623569E0,4.603529050E0
4.695505208E0,-9.379115170E-1,3.914017400E0,-2.296016815E0,4.633670622E0
4.705530208E0,-7.278453246E-1,3.241442004E0,-3.422182363E0,4.769490246E0
4.715556208E0,-2.504336151E-1,2.699927269E0,-3.937887780E0,4.781138403E0
4.725582208E0,2.474948046E-1,2.124278829E0,-3.816581737E0,4.374941185E0
4.735608208E0,8.533911842E-1,1.493388233E0,-4.175279766E0,4.515688879E0
4.745633208E0,1.086779873E0,2.455070436E-1,-4.872353241E0,4.998118677E0
4.755659208E0,9.062859741E-1,-2.754409286E0,-4.753164766E0,5.567827231E0
4.765685208E0,1.923637471E-1,-8.354397059E0,-9.190899146E0,1.242197976E1
4.775711208E0,1.238189137E0,-1.675788383E1,-1.398626619E1,2.186264908E1
4.785736208E0,7.128982041E0,-2.226085051E1,-6.647012427E0,2.430124739E1
4.795762208E0,5.025674837E0,-1.396116994E1,1.409893034E1,2.046830502E1
4.805788208E0,-2.545135683E0,-6.783419198E-1,1.488876054E1,1.511995548E1
4.815814208E0,-7.493854730E0,3.956740081E0,4.270242056E0,9.489395028E0
4.825839208E0,-9.399148316E0,6.092080087E0,-1.197987776E0,1.126466172E1
4.835865208E0,-6.232701530E0,6.737524402E0,3.746476837E0,9.913470236E0
4.845891208E0,-3.368766586E0,5.477271674E0,7.487754915E0,9.869932470E0
4.855916208E0,-3.682560923E0,2.671073014E0,6.630857155E0,8.041402403E0
4.865942208E0,-3.456754318E0,-3.751626188E-1,6.566411483E0,7.430185541E0
4.875968208E0,-2.719724772E0,-3.037996906E0,6.594676924E0,7.753456762E0
4.885994208E0,-1.229108996E0,-5.276279483E0,6.694440948E0,8.611932054E0
4.896019208E0,4.107470191E-1,-6.370007018E0,6.274643024E0,8.950801506E0
4.906045208E0,2.089274472E0,-6.591936334E0,5.506303099E0,8.839573874E0
4.916071208E0,3.943546131E0,-6.606760780E0,3.898226409E0,8.625370324E0
4.926097208E0,4.417560316E0,-5.083593847E0,-2.286585256E0,7.112400275E0
4.936122208E0,8.986354771E-1,-2.272280043E0,-3.151894820E0,3.988137820E0
4.946148208E0,-1.941772025E0,-1.482321793E-1,1.943633340E0,2.751392727E0
4.956174208E0,-1.675624018E0,1.305190920E0,8.286065912E-1,2.279874573E0
4.966200208E0,1.452185243E-1,1.145710452E0,-1.828045435E0,2.162288364E0
4.976225208E0,1.299353644E0,8.607311940E-1,-3.561701314E-1,1.598760534E0
4.986251208E0,1.423881211E0,1.054021432E0,1.256118747E0,2.171689018E0
4.996277208E0,1.620402036E0,1.473949749E0,9.921462695E-1,2.404700572E0
5.006302208E0,1.750610173E0,2.046451219E0,2.294587755E-1,2.702822580E0
5.016328208E0,1.808260504E0,2.528148353E0,4.617421947E-2,3.108612584E0
5.026354208E0,1.579614199E0,2.807480954E0,6.475678045E-2,3.222006171E0
5.036380208E0,1.101537953E0,2.975529347E0,-3.396214513E-1,3.191003524E0
5.046405208E0,9.274622503E-1,2.844574521E0,-7.862937999E-1,3.093549477E0
5.056431208E0,5.517546710E-1,2.266450953E0,-1.041839343E0,2.554733324E0
5.066457208E0,5.057613498E-1,1.598658580E0,-1.287270373E0,2.113898960E0
5.076483208E0,9.837957877E-1,1.232160366E0,-1.050946382E0,1.894877731E0
5.086508208E0,1.480144874E0,9.841507137E-1,-5.137498158E-1,1.850221703E0
5.096534208E0,1.611397324E0,6.050423938E-1,-8.295199263E-1,1.910701689E0
5.106560208E0,1.832874504E0,1.790598696E-1,-1.329907100E0,2.271595096E0
5.116585208E0,2.134893571E0,2.029393137E-1,-1.580677807E0,2.664112846E0
5.126611208E0,2.221993988E0,5.049748993E-1,-1.785665401E0,2.894971132E0
5.136637208E0,1.976980157E0,8.926248318E-1,-2.104497698E0,3.022274010E0
5.146663208E0,1.928199176E0,1.115559869E0,-2.070910122E0,3.041561213E0
5.156688208E0,1.990471730E0,1.271620885E0,-1.978648075E0,3.081240917E0
5.166714208E0,1.849125232E0,1.333516586E0,-1.965056076E0,3.009813282E0
5.176740208E0,1.605236113E0,1.199857423E0,-1.609328579E0,2.570287783E0
5.186766208E0,1.314857244E0,1.215821491E0,-9.400299633E-1,2.022554771E0
5.196791208E0,8.294806038E-1,1.314955185E0,-4.803733242E-1,1.627238071E0
5.206817208E0,8.302954133E-1,1.104422677E0,-5.547214021E-1,1.488910930E0
5.216843208E0,7.996789536E-1,7.621290118E-1,-7.500264448E-1,1.335240326E0
5.226869208E0,7.864315018E-1,1.781786942E-1,-8.654960901E-1,1.182922498E0
5.236894208E0,5.711399451E-1,-6.404700887E-1,-1.144002041E0,1.430085117E0
5.246920208E0,1.200721641E0,-1.282164584E0,-1.496041700E0,2.307340297E0
5.256946208E0,1.861727882E0,-1.498028584E0,-1.849076262E0,3.021457159E0
5.266971208E0,1.504356294E0,-1.890123569E0,-4.378355319E0,5.000564995E0
5.276997208E0,2.396157253E0,-1.539488851E0,-6.575744224E0,7.166031510E0
5.287023208E0,3.494033826E0,-1.086533121E0,-6.177767524E0,7.180086224E0
5.297049208E0,4.540599182E0,-9.174866080E-1,-4.776284657E0,6.653699552E0
5.307074208E0,5.607613127E0,-1.356126015E0,-3.296379519E0,6.644585817E0
5.317100208E0,6.578691806E0,-2.275327027E0,-1.998911017E0,7.242371449E0
5.327126208E0,7.377203947E0,-3.286262666E0,-4.189303435E-1,8.086913071E0
5.337152208E0,7.813379923E0,-2.969441811E0,-8.190779686E-3,8.358621751E0
5.347177208E0,7.424741811E0,-2.823793516E0,-1.770047634E0,8.138407056E0
5.357203208E0,5.102511928E0,-3.815349144E0,-4.353539152E0,7.716593822E0
5.367229208E0,7.247204264E-1,-4.172479534E0,-6.521729400E0,7.776101821E0
5.377255208E0,-2.921917981E0,-3.795929956E0,-7.297399394E0,8.729188211E0
5.387280208E0,-4.641311624E0,-3.870865533E0,-7.013878432E0,9.258502267E0
5.397306208E0,-4.431736598E0,-4.170825357E0,-4.126146197E0,7.352629181E0
5.407332208E0,-2.288459581E0,-5.112885473E0,-8.841317511E-1,5.671008206E0
5.417357208E0,-5.055312619E-1,-5.907369468E0,1.874044311E0,6.218087967E0
5.427383208E0,7.111880690E-2,-5.518972846E0,4.298619179E0,6.995873498E0
5.437409208E0,6.352201661E-1,-4.862890692E0,5.097948761E0,7.073916320E0
5.447435208E0,1.368648705E0,-4.698033709E0,4.543545009E0,6.677463684E0
5.457460208E0,1.836623008E0,-3.938106174E0,3.682968181E0,5.696149483E0
5.467486208E0,6.325605601E-1,-3.067059907E0,2.392650239E0,3.941035968E0
5.477512208E0,3.064002398E-1,-1.688406324E0,9.561492750E-1,1.964387553E0
5.487538292E0,6.353742403E-1,-9.995265520E-1,-5.610590529E-1,1.310549890E0
5.497563292E0,3.593727976E-2,-1.098552073E0,-8.299093509E-1,1.377264562E0
5.507589292E0,9.626224351E-1,-1.270712228E0,-9.836817670E-1,1.873227519E0
5.517615292E0,1.753641370E0,-9.110745513E-1,-2.580127761E-1,1.992958977E0
5.527641292E0,8.979548612E-1,-4.462647611E-1,1.423458750E0,1.741180629E0
5.537666292E0,-5.753809306E-1,-6.875004137E-1,3.509612563E0,3.622305947E0
5.547692292E0,-2.323691979E0,-8.822226351E-1,3.889782737E0,4.616088272E0
5.557718292E0,-2.784570394E0,-1.681337625E-1,3.312580984E0,4.330738276E0
5.567743292E0,-2.647370156E0,2.708757734E-1,4.193033374E0,4.966233110E0
5.577769292E0,-2.156062831E0,7.025616717E-1,4.451260451E0,4.995589999E0
5.587795292E0,-1.358451745E0,8.938416374E-1,3.936245005E0,4.258916383E0
5.597821292E0,-1.008443263E0,5.713817275E-1,3.330067082E0,3.526014984E0
5.607846292E0,-2.081863126E0,4.213293099E-1,3.200017989E0,3.840805592E0
5.617872292E0,-1.124453776E0,2.704126740E-1,3.249594777E0,3.449258692E0
5.627898292E0,-5.409811762E-1,1.933504647E-1,3.610032937E0,3.655459320E0
5.637924292E0,-8.055934122E-1,5.061303091E-1,4.251972431E0,4.357111221E0
5.647949292E0,-1.825342560E0,1.626033490E0,5.080546278E0,5.638068007E0
5.657975292E0,-3.119076152E0,2.315055349E0,5.418060429E0,6.666595542E0
5.668001292E0,-3.925671193E0,2.857426701E0,4.695101330E0,6.754240014E0
5.678027292E0,-4.004118023E0,3.194521022E0,4.299825459E0,6.687781746E0
5.688052292E0,-4.056111172E0,3.367476398E0,4.238858296E0,6.764603077E0
5.698078292E0,-3.835984553E0,3.565864824E0,3.788031537E0,6.463694946E0
5.708104292E0,-3.267657995E0,3.464902706E0,3.342792377E0,5.818711233E0
5.718129292E0,-2.743665904E0,3.306947776E0,3.095515966E0,5.295830934E0
5.728155292E0,-2.228647242E0,3.343012233E0,2.835009061E0,4.917303702E0
5.738181292E0,-1.539585622E0,3.444057966E0,2.436124873E0,4.490719715E0
5.748207292E0,-8.611937088E-1,3.650141328E0,1.996304328E0,4.248578267E0
5.758232292E0,-3.727462569E-1,3.897818858E0,1.536037239E0,4.206107705E0
5.768258292E0,-4.724626261E-1,4.135528055E0,1.088390781E0,4.302372336E0
5.778284292E0,-9.150357476E-1,4.470240220E0,4.805709600E-1,4.588168098E0
5.788310292E0,-1.510692483E0,4.614383442E0,-6.890037328E-1,4.904024110E0
5.798335292E0,-1.845795535E0,4.355883885E0,-2.048309756E0,5.155216623E0
5.808361292E0,-1.800781915E0,3.882533652E0,-2.839956974E0,5.136364344E0
5.818387292E0,-1.392897108E0,3.424135918E0,-3.398269005E0,5.021264917E0
5.828413292E0,-5.255895504E-1,2.613728201E0,-4.524214991E0,5.251318003E0
5.838438292E0,6.419544044E-1,8.854368496E-1,-7.229516729E0,7.311772425E0
5.848464292E0,1.701645882E0,-3.807932535E0,-1.268487245E1,1.335297488E1
5.858490292E0,3.517537002E0,-1.410354029E1,-2.188851619E1,2.627527462E1
5.868515292E0,1.240245661E1,-2.704946753E1,-2.043224374E1,3.609669248E1
5.878541292E0,1.730515281E1,-2.704444594E1,9.003656682E0,3.334570743E1
5.888567292E0,2.765678917E0,-5.792383972E0,2.823299076E1,2.895345332E1
5.898593292E0,-6.795250454E0,5.072859528E0,1.148255160E1,1.427439399E1
5.908618292E0,-1.384091961E1,7.537481976E0,-7.012466329E0,1.724990940E1
5.918644292E0,-1.372045294E1,9.725180874E0,-3.695761889E0,1.721884513E1
5.928670292E0,-5.850125227E0,9.389773475E0,8.956542158E0,1.423416518E1
5.938696292E0,-3.519407819E0,6.624338095E0,8.906897542E0,1.164478039E1
5.948721292E0,-4.179035432E0,2.731892828E0,7.375994743E0,8.906900360E0
5.958747292E0,-3.881858883E0,-9.024171638E-1,7.015213351E0,8.068234224E0
5.968773292E0,-3.487688720E0,-4.332951105E0,7.082168648E0,9.005306805E0
5.978799292E0,-2.364403510E0,-7.521651809E0,7.895663695E0,1.115827742E1
5.988824292E0,-4.573542979E-1,-8.861228449E0,6.947680349E0,1.126946338E1
5.998850292E0,2.261974033E0,-8.655347401E0,2.393741622E0,9.260753971E0
6.008876292E0,4.516228572E0,-7.934257658E0,-4.245968510E0,1.006861528E1
6.018901292E0,2.074378690E0,-5.490959421E0,-9.074703276E-1,5.939459968E0
6.028927292E0,-3.267608294E-1,-2.486494542E0,3.369953864E0,4.200716224E0
6.038953292E0,-1.027801348E0,2.117522371E-1,2.283946992E0,2.513489304E0
6.048979292E0,-1.457273198E0,1.856838879E0,-8.439622566E-2,2.361909930E0
6.059004292E0,-1.305256116E0,2.120016208E0,-8.264115465E-1,2.623188574E0
6.069030292E0,-3.963380179E-1,1.461325611E0,-1.598886037E-1,1.522537596E0
6.079056292E0,3.971434718E-1,9.304621643E-1,5.634295873E-1,1.157987770E0
6.089082292E0,1.132878444E0,8.519767427E-1,9.298898681E-1,1.695279654E0
6.099107292E0,1.904257751E0,9.591971362E-1,1.352658616E0,2.525062784E0
6.109133292E0,2.251555756E0,1.505496063E0,1.496992457E0,3.094674156E0
6.119159292E0,2.399994342E0,2.225747316E0,1.189172806E0,3.482535846E0
6.129185292E0,2.520576501E0,2.726170743E0,5.669495380E-1,3.755894646E0
6.139210292E0,2.696613652E0,2.923738219E0,-4.112908101E-1,3.998641081E0
6.149236292E0,2.617091227E0,2.982603309E0,-9.277449632E-1,4.075021436E0
6.159262292E0,1.959336184E0,2.524047700E0,-9.259750110E-1,3.326746879E0
6.169287292E0,1.076444335E0,1.634314317E0,-8.051920009E-1,2.116140319E0
6.179313292E0,1.062494633E-1,6.223372883E-1,-7.201460034E-1,9.577071134E-1
6.189339292E0,-2.323385292E-1,1.308536696E-1,-5.664507705E-1,6.260753552E-1
6.199365292E0,-2.485211371E-1,-2.837712228E-2,-1.070953288E0,1.099776778E0
6.209390292E0,-1.419627947E-1,-1.379831797E-1,-1.731555852E0,1.742836326E0
6.219416292E0,3.428836495E-1,-2.926414490E-1,-2.288045890E0,2.332029633E0
6.229442292E0,8.284020849E-1,1.769192040E-1,-2.199528401E0,2.357005644E0
6.239468292E0,1.170626899E0,6.595706034E-1,-2.032187521E0,2.436223889E0
6.249493292E0,1.410078128E0,1.111494300E0,-1.947729753E0,2.649035881E0
6.259519292E0,1.699753723E0,1.420813762E0,-1.702608480E0,2.794056209E0
6.269545292E0,1.845293698E0,1.577851263E0,-1.446161442E0,2.825969985E0
6.279571292E0,1.602815220E0,1.517823163E0,-1.369260762E0,2.597629461E0
6.289596292E0,1.412695780E0,1.056854993E0,-1.609537910E0,2.388150775E0
6.299622292E0,1.493586161E0,3.036353838E-1,-2.184333388E0,2.663513923E0
6.309648292E0,1.860251460E0,-6.286534506E-1,-2.637439830E0,3.288134655E0
6.319674292E0,2.009822944E0,-1.411026108E0,-2.650507772E0,3.613249838E0
6.329699292E0,2.140085753E0,-1.460133948E0,-2.794094338E0,3.810370238E0
6.339725292E0,3.285967966E0,-6.891101521E-1,-3.108052981E0,4.575199626E0
6.349751292E0,3.966834421E0,-2.155780703E-1,-3.979858802E0,5.623301994E0
6.359776292E0,4.400073633E0,6.547887504E-2,-5.469021252E0,7.019624557E0
6.369802292E0,4.622000025E0,2.130889106E-1,-6.361991655E0,7.866589409E0
6.379828292E0,4.720717397E0,6.182261109E-3,-5.566139996E0,7.298433080E0
6.389854292E0,4.871360384E0,-4.804037297E-1,-4.017154682E0,6.332335388E0
6.399879292E0,4.987853876E0,-1.094042115E0,-2.795724542E0,5.821656994E0
6.409905292E0,5.637049180E0,-1.658056351E0,-2.565355940E0,6.411437079E0
6.419931292E0,6.802470596E0,-2.881599675E0,-1.132468847E0,7.473935281E0
6.429957292E0,7.166004857E0,-3.240894120E0,7.200588799E-1,7.897689858E0
6.439982292E0,6.366350169E0,-3.539895000E0,2.497228861E-1,7.288596066E0
6.450008292E0,2.831656852E0,-4.070190682E0,-2.851380680E0,5.719711924E0
6.460034292E0,-1.546221920E0,-4.187491676E0,-6.402504673E0,7.804995506E0
6.470060292E0,-4.508626022E0,-4.282337607E0,-7.151762209E0,9.477015705E0
6.480085292E0,-5.480739073E0,-4.226637615E0,-4.513057626E0,8.262605851E0
6.490111167E0,-4.261337332E0,-5.009693812E0,-1.506317596E0,6.747223180E0
6.500137167E0,-2.733089753E0,-6.072145175E0,1.430805484E0,6.810868590E0
6.510162167E0,-1.968690560E0,-6.607453675E0,3.701198630E0,7.825155454E0
6.520188167E0,-1.364953264E0,-6.874030575E0,4.507461841E0,8.332622997E0
6.530214167E0,-7.629230636E-1,-6.329828460E0,4.278042827E0,7.677918361E0
6.540240167E0,4.068004408E-1,-5.209450486E0,3.118213688E0,6.084991172E0
6.550265167E0,3.672434422E-1,-4.127808561E0,1.607093189E0,4.444819431E0
6.560291167E0,-3.232106924E-1,-2.791179501E0,8.308951914E-1,2.930108356E0
6.570317167E0,1.486753982E-1,-1.645446830E0,5.592016849E-1,1.744220792E0
6.580343167E0,9.951636520E-1,-1.458772132E0,6.099669188E-2,1.766942960E0
6.590368167E0,5.689910933E-1,-9.260627192E-1,5.029941550E-1,1.197641910E0
6.600394167E0,1.919892329E-1,-2.004156554E-1,9.217623845E-1,9.626381428E-1
6.610420167E0,7.290884426E-1,-1.099165446E-1,1.115315455E0,1.337004177E0
6.620446167E0,5.435940045E-1,1.679045516E-1,2.245349522E0,2.316307591E0
6.630471167E0,-2.020172077E-1,1.423171359E-1,3.574124309E0,3.582656792E0
6.640497167E0,-8.246810630E-1,2.117393732E-1,3.914090782E0,4.005625927E0
6.650523167E0,-1.128249204E0,6.633993602E-1,4.071090277E0,4.276309275E0
6.660549167E0,-1.868931506E0,9.634118092E-1,4.157737826E0,4.659168501E0
6.670574167E0,-1.119307934E0,1.228075501E0,4.612214125E0,4.902401332E0
6.680600167E0,-3.000735524E-1,9.568763763E-1,3.342283085E0,3.489486030E0
6.690626167E0,-3.189124042E-1,1.720139748E-1,3.024200108E0,3.045829973E0
6.700651167E0,-1.072273516E0,-7.018670225E-1,4.162427293E0,4.355248418E0
6.710677167E0,-2.178647117E0,-5.030681223E-1,4.264711175E0,4.815323686E0
6.720703167E0,-2.614830401E0,1.674461299E-1,4.179954615E0,4.933294722E0
6.730729167E0,-2.669462691E0,9.759125715E-1,4.375444576E0,5.217561848E0
6.740754167E0,-3.134184188E0,1.840535672E0,4.458321841E0,5.752157484E0
6.750780167E0,-4.000333997E0,2.665810520E0,4.137720176E0,6.342708102E0
6.760806167E0,-4.519232579E0,3.489067494E0,4.124506053E0,7.043337650E0
6.770832167E0,-4.795319098E0,4.010295314E0,4.373910851E0,7.629459344E0
6.780857167E0,-4.650059059E0,4.070487136E0,3.849140203E0,7.280645238E0
6.790883167E0,-3.814444287E0,3.807416811E0,3.228686888E0,6.282581238E0
6.800909167E0,-2.398217373E0,3.391102073E0,3.003849167E0,5.125829655E0
6.810935167E0,-1.778021336E0,3.208830328E0,2.508692327E0,4.444264746E0
6.820960167E0,-1.602666847E0,3.323741564E0,2.225809881E0,4.309295608E0
6.830986167E0,-1.124023421E0,3.291554981E0,1.898069351E0,3.962376825E0
6.841012167E0,-5.114316872E-1,3.545836356E0,1.213114230E0,3.782349002E0
6.851037167E0,-1.930449477E-1,3.827294421E0,5.237286741E-1,3.867782395E0
6.861063167E0,8.532198608E-2,4.051735116E0,-4.779338658E-2,4.052915185E0
6.871089167E0,2.249064258E-1,4.138045866E0,-9.165925688E-1,4.244307768E0
6.881115167E0,5.265069786E-1,3.755239182E0,-2.242054031E0,4.405205692E0
6.891140167E0,7.873664716E-1,2.938759131E0,-3.378754800E0,4.546672981E0
6.901166167E0,1.157750161E0,2.207560136E0,-4.649808505E0,5.275834183E0
6.911192167E0,1.398541425E0,1.649894223E0,-4.657208742E0,5.134945212E0
6.921218167E0,9.875198793E-1,1.269660898E0,-4.214178368E0,4.510713206E0
6.931243167E0,-1.458321896E-1,5.037534159E-1,-5.220392965E0,5.246669157E0
6.941269167E0,-1.378528453E0,-2.207477106E0,-7.812827361E0,8.234899346E0
6.951295167E0,-2.301533370E0,-8.645290191E0,-1.320216042E1,1.594788820E1
6.961321167E0,-1.967158297E-1,-1.797997763E1,-1.519115631E1,2.353910625E1
6.971346167E0,7.074705262E0,-2.172047891E1,-3.964403442E-1,2.284705284E1
6.981372167E0,4.691880976E0,-1.061907221E1,1.775362490E1,2.121248780E1
6.991398167E0,-3.367596266E0,2.866743654E-1,1.088652620E1,1.139909380E1
7.001424167E0,-8.491479183E0,3.240774837E0,1.099045578E0,9.155093743E0
7.011449167E0,-8.692366124E0,5.574642432E0,9.966541073E-1,1.037435234E1
7.021475167E0,-4.647637142E0,6.474343565E0,6.683061097E0,1.040100770E1
7.031501167E0,-2.990632997E0,5.407411480E0,6.698160946E0,9.113141319E0
7.041527167E0,-3.341867933E0,2.936662905E0,6.187285037E0,7.620667059E0
7.051552167E0,-3.873746164E0,-3.346162713E-1,5.800951313E0,6.983474316E0
7.061578167E0,-3.344919887E0,-2.906356201E0,5.639158856E0,7.171855270E0
7.071604167E0,-1.546809857E0,-4.575381929E0,5.950133665E0,7.663604319E0
7.081629167E0,4.721880993E-1,-5.052850356E0,5.737642339E0,7.659947646E0
7.091655167E0,1.724797932E0,-5.245081664E0,4.345202776E0,7.026136686E0
7.101681167E0,2.594054951E0,-5.374430845E0,7.824100792E-1,6.018786716E0
7.111707167E0,1.692785304E0,-4.125408863E0,-1.789010447E0,4.804693409E0
7.121732167E0,-7.145341381E-1,-2.332875908E0,1.237913003E0,2.735927199E0
7.131758167E0,-1.795726412E0,-5.944776446E-1,2.919534656E0,3.478752596E0
7.141784167E0,-1.524374968E0,6.613990277E-1,1.235467843E0,2.070639637E0
7.151810167E0,-7.364667517E-1,9.263211662E-1,-6.708440351E-1,1.360325659E0
7.161835167E0,3.990040559E-1,7.976338899E-1,-1.476207944E0,1.724706918E0
7.171861167E0,1.326547875E0,6.703967232E-1,-7.053824417E-1,1.645212880E0
7.181887167E0,2.027056297E0,8.021093488E-1,5.414614519E-1,2.246222861E0
7.191913167E0,2.121814227E0,1.314333041E0,7.608793887E-1,2.609311097E0
7.201938167E0,1.999703899E0,2.146642674E0,4.083917606E-1,2.962038873E0
7.211964167E0,1.984975055E0,2.817299014E0,3.172079774E-1,3.460913261E0
7.221990167E0,1.909623741E0,2.869191883E0,-2.316432953E-2,3.446659467E0
7.232016167E0,1.805662878E0,2.361795652E0,-4.778625298E-1,3.011121009E0
7.242041167E0,1.452608289E0,2.119962414E0,-7.491020000E-1,2.676838674E0
7.252067167E0,1.206948926E0,1.915401667E0,-7.179375100E-1,2.375062847E0
7.262093167E0,1.045120801E0,1.357986599E0,-6.135974550E-1,1.820139261E0
7.272118167E0,9.067777249E-1,7.412526977E-1,-6.384305799E-1,1.333902174E0
7.282144167E0,1.227061886E0,4.361134100E-1,-9.358228185E-1,1.603633414E0
7.292170167E0,1.453818371E0,1.904408902E-1,-1.731243026E0,2.268712851E0
7.302196167E0,1.867806501E0,8.441274405E-2,-2.171726060E0,2.865697248E0
7.312221167E0,2.212026532E0,4.232466120E-1,-1.910434458E0,2.953296275E0
7.322247167E0,2.104258254E0,9.205447018E-1,-1.656540168E0,2.831859933E0
7.332273167E0,1.818791631E0,1.256493554E0,-1.576064354E0,2.714913976E0
7.342299167E0,1.587205639E0,1.451891128E0,-1.570592530E0,2.663450860E0
7.352324167E0,1.536524751E0,1.455607034E0,-1.515678404E0,2.603263562E0
7.362350167E0,1.271516805E0,1.345731420E0,-1.504917773E0,2.385901411E0
7.372376167E0,1.054616679E0,1.325297740E0,-1.295626629E0,2.132434947E0
7.382402167E0,1.057622440E0,9.193144476E-1,-1.257113943E0,1.882562016E0
7.392427167E0,1.376756454E0,2.684357303E-1,-1.637837118E0,2.156392010E0
7.402453167E0,1.229262486E0,-5.639616108E-1,-2.180364736E0,2.565760967E0
7.412479167E0,6.093136387E-1,-1.554772303E0,-2.734226452E0,3.203837435E0
7.422505167E0,7.932464316E-1,-2.136608852E0,-3.434972563E0,4.122302002E0
7.432530167E0,1.836361930E0,-1.839669115E0,-3.942218521E0,4.722043462E0
7.442556167E0,2.993629988E0,-1.123413264E0,-5.027219671E0,5.957920399E0
7.452582167E0,4.106449267E0,-3.193907064E-1,-6.264835489E0,7.497539577E0
7.462607167E0,4.989786381E0,2.398475236E-1,-6.579906272E0,8.261395858E0
7.472633167E0,5.601097575E0,3.400155902E-3,-5.581478412E0,7.907288212E0
7.482659167E0,6.156436297E0,-7.994260615E-1,-3.664526063E0,7.208990302E0
7.492685667E0,6.274323181E0,-1.654624620E0,-2.244099972E0,6.865923004E0
7.502710667E0,6.675855573E0,-2.671895133E0,-1.496888376E0,7.344844862E0
7.512736667E0,6.932330239E0,-2.767992952E0,-6.365881953E-1,7.491610778E0
7.522762667E0,6.717199481E0,-2.821120169E0,-1.468634630E0,7.432117837E0
7.532788667E0,4.561471987E0,-3.954639761E0,-4.440532272E0,7.494299780E0
7.542813667E0,2.532005176E-2,-4.371642131E0,-6.813472717E0,8.095387977E0
7.552839667E0,-3.275730076E0,-4.299223781E0,-5.953022189E0,8.040659540E0
7.562865667E0,-5.161599212E0,-4.259855647E0,-4.378098042E0,7.997263221E0
7.572891667E0,-5.023282156E0,-4.801393186E0,-1.553558421E0,7.120413184E0
7.582916667E0,-3.752757039E0,-5.658737673E0,1.966599888E0,7.069088524E0
7.592942667E0,-2.393036448E0,-6.971993072E0,3.825510435E0,8.304808302E0
7.602968667E0,-1.287085016E0,-7.704510030E0,4.713031232E0,9.122977915E0
7.612994667E0,-4.105710179E-1,-7.295403739E0,4.819889098E0,8.753445904E0
7.623019667E0,3.485911167E-1,-5.883726252E0,3.300477247E0,6.755212834E0
7.633045667E0,4.675702608E-1,-4.671135932E0,1.793490729E0,5.025409619E0
7.643071667E0,5.463246542E-1,-3.098875777E0,1.123308745E0,3.341156124E0
7.653096667E0,1.104272988E-1,-1.700585489E0,5.326532793E-1,1.785470445E0
7.663122667E0,4.322849455E-1,-1.007309196E0,1.598735471E-1,1.107746199E0
7.673148667E0,3.471702433E-1,-5.898238456E-1,2.461560845E-1,7.273322244E-1
7.683174667E0,-3.154938295E-1,-2.862849408E-1,7.531146517E-1,8.652612915E-1
7.693199667E0,4.386665967E-1,-9.667493999E-2,1.503592502E0,1.569256142E0
7.703225667E0,1.019506780E0,-9.494474888E-2,2.370749493E0,2.582413937E0
7.713251667E0,1.696440983E-1,-2.612296218E-1,2.996012728E0,3.012160737E0
7.723277667E0,-8.340211129E-1,4.977910101E-2,3.115587704E0,3.225671390E0
7.733302667E0,-1.488637078E0,4.846020305E-1,2.954886045E0,3.343984302E0
7.743328667E0,-2.043965567E0,5.659134114E-1,3.641639476E0,4.214213011E0
7.753354667E0,-1.936115136E0,7.330221570E-1,4.293959240E0,4.766964365E0
7.763380667E0,-1.000573496E0,7.101940423E-1,4.324631102E0,4.495326136E0
7.773405667E0,-5.430472898E-1,6.452326459E-1,3.823972033E0,3.915863587E0
7.783431667E0,-1.098344496E0,2.970023024E-1,3.829292999E0,3.994753543E0
7.793457667E0,-2.117361572E0,2.522471291E-1,4.475969615E0,4.957938345E0
7.803483667E0,-2.102270494E0,1.093087265E0,4.259168015E0,4.873899175E0
7.813508667E0,-1.813159886E0,1.749943006E0,4.810075132E0,5.430163171E0
7.823534667E0,-2.326464728E0,2.282793921E0,5.055471078E0,6.015095514E0
7.833560667E0,-3.582165399E0,3.112509729E0,4.648959782E0,6.643226085E0
7.843586667E0,-4.680645259E0,3.795533515E0,4.375962054E0,7.447386025E0
7.853611667E0,-5.171925395E0,4.051912286E0,4.250872570E0,7.825389643E0
7.863637667E0,-4.967314947E0,3.989362866E0,3.589731404E0,7.312687974E0
7.873663667E0,-4.082459018E0,3.665104353E0,2.999634494E0,6.252780873E0
7.883689667E0,-2.784780601E0,3.172008072E0,2.708685229E0,5.015337862E0
7.893714667E0,-1.934783433E0,2.888923312E0,2.409850994E0,4.230442843E0
7.903740667E0,-1.395696170E0,2.839849970E0,2.048090778E0,3.769269357E0
7.913766667E0,-1.179939760E0,3.033054839E0,1.352131197E0,3.524193279E0
7.923791667E0,-7.107129827E-1,3.610708875E0,9.630826110E-1,3.803926871E0
7.933817667E0,1.973119533E-1,3.640798062E0,8.630273956E-1,3.746886550E0
7.943843667E0,5.139673322E-1,3.423996170E0,9.944476604E-2,3.463784267E0
7.953869667E0,4.927933949E-1,3.334422088E0,-8.610387576E-1,3.478879667E0
7.963894667E0,-8.818887591E-2,3.437820742E0,-2.052370355E0,4.004823692E0
7.973920667E0,-4.225885078E-1,3.356668990E0,-2.815027370E0,4.401157444E0
7.983946667E0,-5.832647315E-1,2.900297316E0,-3.855606639E0,4.859796788E0
7.993972667E0,-4.759072208E-1,2.179844334E0,-5.887295977E0,6.295908427E0
8.003997667E0,-2.968923748E-1,4.075252032E-1,-8.729796490E0,8.744344952E0
8.014023667E0,9.525061673E-1,-3.189563752E0,-1.128408190E1,1.176482423E1
8.024049667E0,3.558265490E0,-8.817407076E0,-1.497297915E1,1.773691139E1
8.034075667E0,6.043892598E0,-1.652034654E1,-1.565187013E1,2.354636970E1
8.044100667E0,9.974789740E0,-2.029355247E1,-2.406409323E0,2.274017387E1
8.054126667E0,4.622531537E0,-8.595151486E0,1.905624187E1,2.140992249E1
8.064152667E0,-4.586499240E0,3.688635303E0,1.561565364E1,1.668803896E1
8.074178667E0,-1.165426210E1,5.567343353E0,-5.781943184E-1,1.292870627E1
8.084203667E0,-1.422210662E1,7.625038767E0,-5.703675864E0,1.711553245E1
8.094229667E0,-8.139616549E0,8.423792399E0,4.424340455E0,1.252151845E1
8.104255667E0,-2.541439366E0,6.328969504E0,1.175747131E1,1.359238392E1
8.114281667E0,-3.245899044E0,2.924717628E0,9.023609136E0,1.002573467E1
8.124306667E0,-3.398199716E0,-3.136844087E-1,6.939031148E0,7.732807543E0
8.134332667E0,-2.544145165E0,-2.776844468E0,5.868335795E0,6.972869196E0
8.144358667E0,-1.750128947E0,-4.987685477E0,5.595708196E0,7.697526094E0
8.154383667E0,3.413183498E-1,-7.222901773E0,4.629569538E0,8.586019005E0
8.164409667E0,3.093234091E0,-8.338083327E0,1.897405399E0,9.093507462E0
8.174435667E0,4.919105823E0,-8.877097793E0,1.162137765E0,1.021523526E1
8.184461667E0,5.020992971E0,-7.976876843E0,2.386719701E0,9.723032732E0
8.194486667E0,3.971940795E0,-4.798779480E0,1.403281471E0,6.385436325E0
8.204512667E0,1.698322032E0,-1.551011959E0,1.375088243E0,2.679702128E0
8.214538667E0,-2.769434291E-1,3.772874969E-1,1.869755817E0,1.927441396E0
8.224564667E0,-1.537478286E0,1.791524895E0,1.403579532E0,2.746531710E0
8.234589667E0,-1.293197403E0,2.126773835E0,8.010732222E-1,2.614812570E0
8.244615667E0,7.356382012E-2,1.182153808E0,3.501827288E-1,1.235122344E0
8.254641667E0,7.571011372E-1,4.938184118E-1,8.173318438E-1,1.218642728E0
8.264667667E0,9.033921871E-1,4.312964737E-1,1.521168355E0,1.821012701E0
8.274692667E0,8.585243087E-1,7.050625259E-1,1.659184864E0,1.996765275E0
8.284718667E0,7.432075681E-1,1.172517012E0,1.332220259E0,1.924048973E0
8.294744667E0,7.017784372E-1,1.740224349E0,7.949745762E-1,2.037856309E0
8.304770667E0,7.115608290E-1,2.078731942E0,3.444174107E-1,2.223975866E0
8.314795667E0,7.369313130E-1,2.234376637E0,-2.500795297E-1,2.366019122E0
8.324821667E0,5.271490029E-1,2.387080767E0,-3.932147276E-1,2.476016656E0
8.334847667E0,1.415831642E-1,2.069980415E0,-4.621118850E-1,2.125655688E0
8.344872667E0,-4.432088600E-1,1.036347054E0,-9.406246251E-1,1.468068116E0
8.354898667E0,-5.494616854E-1,3.554756284E-1,-7.810359836E-1,1.018964314E0
8.364924667E0,-4.562943439E-1,3.272043407E-1,-7.465029126E-1,9.340951811E-1
8.374950667E0,-2.971249478E-1,4.298130351E-1,-1.443234910E0,1.534910253E0
8.384976667E0,3.043032821E-1,2.838992769E-1,-1.786751229E0,1.834578764E0
8.395001667E0,9.718301918E-1,3.687330204E-1,-1.507699878E0,1.831277392E0
8.405027667E0,1.697374929E0,8.779366261E-1,-1.262433155E0,2.290325706E0
8.415053667E0,2.351769139E0,1.204809430E0,-1.568964957E0,3.073114850E0
8.425078667E0,2.426041788E0,8.684547812E-1,-2.370833108E0,3.501534248E0
8.435104667E0,2.502565615E0,9.316298532E-1,-2.502448670E0,3.659647276E0
8.445130667E0,2.585105495E0,1.052998754E0,-2.142648880E0,3.518880649E0
8.455156667E0,2.503133672E0,9.077176648E-1,-1.796995550E0,3.212292413E0
8.465181667E0,2.387125936E0,8.933235741E-1,-1.651141580E0,3.036884219E0
8.475207667E0,2.178571249E0,5.412235433E-1,-1.896655640E0,2.938774954E0
8.485233667E0,2.115666757E0,1.051007777E-1,-2.458788680E0,3.245417350E0
8.495259542E0,1.674602656E0,-1.926669252E-1,-3.023820916E0,3.461922520E0
8.505284542E0,1.784307239E0,-3.121588701E-1,-3.582098157E0,4.014053149E0
8.515310542E0,2.387633913E0,-2.475757885E-1,-4.118633987E0,4.767099264E0
8.525336542E0,3.463672451E0,-1.558154333E-1,-5.311934634E0,6.343339409E0
8.535362542E0,4.300757505E0,3.260424989E-1,-5.497148114E0,6.987235234E0
8.545387542E0,4.909215842E0,6.102668810E-1,-5.825887933E0,7.642891865E0
8.555413542E0,5.334932903E0,3.998641813E-1,-5.294867197E0,7.527085696E0
8.565439542E0,5.681848208E0,-3.039587349E-1,-3.467249778E0,6.663153232E0
8.575465542E0,6.135947653E0,-1.123789240E0,-2.416265974E0,6.689626082E0
8.585490542E0,7.148903505E0,-2.225035710E0,-1.482536532E0,7.632530367E0
8.595516542E0,7.975064206E0,-3.090875616E0,3.988514435E-1,8.562373715E0
8.605542542E0,7.759276806E0,-3.594390466E0,-1.351514462E-1,8.552443234E0
8.615568542E0,4.616750687E0,-4.423852504E0,-4.280384637E0,7.694579295E0
8.625593542E0,-8.312986493E-3,-4.753791588E0,-6.681164260E0,8.199790207E0
8.635619542E0,-3.389331536E0,-4.301474374E0,-5.702870117E0,7.906514885E0
8.645645542E0,-5.163734030E0,-3.754494832E0,-3.645388126E0,7.351818494E0
8.655670542E0,-5.057746814E0,-4.427329259E0,-1.630910068E0,6.916785009E0
8.665696542E0,-2.439734505E0,-6.563271528E0,1.326383130E-1,7.003315681E0
8.675722542E0,-4.405206026E-1,-7.840075386E0,2.479881341E0,8.234722334E0
8.685748542E0,-2.377167982E-1,-7.762033183E0,4.346410811E0,8.899267124E0
8.695773542E0,8.966529787E-2,-6.934608314E0,4.358497006E0,8.191051732E0
8.705799542E0,7.652119562E-1,-5.875068280E0,3.308365141E0,6.785812887E0
8.715825542E0,4.436536869E-1,-4.884071061E0,1.872520527E0,5.249505867E0
8.725851542E0,-2.412736595E-2,-3.121558295E0,9.309667790E-1,3.257515536E0
8.735876542E0,-3.308860400E-1,-1.830645107E0,4.969551507E-1,1.925541872E0
8.745902542E0,-4.522333065E-1,-1.879206818E0,-5.807242624E-1,2.018210568E0
8.755928542E0,-8.662150052E-1,-1.786921967E0,-4.203016618E-1,2.029796059E0
8.765954542E0,-4.383695582E-1,-1.028164460E0,3.847318795E-1,1.182078105E0
8.775979542E0,-6.404250652E-2,-2.431295657E-1,4.167667276E-1,4.867318909E-1
8.786005542E0,-5.182226434E-1,5.596370101E-2,1.167017413E0,1.278129996E0
8.796031542E0,-2.595023543E-1,5.655339271E-1,3.070703892E0,3.133112268E0
8.806057542E0,-3.072548103E-1,8.795054340E-1,3.835068586E0,3.946604412E0
8.816082542E0,-7.088260862E-1,7.894904727E-1,3.750315534E0,3.897511544E0
8.826108542E0,-1.241112745E0,8.235054803E-1,3.936044153E0,4.208439818E0
8.836134542E0,-1.761984762E0,7.064775521E-1,4.453096769E0,4.840844107E0
8.846160542E0,-1.392772562E0,7.581692773E-1,4.379398463E0,4.657656810E0
8.856185542E0,-1.075319331E0,8.258449513E-1,4.327608797E0,4.535033566E0
8.866211542E0,-1.166133899E0,7.639971972E-1,4.045994612E0,4.279442999E0
8.876237542E0,-1.796920414E0,4.497678280E-1,3.865741618E0,4.286627150E0
8.886262542E0,-2.398939212E0,2.634071249E-1,4.121331600E0,4.775946693E0
8.896288542E0,-2.632674349E0,4.039601558E-1,4.695537240E0,5.398354195E0
8.906314542E0,-2.557677669E0,8.201228660E-1,4.736493185E0,5.445060538E0
8.916340542E0,-2.851590887E0,1.426714772E0,4.494069963E0,5.510331248E0
8.926365542E0,-3.363589169E0,2.109689441E0,4.657550511E0,6.120236793E0
8.936391542E0,-3.867388486E0,2.772454963E0,4.632160147E0,6.640791206E0
8.946417542E0,-4.231896308E0,3.347192407E0,4.356373882E0,6.934741291E0
8.956443542E0,-4.477748045E0,3.786610664E0,4.390215227E0,7.325478661E0
8.966468542E0,-3.826330799E0,3.971427117E0,4.128789139E0,6.889117540E0
8.976494542E0,-2.739896204E0,4.051587766E0,3.137352210E0,5.810798011E0
8.986520542E0,-2.207635858E0,3.850199718E0,2.590451605E0,5.138884458E0
8.996546542E0,-1.856911677E0,3.903659642E0,1.950751594E0,4.742584881E0
9.006571542E0,-1.677384322E0,4.519088445E0,1.317025099E0,4.997032484E0
9.016597542E0,-1.123837480E0,4.893013793E0,1.203734127E0,5.162709609E0
9.026623542E0,-7.535108006E-1,4.836068344E0,3.721454555E-1,4.908546404E0
9.036649542E0,-3.656886676E-1,4.829178570E0,-5.316879040E-1,4.872102820E0
9.046674542E0,-1.514706597E-1,4.532284441E0,-1.738601162E0,4.856673719E0
9.056700542E0,6.446409076E-2,3.930676702E0,-3.444140705E0,5.226517019E0
9.066726542E0,7.304236543E-1,3.020608456E0,-5.126177949E0,5.994605452E0
9.076752542E0,1.888698603E0,1.526315074E0,-6.847337451E0,7.265180678E0
9.086777542E0,3.132491419E0,-1.015960736E0,-8.566329975E0,9.177509899E0
9.096803542E0,4.242571278E0,-5.158576786E0,-9.908932550E0,1.194978116E1
9.106829542E0,4.855110094E0,-1.061349865E1,-1.285309217E1,1.736146382E1
9.116855542E0,5.272326765E0,-1.697922199E1,-1.770851012E1,2.509348002E1
9.126880542E0,7.813368228E0,-2.214504056E1,-1.040805439E1,2.568616632E1
9.136906542E0,4.101201975E0,-1.489311087E1,1.483054800E1,2.141424206E1
9.146932542E0,-3.355652744E0,1.510674942E0,2.179091213E1,2.209946595E1
9.156958542E0,-8.495827757E0,6.194033893E0,6.351899360E0,1.228380115E1
9.166983542E0,-1.244908114E1,7.288982327E0,-4.595698372E0,1.514032127E1
9.177009542E0,-1.011606315E1,8.119309754E0,-6.687866923E-1,1.298865659E1
9.187035542E0,-3.493462553E0,6.817628333E0,8.643761144E0,1.154984603E1
9.197061542E0,-2.194999148E0,4.104869934E0,7.780776433E0,9.066888128E0
9.207086542E0,-2.569981087E0,9.848535490E-1,6.621271230E0,7.170493149E0
9.217112542E0,-4.070684187E0,-3.320491097E0,7.344214541E0,9.029596785E0
9.227138542E0,-3.397819647E0,-6.181633703E0,7.871086094E0,1.056937888E1
9.237163542E0,-7.800556979E-1,-7.380121123E0,7.941248589E0,1.086913538E1
9.247189542E0,1.069317749E0,-7.801969081E0,6.650809025E0,1.030763904E1
9.257215542E0,2.262108226E0,-8.074255203E0,3.883011954E0,9.240590487E0
9.267241542E0,3.850921557E0,-6.001350596E0,-3.023734378E0,7.745242114E0
9.277266542E0,1.751974621E0,-1.998621579E0,-3.281619977E0,4.222905749E0
9.287292542E0,-1.807208297E0,4.205832052E-1,3.179267975E0,3.681118977E0
9.297318542E0,-2.983232469E0,1.940503179E0,5.101985679E0,6.220569622E0
9.307344542E0,-2.748289005E0,2.209937029E0,3.207975465E0,4.767391395E0
9.317369542E0,-1.679338754E0,1.653135334E0,-6.920330290E-1,2.456001791E0
9.327395542E0,1.072683406E-1,9.147366625E-1,-1.815893898E0,2.036104198E0
9.337421542E0,1.649936323E0,2.674346870E-1,-3.958097219E-1,1.717695117E0
9.347447542E0,2.202937181E0,-3.122863394E-1,-4.221558139E-2,2.225362249E0
9.357472542E0,2.597559772E0,-4.040659904E-1,-2.399416637E-1,2.639726898E0
9.367498542E0,2.540160288E0,5.862289774E-1,-3.416294217E-2,2.607152816E0
9.377524542E0,1.730465931E0,1.562466069E0,9.179306310E-2,2.333289207E0
9.387550542E0,1.106203593E0,2.722763570E0,4.381564637E-1,2.971381654E0
9.397575542E0,6.587867841E-1,3.738919019E0,3.861933911E-1,3.816105448E0
9.407601542E0,1.922944576E-2,3.753865671E0,-1.625104952E-1,3.757430892E0
9.417627542E0,-2.698164041E-1,2.831781397E0,-5.930234420E-1,2.905763854E0
9.427653542E0,2.835080981E-1,1.632965364E0,-8.637413406E-1,1.868957417E0
9.437678542E0,7.453100806E-1,7.641498095E-1,-9.352826089E-1,1.419213024E0
9.447704542E0,1.084007124E0,2.986494631E-1,-7.106022511E-1,1.330119733E0
9.457730542E0,1.489502466E0,6.471166188E-1,-6.948263901E-1,1.766397811E0
9.467756542E0,1.548436845E0,8.205748558E-1,-1.512179430E0,2.314667662E0
9.477781542E0,1.594527230E0,2.961807686E-1,-2.297434765E0,2.812196051E0
9.487806583E0,1.625536476E0,-1.203409606E-1,-2.218221949E0,2.752700383E0
9.497832583E0,1.990025003E0,-1.083623546E-1,-1.687265532E0,2.611284528E0
9.507858583E0,2.605661967E0,5.627155691E-1,-8.740524669E-1,2.805368213E0
9.517883583E0,3.217612846E0,1.566027609E0,-2.902682103E-1,3.590227086E0
9.527909583E0,3.013311131E0,2.298747464E0,-9.311392719E-1,3.902730355E0
9.537935583E0,2.831095811E0,1.467636511E0,-1.546755917E0,3.544222663E0
9.547961583E0,2.044979767E0,1.299414455E0,-1.602475058E0,2.904883214E0
9.557986583E0,1.417657143E0,7.218060279E-1,-1.622488323E0,2.272272887E0
9.568012583E0,5.875507405E-1,-2.543293226E-1,-1.967111519E0,2.068677598E0
9.578038583E0,-3.406659468E-1,-7.474951851E-1,-3.094727762E0,3.201896666E0
9.588063583E0,-6.579969715E-1,-1.155043193E0,-5.083727163E0,5.254651907E0
9.598089583E0,8.157685907E-1,-1.433828495E0,-6.045055609E0,6.266102446E0
9.608115583E0,2.394127246E0,-1.087606085E0,-5.507969556E0,6.103479409E0
9.618141583E0,3.285981415E0,-7.755676675E-1,-4.673525397E0,5.765502467E0
9.628166583E0,3.667083051E0,-8.809935504E-1,-4.183352724E0,5.632414025E0
9.638192583E0,3.800426172E0,-9.987143737E-1,-4.240443476E0,5.781178977E0
9.648218583E0,3.860311893E0,-1.205119332E0,-4.770684779E0,6.254098958E0
9.658244583E0,4.311462588E0,-1.665534355E0,-5.099224039E0,6.882208957E0
9.668269583E0,5.604027615E0,-2.371178679E0,-3.376239620E0,6.958922891E0
9.678295583E0,6.103609042E0,-3.535340019E0,-1.006864881E0,7.125057844E0
9.688321583E0,6.078551969E0,-4.446130981E0,-8.307965197E-2,7.531518902E0
9.698347583E0,4.669610394E0,-4.615917166E0,-1.042056275E0,6.648145140E0
9.708372583E0,1.100209758E1,1.174701999E1,-4.854595247E0,1.681088115E1
9.718398583E0,4.369536549E0,-1.751714712E0,-8.024479026E0,9.303419679E0
9.728424583E0,-5.529087652E-1,-6.822703716E0,-1.882281868E0,7.099153410E0
9.738450583E0,-4.196084744E-1,-3.791177339E0,-1.384194989E0,4.057720130E0
9.748475583E0,-4.044679865E-1,-8.225654819E0,-3.434498938E0,8.923047378E0
9.758501583E0,-5.465032867E-1,-1.259810679E1,-7.282813807E-1,1.263096807E1
9.768527583E0,-2.589195330E0,-1.107753134E1,2.429671154E0,1.163266672E1
9.778553583E0,-4.285010661E0,-7.036616499E0,3.968805810E0,9.144763949E0
9.788578583E0,-5.199459933E0,-6.140691499E0,4.336140469E0,9.140272964E0
9.798604583E0,-7.178626072E0,-8.556092085E0,3.700291142E0,1.176569329E1
9.808630583E0,-7.820435758E0,-8.794331625E0,2.975298382E0,1.213885846E1
9.818656583E0,-7.129747442E0,-5.337146659E0,3.004037739E0,9.399078454E0
9.828681583E0,-3.309403022E0,-8.454787320E-1,2.987131685E0,4.537613729E0
9.838707583E0,-1.668979242E0,-1.880897833E0,2.712188003E0,3.698544597E0
9.848733583E0,-1.277482426E0,-3.451893820E0,2.223796685E0,4.300326033E0
9.858759583E0,-1.032304289E0,-3.956736572E0,1.802061578E0,4.468651069E0
9.868784583E0,-4.654842666E-1,-3.688877378E0,1.221171986E0,3.913534582E0
9.878810583E0,5.930310434E-1,-2.840019540E0,1.753285275E0,3.389897647E0
9.888836583E0,2.342641635E0,-9.887594891E-1,2.662911178E0,3.681943930E0
9.898862583E0,3.467251240E0,5.743953824E-2,1.962721429E0,3.984646267E0
9.908887583E0,2.149192645E0,-2.293997186E0,8.381802374E-1,3.253305738E0
9.918913583E0,2.936206237E0,-1.310538198E0,2.749560190E0,4.230709004E0
9.928939583E0,3.929551697E0,3.580639569E0,4.964060971E0,7.273531301E0
9.938965583E0,3.706244777E0,5.200428232E0,5.344710617E0,8.327462742E0
9.948990583E0,1.665611392E0,4.856517227E0,5.284522303E0,7.367916724E0
9.959016583E0,-1.291960132E0,4.074131706E0,5.140808267E0,6.685478276E0
9.969042583E0,-2.403920455E0,4.268197870E0,5.288379126E0,7.208557442E0
9.979067583E0,-3.262901285E0,4.524735686E0,5.036026163E0,7.515405334E0
9.989093583E0,-3.998418157E0,4.837821924E0,4.590893422E0,7.776128287E0
9.999119583E0,-4.348444473E0,5.677004374E0,4.529550283E0,8.464878839E0
1.000914558E1,-4.953257656E0,5.902713915E0,4.515659053E0,8.931291600E0
1.001917158E1,-5.529373289E0,4.906720251E0,4.272326589E0,8.538304695E0
1.002919658E1,-4.943584607E0,4.823909644E0,4.356575026E0,8.166325916E0
1.003922258E1,-4.057024799E0,5.105547218E0,4.067364138E0,7.685669369E0
1.004924858E1,-2.924220030E0,5.765354049E0,3.533241454E0,7.367100193E0
1.005927358E1,-1.771563671E0,6.115325108E0,3.271474473E0,7.158085236E0
1.006929958E1,-1.350312129E0,5.108810549E0,3.401637586E0,6.284459113E0
1.007932558E1,-1.360359838E0,4.285933059E0,3.357408078E0,5.611772454E0
1.008935158E1,-1.627682112E-1,4.985424943E0,3.147279612E0,5.897993244E0
1.009937658E1,2.499171598E-1,3.896480430E0,2.732748275E0,4.765808585E0
1.010940258E1,6.466133197E-1,1.414603434E0,1.796467547E0,2.376238058E0
1.011942858E1,1.189879149E0,1.792534125E-1,4.459881878E-1,1.283296396E0
1.012945458E1,1.719437351E0,-1.223401237E-1,-8.719528779E-1,1.931769586E0
1.013947958E1,2.165575520E0,-3.934415996E-1,-2.888361395E0,3.631410907E0
1.014950558E1,1.860623343E0,-1.143963888E0,-6.160694824E0,6.536415938E0
1.015953158E1,2.592635540E0,-2.136171480E0,-8.422656870E0,9.067862834E0
1.016955758E1,4.070057366E0,-3.260425574E0,-8.629706191E0,1.008303381E1
1.017958258E1,4.719737112E0,-3.306418603E0,-7.023079026E0,9.084710308E0
1.018960858E1,3.376573204E0,-2.980506497E0,-5.883973589E0,7.409845530E0
1.019963458E1,1.921343608E0,-1.612394274E0,-5.209158125E0,5.781583254E0
1.020966058E1,-5.866701499E-2,1.244047755E-1,-4.425976798E0,4.428113479E0
1.021968558E1,-2.646659719E0,-6.341609430E-1,-4.091212007E0,4.913754518E0
1.022971158E1,-3.928972823E0,-2.570549437E0,-4.785547816E0,6.704179275E0
1.023973758E1,-3.627719595E0,-3.472212310E0,-4.540340150E0,6.769881569E0
1.024976358E1,-2.585641100E0,-3.294219557E0,-4.623276472E0,6.237957016E0
1.025978858E1,-4.727082676E0,-4.979236835E0,-5.616451778E0,8.870323594E0
1.026981458E1,-7.728623362E0,-8.263699143E0,-3.247994686E0,1.177156795E1
1.027984058E1,-3.777624955E0,-9.341604112E0,-6.009675862E0,1.173252836E1
1.028986658E1,4.008404616E0,-6.490292430E0,7.672259712E0,1.081918539E1
1.029989158E1,3.207527861E0,-1.573706757E0,2.067261342E1,2.097907848E1
1.030991758E1,-1.033722092E0,-4.481241757E-1,1.178503859E1,1.183877237E1
1.031994358E1,-4.798759600E0,-2.444117432E0,3.934381205E0,6.669419704E0
1.032996958E1,-4.142640608E0,-2.045758908E0,7.199250371E0,8.554285863E0
1.033999458E1,-1.522558676E0,-3.038284004E0,9.484265649E0,1.007475307E1
1.035002058E1,6.649462411E-1,-4.473204174E0,1.008075064E1,1.104867606E1
1.036004658E1,2.678982543E0,-5.311430020E0,6.221481893E0,8.607849515E0
1.037007258E1,4.325267279E0,-5.851071891E0,-7.413304657E-2,7.276570279E0
1.038009758E1,3.958404198E0,-6.131323090E0,4.932842687E-1,7.314739640E0
1.039012358E1,4.378604411E0,-6.335956342E0,3.135232594E0,8.315419579E0
1.040014958E1,4.392977744E0,-6.523036838E0,1.984702867E0,8.110937585E0
1.041017558E1,3.294092672E0,-8.189248300E0,-8.765514207E-1,8.870353806E0
1.042020058E1,1.637577355E0,-9.691374612E0,1.470434403E-1,9.829853674E0
1.043022658E1,2.341014647E-1,-1.074464702E1,1.904495587E0,1.091463909E1
1.044025258E1,-1.403755095E0,-1.066672702E1,2.497938128E0,1.104487612E1
1.045027858E1,-1.757340903E0,-8.684022147E0,1.548688568E0,8.994382913E0
1.046030358E1,-2.547399725E0,-6.760849530E0,9.535507724E-2,7.225470526E0
1.047032958E1,-2.895756661E0,-5.199059983E0,-2.550816253E0,6.474742845E0
1.048035558E1,-2.409306618E0,-1.535506312E0,-4.584339863E0,5.401732129E0
1.049038229E1,-1.548063793E0,-5.338788557E-1,-3.682343699E0,4.030035143E0
1.050040729E1,-2.787692222E0,-2.401782421E0,-1.440170385E0,3.951439922E0
1.051043329E1,-6.032051402E0,-2.912985774E0,-1.203621202E0,6.805867633E0
1.052045929E1,-6.327116522E0,-1.579428842E0,-3.087653800E0,7.215303523E0
1.053048529E1,-6.033613778E0,-6.066702586E-1,-4.133567483E0,7.338863956E0
1.054051029E1,-5.890703149E0,2.293497249E0,-5.775065689E0,8.562236679E0
1.055053629E1,-7.469682341E0,1.322627901E0,-3.743707888E0,8.459364491E0
1.056056229E1,-7.489948205E0,-2.822912925E-1,-2.060418097E-1,7.498097473E0
1.057058729E1,-9.352359481E0,-5.933120021E0,-1.519253976E0,1.117929665E1
1.058061329E1,-7.761582947E0,-2.846633325E0,-6.062089718E0,1.025155710E1
1.059063929E1,-5.658475133E0,2.247917619E0,-4.368452475E0,7.493654080E0
1.060066529E1,-2.701934034E0,3.335937102E0,-9.920368534E0,1.080937721E1
1.061069029E1,-7.172822710E0,9.622365189E-1,2.269539453E0,7.584595842E0
1.062071629E1,-7.471878555E0,1.059940569E0,6.565000550E0,1.000258343E1
1.063074229E1,2.772047412E0,1.249791475E0,6.987336166E0,7.620307886E0
1.064076829E1,3.970583071E0,1.613275450E0,6.473344860E0,7.763528919E0
1.065079329E1,8.564186971E0,1.831364899E0,-4.846499777E0,1.000938340E1
1.066081929E1,1.249245228E1,1.698223214E0,-1.443190121E1,1.916311818E1
1.067084529E1,1.095305815E1,4.191298213E0,-1.459704997E1,1.872459162E1
1.068087129E1,1.114395454E1,4.520432135E0,-6.339678680E0,1.359461494E1
1.069089629E1,1.349782488E1,3.162602241E0,-5.986706829E0,1.510079429E1
1.070092229E1,1.211097291E1,4.191706933E0,-6.558357528E0,1.439646225E1
1.071094829E1,1.140044266E1,4.407644023E0,-6.190681100E0,1.370116605E1
1.072097429E1,9.517973093E0,3.961174024E0,-5.939092952E0,1.189771140E1
1.073099929E1,8.525564357E0,3.653753738E0,-4.215153683E0,1.018836025E1
1.074102529E1,9.377278560E0,3.497914331E0,-1.358942619E0,1.010027143E1
1.075105129E1,9.269198626E0,3.405962772E0,1.185345803E0,9.946037917E0
1.076107729E1,9.503739801E0,1.916709689E0,2.973355352E0,1.014079328E1
1.077110229E1,8.861022627E0,3.635985804E-1,4.775444412E0,1.007247712E1
1.078112829E1,6.508160936E0,-5.963084078E-1,6.973786413E0,9.557480810E0
1.079115429E1,5.083599694E0,-1.875338885E0,1.098372329E1,1.224753278E1
1.080118029E1,3.849933085E0,-2.891122158E0,1.446552737E1,1.524572249E1
1.081120529E1,2.297106151E0,-3.110895021E0,1.696278079E1,1.739799692E1
1.082123129E1,1.197790432E-1,-4.206312109E0,1.564938623E1,1.620526760E1
1.083125729E1,-1.100642452E0,-5.571476750E0,1.470756936E1,1.576595584E1
1.084128329E1,-2.964101549E0,-5.386013010E0,1.589135922E1,1.703908248E1
1.085130829E1,-4.046049283E0,-5.789502465E0,1.565222564E1,1.717210008E1
1.086133429E1,-4.502081233E0,-5.985222221E0,1.493352916E1,1.670634351E1
1.087136029E1,-3.569308249E0,-6.671925659E0,1.389083028E1,1.581801881E1
1.088138629E1,-4.095245417E0,-7.002376374E0,1.290629715E1,1.524391079E1
1.089141129E1,-5.231268201E0,-7.239858114E0,1.147229558E1,1.453943872E1
1.090143729E1,-5.270572600E0,-7.651181084E0,1.017250866E1,1.377677175E1
1.091146329E1,-5.292585613E0,-7.688004509E0,9.300851358E0,1.317659712E1
1.092148929E1,-5.849101964E0,-7.549857023E0,7.603598197E0,1.220766318E1
1.093151429E1,-5.704176385E0,-7.315138092E0,5.799928050E0,1.094020287E1
1.094154029E1,-4.649255651E0,-7.238548923E0,4.757813303E0,9.831020092E0
1.095156629E1,-3.143680651E0,-7.551617619E0,3.920238252E0,9.070717979E0
1.096159229E1,-2.845891314E0,-7.436290061E0,2.405350977E0,8.317645134E0
1.097161729E1,-3.192247040E0,-6.912699966E0,1.406494516E0,7.743002571E0
1.098164329E1,-3.327274452E0,-6.718067792E0,1.233730343E0,7.597715492E0
1.099166929E1,-2.996511496E0,-7.029740174E0,1.286937667E0,7.749357174E0
1.100169529E1,-2.430656556E0,-7.267524800E0,8.615942430E-1,7.711507806E0
1.101172029E1,-1.160186403E0,-7.079156163E0,8.267752433E-1,7.221083144E0
1.102174629E1,-2.957012969E-1,-6.762132994E0,9.831251121E-1,6.839621106E0
1.103177229E1,-3.012669691E-1,-6.832786070E0,3.545125920E-1,6.848606168E0
1.104179829E1,-5.019609520E-1,-6.861176056E0,-8.661509782E-1,6.933824283E0
1.105182329E1,-9.241144270E-2,-6.652812281E0,-1.755525343E0,6.881156905E0
1.106184929E1,9.261831719E-1,-6.265678073E0,-2.390041797E0,6.769699902E0
1.107187529E1,1.667010485E0,-5.775461546E0,-2.782581171E0,6.624019776E0
1.108190129E1,1.989803101E0,-5.378465424E0,-2.535484269E0,6.270238207E0
1.109192629E1,2.382130514E0,-5.749366007E0,-2.189487562E0,6.597242685E0
1.110195229E1,2.327140813E0,-5.763636137E0,-1.919719251E0,6.505413736E0
1.111197829E1,1.615313643E0,-5.219577863E0,-1.960354477E0,5.804844607E0
1.112200429E1,1.515054945E0,-5.064826623E0,-2.171312662E0,5.715107950E0
1.113202929E1,1.661878968E0,-5.059697446E0,-2.177945158E0,5.753766163E0
1.114205529E1,1.324750148E0,-4.749459971E0,-2.661223964E0,5.603074688E0
1.115208129E1,1.677763076E0,-5.188737894E0,-2.981506371E0,6.215084079E0
1.116210729E1,1.324770175E0,-5.305482817E0,-2.744679519E0,6.118531654E0
1.117213229E1,9.530967361E-1,-5.034425195E0,-2.483308979E0,5.693913761E0
1.118215829E1,1.793658398E0,-5.243542092E0,-3.020831235E0,6.311684836E0
1.119218429E1,2.335733588E0,-4.334386012E0,-3.402270255E0,5.984813814E0
1.120221029E1,2.863478569E0,-3.248667993E0,-3.376223833E0,5.491105591E0
1.121223529E1,5.928874943E0,-3.234420083E0,-1.741140608E0,6.974568228E0
1.122226129E1,8.285264844E0,-3.149115053E0,-8.103667867E-1,8.900518720E0
1.123228729E1,3.756611231E0,-2.538310229E0,-2.211300015E0,5.044303175E0
1.124231329E1,4.283298889E-1,-1.933608143E0,-3.061334898E0,3.646104538E0
1.125233829E1,-4.097012445E-1,-1.895528151E0,-2.948597072E0,3.529179334E0
1.126236429E1,4.150163636E-1,-1.600771179E0,-2.342829623E0,2.867674597E0
1.127239029E1,1.225602567E0,-9.118563241E-1,-1.726171151E0,2.305048904E0
1.128241629E1,1.514175085E0,-7.732942700E-1,-1.509004977E0,2.273280941E0
1.129244129E1,1.617501233E0,-7.115236992E-1,-1.621445764E0,2.398262408E0
1.130246729E1,1.423746141E0,-4.609629071E-1,-1.658543424E0,2.233899318E0
1.131249329E1,1.721490455E0,-3.851560950E-1,-1.836169556E0,2.546250821E0
1.132251929E1,2.498239844E0,-2.523927248E-1,-2.261465617E0,3.379220494E0
1.133254429E1,2.711728120E0,1.184406155E-1,-1.783534091E0,3.247844120E0
1.134257029E1,2.168106633E0,2.806868166E-1,-8.254239517E-1,2.336834646E0
1.135259629E1,1.021866716E0,-1.868711650E-1,5.167184472E-2,1.040097302E0
1.136262229E1,1.121316160E-1,-5.025892353E-1,4.318314940E-1,6.720475266E-1
1.137264729E1,7.418567151E-2,-2.721680081E-1,8.285136205E-1,8.752221191E-1
1.138267329E1,7.822978127E-1,-1.879949999E-1,4.085624993E-1,9.023609608E-1
1.139269929E1,9.056946744E-1,-8.852742970E-2,-3.708655000E-2,9.107663593E-1
1.140272529E1,2.914454010E-1,-1.105492133E-1,-6.232465303E-1,6.968484684E-1
1.141275029E1,-1.941800384E-1,-4.015347308E-1,-9.699302852E-1,1.067567696E0
1.142277629E1,-4.802633965E-1,-3.743884474E-1,-9.392750877E-1,1.119400433E0
1.143280229E1,-2.932480976E-1,-5.314300418E-1,-5.802174550E-1,8.396812676E-1
1.144282829E1,4.315527280E-1,-6.684659725E-1,-7.124598384E-2,7.988494875E-1
1.145285329E1,1.310485427E0,-6.145254081E-1,1.665620309E-1,1.456968237E0
1.146287929E1,1.613350002E0,-5.124020326E-1,9.430155516E-2,1.695389883E0
1.147290529E1,1.311655163E0,-3.945642650E-1,5.403938234E-2,1.370780974E0
1.148293129E1,9.698482780E-1,-1.881060970E-1,-6.393053234E-2,9.899882318E-1
1.149295567E1,8.302015655E-1,-1.286124319E-1,-2.054050845E-1,8.648508806E-1
1.150298167E1,7.545096512E-1,-1.494647723E-1,-2.195114923E-1,7.998811332E-1
1.151300767E1,8.277121134E-1,-8.984188378E-2,-3.943946958E-2,8.335072756E-1
1.152303367E1,1.171015885E0,-2.374086499E-1,-3.085400283E-2,1.195237650E0
1.153305867E1,9.902692401E-1,-1.940398514E-1,-1.501067966E-1,1.020204236E0
1.154308467E1,3.706397974E-1,-1.331498712E-1,-2.882554525E-1,4.880511792E-1
1.155311067E1,1.555311124E-1,-1.552839214E-1,-2.912205756E-1,3.648457849E-1
1.156313667E1,4.964429346E-1,-8.106696725E-2,-1.635074455E-1,5.289254439E-1
1.157316167E1,1.020594655E0,-7.407954454E-2,2.994593024E-2,1.023717728E0
1.158318767E1,1.555351470E0,-1.696856135E-1,2.961965561E-1,1.592370498E0
1.159321367E1,1.454565645E0,-9.254855990E-2,3.109789020E-1,1.490313500E0
1.160323967E1,8.315991962E-1,2.300703943E-2,9.320169389E-2,8.371219163E-1
1.161326467E1,5.146938488E-1,9.304849684E-2,-1.417657435E-1,5.419089469E-1
1.162329067E1,6.884840615E-1,1.133354115E-1,-4.917315406E-1,8.536129840E-1