"Time (s)","Linear Acceleration x (m/s^2)","Linear Acceleration y (m/s^2)","Linear Acceleration z (m/s^2)","Absolute acceleration (m/s^2)"
8.151833434E-3,-9.270862743E-2,1.754924834E-1,-2.139601457E0,2.148787308E0
1.817883342E-2,-2.858883534E-1,2.708079457E-2,-2.122428769E0,2.141767822E0
2.820483339E-2,-7.113646549E-1,4.323899031E-2,-1.263699077E0,1.450808272E0
3.823183337E-2,-7.496370202E-1,-4.396346033E-2,4.578252912E-2,7.523194055E-1
4.825883335E-2,-1.995743872E-1,-1.120420074E-1,1.258902022E0,1.279538060E0
5.828483345E-2,5.390406315E-1,1.011351961E-1,2.005531819E0,2.079170750E0
6.831183343E-2,1.087589274E0,3.751251966E-1,1.986990298E0,2.296018246E0
7.833783340E-2,1.166560015E0,6.816637230E-1,1.478508239E0,2.002876509E0
8.836483338E-2,1.120582627E0,9.091970104E-1,8.499208617E-1,1.674726873E0
9.839183337E-2,9.471933872E-1,1.065132896E0,1.636542106E-1,1.434735551E0
1.084178333E-1,5.165725592E-1,9.509081233E-1,-7.704279649E-1,1.328394790E0
1.184448334E-1,-8.703112721E-2,3.204870594E-1,-1.450570242E0,1.488099594E0
1.284708334E-1,-1.795646305E-1,1.516785282E-1,-2.210018306E0,2.222483013E0
1.384978334E-1,-4.820729636E-1,9.111716151E-2,-3.284265257E0,3.320706997E0
1.485248334E-1,-7.081100947E-1,-2.076141626E-2,-4.040110851E0,4.101749216E0
1.585508334E-1,-8.599943718E-1,3.879738683E-1,-4.262136061E0,4.365308448E0
1.685778333E-1,7.746740668E-1,8.080416414E-1,-4.520881201E0,4.657404646E0
1.786038334E-1,2.478227749E0,4.998723266E-1,-3.499857361E0,4.317462989E0
1.886308334E-1,5.509863469E-1,2.680027440E-1,-7.090830714E-1,9.371287144E-1
1.986578334E-1,6.348519377E-1,4.434016719E-1,1.499030212E0,1.687226600E0
2.086838334E-1,3.400397100E-1,-5.658318427E-1,2.505148914E0,2.590668594E0
2.187108333E-1,2.173708631E-1,-1.500560136E0,2.029490200E0,2.533330078E0
2.287368334E-1,6.207685534E-2,-1.477980528E0,1.717861673E0,2.267008757E0
2.387638334E-1,-8.533103465E-1,-1.242978299E0,1.582236675E0,2.185544897E0
2.487908334E-1,-1.868102078E0,-1.204808845E0,2.011383712E-1,2.232000531E0
2.588168334E-1,-2.000080021E0,-1.408302767E0,1.736634743E-1,2.452304177E0
2.688438334E-1,-8.549262245E-1,-1.533731682E0,-6.958876598E-1,1.888780389E0
2.788698334E-1,-4.892062743E-1,-1.456638483E0,-9.490270740E-1,1.806037330E0
2.888968334E-1,-3.190435280E-1,-1.082829494E0,-6.653745496E-1,1.310355592E0
2.989228334E-1,1.944412628E-1,-1.052063200E0,-2.352112663E-1,1.095430838E0
3.089498334E-1,7.912377669E-1,-1.189959841E0,-4.514740455E-1,1.498629521E0
3.189768334E-1,1.139599527E0,-8.412392083E-1,-1.219123998E0,1.868858959E0
3.290028333E-1,1.251724272E0,-2.867495021E-1,-2.406074862E0,2.727312811E0
3.390298334E-1,1.625715986E0,2.281374510E-1,-2.651251538E0,3.118354354E0
3.490558334E-1,1.223326100E0,3.427336684E-1,-2.023170530E0,2.388977209E0
3.590828334E-1,1.009090258E0,1.936056957E-2,-1.270773039E0,1.622806857E0
3.691098334E-1,9.613761011E-1,-5.635857810E-1,-8.979265022E-1,1.431134146E0
3.791358334E-1,-4.058569926E-1,-1.533543840E0,-2.150419976E0,2.672224295E0
3.891628333E-1,-1.755264265E0,-2.365442560E0,-3.695273062E0,4.725601988E0
3.991888334E-1,-2.370734290E0,-3.054053945E0,-4.744067084E0,6.119950904E0
4.092158334E-1,-2.020630207E0,-3.530928588E0,-4.924348437E0,6.387457291E0
4.192428334E-1,-1.451018431E0,-3.795197884E0,-4.968858027E0,6.418608226E0
4.292688334E-1,-5.524288550E-1,-3.983476182E0,-4.895329875E0,6.335417485E0
4.392958333E-1,7.177664790E-1,-3.646338299E0,-4.283397122E0,5.670843201E0
4.493218334E-1,9.560791084E-1,-2.628387170E0,-4.720053738E0,5.486475524E0
4.593488334E-1,-3.495281330E-1,-2.534430016E0,-6.131748183E0,6.644083172E0
4.693758334E-1,-1.902106268E0,-3.726812943E0,-6.131343555E0,7.422972233E0
4.794018334E-1,-3.053146457E0,-5.432904171E0,-4.956287683E0,7.962596223E0
4.894288334E-1,-3.822681552E0,-6.666186032E0,-3.575508637E0,8.475564434E0
4.994548333E-1,-3.910720739E0,-7.362183035E0,-3.259719231E0,8.951047157E0
5.094818334E-1,-3.536653889E0,-7.514895351E0,-3.714898072E0,9.098463637E0
5.195088334E-1,-2.896286711E0,-6.827104915E0,-4.351372173E0,8.598388107E0
5.295348334E-1,-3.445376514E0,-6.731522820E0,-4.039293995E0,8.573209129E0
5.395618334E-1,-4.737557378E0,-7.421425855E0,-3.564074991E0,9.498665284E0
5.495878333E-1,-5.633256676E0,-8.616648774E0,-3.383492507E0,1.083643107E1
5.596148334E-1,-4.238636101E0,-8.603306013E0,-3.850379813E0,1.033481181E1
5.696418334E-1,-1.103708147E0,-6.752321366E0,-2.526489497E0,7.293501538E0
5.796678334E-1,2.889806827E0,-3.715449757E0,2.351945432E0,5.261862570E0
5.896948334E-1,4.366515293E0,-1.524310648E0,6.504232777E0,7.980916161E0
5.997208334E-1,4.531554708E0,-1.577373838E0,6.007835158E0,7.688769706E0
6.097478333E-1,3.522560345E0,-2.461098623E0,4.352587225E0,6.116408535E0
6.197748334E-1,2.802687991E0,-2.823476889E0,3.194339466E0,5.102047270E0
6.298008334E-1,5.201215267E0,-1.683525653E0,3.489059892E0,6.485401901E0
6.398278334E-1,9.334820173E0,7.864032890E-1,6.518948464E0,1.141288688E1
6.498538334E-1,1.161444023E1,3.183196719E0,9.877841735E0,1.557561300E1
6.598808334E-1,1.152061697E1,3.565225139E0,6.369901768E0,1.363858843E1
6.699078333E-1,1.348234145E1,4.084160850E0,6.488049438E0,1.550963205E1
6.799338334E-1,1.173506711E1,4.289454253E0,5.152049539E0,1.351498548E1
6.899608334E-1,1.060975409E1,4.145665957E0,2.738216299E0,1.171542814E1
6.999868334E-1,9.412182344E0,4.146318214E0,5.193871164E-1,1.029810148E1
7.100138334E-1,7.996453906E0,3.930976079E0,-1.712896509E0,9.073580465E0
7.200408333E-1,7.548327976E0,3.597830675E0,-4.250733406E0,9.380318507E0
7.300668334E-1,4.270252581E0,3.488707305E0,-5.704427816E0,7.933891383E0
7.400938334E-1,2.673796062E0,3.475456345E0,-7.878396868E0,9.016491523E0
7.501198334E-1,3.988132027E0,3.888156334E0,-1.019532449E1,1.161755561E1
7.601468334E-1,5.506084998E0,4.913755621E0,-9.961204319E0,1.239707860E1
7.701738334E-1,5.340258547E0,6.379088913E0,-1.003303152E1,1.303352823E1
7.801998334E-1,5.485164245E0,6.856333977E0,-1.011839268E1,1.339694789E1
7.902268334E-1,5.441508349E0,6.258648550E0,-9.935291798E0,1.294182050E1
8.002528334E-1,5.797352352E0,4.559937678E0,-8.412496748E0,1.118804842E1
8.102798334E-1,3.800221227E0,6.531338422E-1,-1.898052832E0,4.297774976E0
8.203058334E-1,2.830403793E0,-2.482077263E0,1.421598312E0,4.024032174E0
8.303328333E-1,3.531362159E0,-2.508215487E0,1.213893518E0,4.498355377E0
8.403598334E-1,8.207652411E0,1.547994211E0,-4.351314286E0,9.417843713E0
8.503858334E-1,9.653274740E0,5.436068099E0,-3.974092863E0,1.176987526E1
8.604128334E-1,1.000941812E1,3.695225407E0,4.906071210E-1,1.068100357E1
8.704388334E-1,4.954728230E0,-3.182203862E-1,2.730191873E0,5.666087161E0
8.804658334E-1,2.283289765E0,-2.386355712E0,8.530888832E-1,3.411138575E0
8.904928333E-1,-4.534896977E0,-7.666239418E0,1.326221366E1,1.597569493E1
9.005188334E-1,-1.018374818E1,-1.033879646E1,1.411381384E1,2.024349724E1
9.105458334E-1,-6.317428270E0,-2.698900206E0,2.010684385E0,7.157989520E0
9.205718334E-1,-1.035023829E0,-3.081684963E0,3.228253609E0,4.581449323E0
9.305985001E-1,1.907024946E0,-3.121427903E0,4.145733200E0,5.528757552E0
9.406255001E-1,2.015898932E0,-1.381544739E0,2.720884275E0,3.657283911E0
9.506515000E-1,1.102340484E-1,-2.490059005E0,2.977940154E-1,2.510224426E0
9.606785000E-1,-2.354394246E0,-4.208768816E0,-1.640650944E0,5.093981030E0
9.707045001E-1,-3.505489399E0,-3.506618204E0,-2.562916481E0,5.581520227E0
9.807315001E-1,-2.913956412E0,-3.036190409E0,-1.345519751E0,4.418146395E0
9.907585001E-1,-2.117181478E0,-2.681740382E0,-4.415501877E-1,3.445164068E0
1.000784500E0,-1.701864860E0,-1.681218634E0,-1.679439619E0,2.922902244E0
1.010811500E0,-1.300393864E0,-5.391559678E-1,-2.004461194E0,2.449403608E0
1.020837500E0,-1.028517047E0,3.062046504E-1,-7.352324045E-1,1.300836382E0
1.030864500E0,-4.479510981E-1,-3.553800264E-1,6.045190315E-1,8.321048064E-1
1.040891500E0,-1.176904178E-1,-1.553721266E0,1.390024663E0,2.088077913E0
1.050917500E0,-1.047867238E0,-1.227432892E0,2.475011780E0,2.954708203E0
1.060944500E0,-3.064283649E0,-1.812347123E0,3.612710377E0,5.072091545E0
1.070970500E0,-3.005422652E0,-1.373757125E0,1.762997354E0,3.745388314E0
1.080997500E0,-3.654583458E0,-2.136916123E-1,-1.974811133E0,4.159509991E0
1.091024500E0,-2.959167084E0,1.434909791E0,-4.174586871E0,5.314396624E0
1.101050500E0,-2.104363212E0,2.790509411E0,-6.051988068E0,6.988694218E0
1.111077500E0,-4.471799673E0,2.615448159E0,-1.441971327E0,5.377438302E0
1.121103500E0,7.202641171E-1,3.913677092E0,-6.135454148E0,7.312964268E0
1.131130500E0,1.772429059E0,8.830972617E0,-8.229128065E0,1.220025126E1
1.141157500E0,-3.021145815E0,9.385530735E0,-4.754715448E0,1.094636141E1
1.151183500E0,2.607006826E0,7.610180992E0,-4.024551410E0,8.994907080E0
1.161210500E0,5.643309209E0,5.181379758E0,9.937892640E-1,7.725364207E0
1.171236500E0,9.642080246E0,2.202694961E0,7.917466793E0,1.266916955E1
1.181263500E0,1.076383290E1,5.926059508E-1,1.704043299E1,2.016401837E1
1.191289500E0,8.835908836E0,4.446354344E-1,1.800548319E1,2.006161535E1
1.201316500E0,9.508242742E0,-1.186057994E-1,1.228634728E1,1.553625042E1
1.211343500E0,9.567836394E0,1.010442134E0,5.320043553E0,1.099396880E1
1.221369500E0,6.652184290E0,2.334159372E0,-2.781155620E0,7.578567304E0
1.231396500E0,5.123266620E0,1.064132438E0,-7.855916077E0,9.439049535E0
1.241422500E0,3.804012562E0,1.600055480E-1,-1.036460724E1,1.104179317E1
1.251449500E0,3.488959320E0,-1.348398335E0,-9.474666860E0,1.018628133E1
1.261476500E0,-3.450415059E0,-7.019080115E0,-1.279012935E0,7.925195507E0
1.271502500E0,-1.249279025E1,-1.198441227E1,7.794102237E0,1.898536213E1
1.281529500E0,-1.491629625E1,-1.397048573E1,3.255920295E0,2.069471870E1
1.291555500E0,-1.493168729E1,-1.245116041E1,-4.173315686E0,1.988474905E1
1.301582500E0,-1.367251863E1,-7.006260095E0,-7.468830986E0,1.708241442E1
1.311609500E0,-1.373805539E1,-3.916585204E0,-7.878521998E0,1.631394847E1
1.321635500E0,-1.294907188E1,-4.660166556E0,-5.320178039E0,1.475465720E1
1.331662500E0,-1.203361542E1,-4.899250433E0,-2.634463012E0,1.325710942E1
1.341688500E0,-1.193932907E1,-6.141165708E0,-2.044283656E0,1.358089064E1
1.351715500E0,-8.938998756E0,-6.461726443E0,-6.638683800E-1,1.104990175E1
1.361742500E0,-3.992068958E0,-4.326698093E0,3.035734764E-1,5.894835689E0
1.371768500E0,-9.867556483E-1,-7.190917504E0,3.246956513E0,7.951459479E0
1.381795500E0,6.683008472E0,-6.504946722E0,9.389686936E0,1.323416619E1
1.391821500E0,1.434773755E1,-2.947104278E0,1.411955815E1,2.034465332E1
1.401848500E0,1.677810584E1,3.174365669E-1,1.294257913E1,2.119235608E1
1.411875500E0,1.205143656E1,-1.178144957E0,8.902034998E0,1.502901780E1
1.421901500E0,1.338843985E1,-9.654302680E-1,-2.159370747E0,1.359578093E1
1.431928500E0,1.076589229E1,-6.198264939E-1,-1.080254308E0,1.083769215E1
1.441954500E0,9.503611747E0,-4.631836796E-1,-3.391340640E0,1.010120620E1
1.451981500E0,6.792519220E0,-9.380477571E-1,-6.740752065E0,9.615403754E0
1.462008500E0,4.223059119E0,-2.988453448E-2,-9.346391813E0,1.025622549E1
1.472034500E0,4.653861503E0,1.375082104E0,-5.680312729E0,7.470959134E0
1.482061500E0,2.338363520E0,1.401562974E0,-1.809927253E0,3.272332407E0
1.492087500E0,-4.119059372E-1,1.782455864E0,-8.116636992E-2,1.831230020E0
1.502114500E0,6.900766969E-2,4.811445719E0,-4.192921400E-2,4.812123235E0
1.512141500E0,-8.851327944E-1,4.457845293E0,1.036193564E0,4.661495663E0
1.522167500E0,-5.169698775E-2,3.350062221E0,2.780890448E-1,3.361982001E0
1.532194500E0,2.296005705E0,2.005054101E0,-1.086593640E0,3.236135023E0
1.542220500E0,2.387069072E0,1.131094167E0,-3.832578549E0,4.654689152E0
1.552247500E0,6.683776796E-2,1.589571422E0,-3.668222673E0,3.998382444E0
1.562274500E0,-9.628767890E-1,2.232937052E0,-2.229208721E0,3.298865125E0
1.572300500E0,-3.913944894E-1,2.807569247E0,-9.086114118E-1,2.976778363E0
1.582327500E0,7.445049191E-1,3.971530028E0,1.606285104E0,4.348274390E0
1.592353500E0,-8.794153869E-2,3.816746628E0,3.081452243E0,4.906183493E0
1.602380500E0,2.418811852E-1,2.532788703E0,4.285733669E0,4.984078471E0
1.612407500E0,-5.923404872E-2,5.591867745E-2,3.887054426E0,3.887907880E0
1.622433500E0,3.183452243E-1,-1.293832703E0,3.176694908E0,3.444813098E0
1.632460500E0,-1.053851863E0,-4.024423941E0,2.758178401E0,4.991406605E0
1.642486500E0,-2.569662414E0,-4.307136818E0,2.984241114E0,5.836119217E0
1.652513500E0,-2.254323243E0,-3.219556460E0,2.199709372E0,4.504024690E0
1.662540500E0,6.693863243E0,-5.942377918E0,-1.268564546E1,1.552563239E1
1.672566500E0,-8.842481107E-2,7.323737007E-1,1.026214706E0,1.263846038E0
1.682593500E0,3.690116110E0,-2.190595025E-1,-1.930348174E0,4.170274337E0
1.692619500E0,3.775219703E-1,5.453750664E-1,2.469935520E-1,7.077871261E-1
1.702646500E0,-1.847116421E0,1.373339049E0,8.837904198E-1,2.465559718E0
1.712673500E0,-2.835195294E0,3.346790704E0,1.555102086E-1,4.389023103E0
1.722699500E0,-1.901766838E0,1.816375562E0,2.754317777E-1,2.644201193E0
1.732726500E0,4.347366831E-1,2.306030756E-1,2.625703883E-1,5.577786039E-1
1.742752500E0,3.107253082E0,-4.144377816E-1,-6.904567659E-1,3.209908245E0
1.752779500E0,3.210944681E0,-3.777839255E-1,-1.408862199E0,3.526723570E0
1.762806500E0,2.462985812E0,4.328524178E-1,-1.003842967E0,2.694691267E0
1.772832500E0,1.561908391E0,-1.169906815E0,-5.054460387E-1,2.015865937E0
1.782859500E0,5.316534054E-1,-2.455062835E0,-5.068784603E-1,2.562599196E0
1.792885500E0,6.887599770E-2,-1.489212736E0,-4.060059504E-1,1.545101715E0
1.802912500E0,1.384715318E-1,3.476725191E-1,-1.546683557E-1,4.049356071E-1
1.812938500E0,-1.690462205E-1,4.107693554E0,2.158271617E0,4.643259559E0
1.822965500E0,-1.630513334E0,8.168575469E0,1.254898141E0,8.423714636E0
1.832992500E0,5.236532450E-2,6.235404114E0,3.303254675E0,7.056521667E0
1.843018500E0,2.594177743E0,7.309196736E0,8.376449833E0,1.141573593E1
1.853045500E0,-1.181851945E0,8.126535743E0,-1.380144915E0,8.327193836E0
1.863072500E0,-5.445150872E-1,4.403875492E0,2.888038044E0,5.294466902E0
1.873098500E0,-1.035708830E0,2.119141465E0,5.121751606E0,5.638775829E0
1.883125500E0,3.808627769E-2,7.231029403E-1,4.129920867E0,4.192919603E0
1.893151500E0,-9.203685544E-2,6.374634504E-1,1.551890503E0,1.680236461E0
1.903178500E0,-2.004287678E0,-6.030414766E-1,1.828033448E0,2.778944837E0
1.913204500E0,-2.831128556E0,-2.987612033E0,1.931675053E0,4.546700240E0
1.923231500E0,-2.990928867E0,-5.603117788E0,1.030452622E0,6.434470999E0
1.933257875E0,-3.134333292E0,-7.247098137E0,-2.055961423E-1,7.898528114E0
1.943283875E0,-2.464745531E0,-7.634798940E0,-2.690588389E0,8.461937796E0
1.953310875E0,-1.217145958E0,-6.435733815E0,-5.955400836E0,8.852508861E0
1.963336875E0,7.286813302E-1,-4.417964943E0,-5.684204636E0,7.235991505E0
1.973363875E0,2.026514260E0,-3.249652079E0,-5.029999437E0,6.322016531E0
1.983390875E0,1.496997135E0,-3.487727897E0,-4.886496486E0,6.187333368E0
1.993416875E0,1.315307772E0,-4.666195620E0,-4.674734601E0,6.734727885E0
2.003443875E0,2.028372066E0,-6.397463204E0,-4.878209227E0,8.296912314E0
2.013469875E0,2.302607504E0,-8.511902338E0,-4.525865368E0,9.911505438E0
2.023496875E0,2.032034909E0,-9.569390584E0,-3.454146752E0,1.037465815E1
2.033523875E0,2.345686573E0,-9.309617504E0,-1.880172193E0,9.782958195E0
2.043549875E0,3.610353364E0,-6.780228372E0,3.292470655E-1,7.688598821E0
2.053576875E0,3.387016039E0,-4.036765074E0,2.099538674E0,5.672337486E0
2.063602875E0,1.816163600E0,-2.050251324E0,1.574566298E0,3.159310010E0
2.073629875E0,2.014062907E0,6.420716411E-1,3.234586143E0,3.864097942E0
2.083656875E0,-1.954349678E0,6.824975359E-1,3.289963953E0,3.887048799E0
2.093682875E0,-3.609169011E0,2.518022729E0,2.775714785E0,5.202992599E0
2.103709875E0,-1.784492595E0,5.851151998E0,7.446041463E0,9.636593122E0
2.113735875E0,-3.220196146E0,8.719518839E0,6.139560648E0,1.113974313E1
2.123762875E0,-3.271542008E0,9.663757043E0,6.368328282E0,1.202691949E1
2.133789875E0,-3.089657056E0,1.135290012E1,8.119601530E0,1.429553255E1
2.143815875E0,-5.960267913E-1,1.083444388E1,6.164318928E0,1.247955327E1
2.153842875E0,9.829976428E-1,8.872685484E0,2.485327730E0,9.266481856E0
2.163868875E0,1.135511226E0,4.903910664E0,2.290649655E-1,5.038868554E0
2.173895875E0,6.140438899E-2,1.069704834E0,6.218353048E-1,1.238837390E0
2.183922875E0,-6.521457358E-1,-2.152571751E0,1.213075346E0,2.555466885E0
2.193948875E0,-2.012651096E0,-5.483154557E0,5.462992188E-1,5.866360982E0
2.203975875E0,-2.047145283E0,-6.932515596E0,-7.203334066E-1,7.264258841E0
2.214001875E0,-6.399243973E-2,-6.706390318E0,-3.991084287E0,7.804391066E0
2.224028875E0,7.655629353E-1,-4.872318742E0,-5.989469054E0,7.758821823E0
2.234055875E0,-4.595233957E-1,-2.985902892E0,-5.820106791E0,6.557470617E0
2.244081875E0,-2.219120520E0,-1.540792780E0,-5.062609359E0,5.738340509E0
2.254108875E0,-3.539437163E0,-4.908719999E-1,-4.478868957E0,5.729645529E0
2.264134875E0,-4.452409721E0,-1.539764839E-1,-3.204352530E0,5.487762406E0
2.274161875E0,-4.113402776E0,7.101542813E-1,-1.413896506E0,4.407210549E0
2.284188875E0,-1.347654277E0,1.871407802E0,-9.997455302E-1,2.513529458E0
2.294214875E0,1.048594778E0,2.660737476E0,6.590580949E-1,2.934864988E0
2.304241875E0,1.439682142E0,2.333621428E0,2.680770621E0,3.834710519E0
2.314267875E0,-1.351102965E0,7.795502061E-1,3.637772713E0,3.958101572E0
2.324294875E0,-1.103783796E0,8.493373096E-2,3.117909925E0,3.308612203E0
2.334321875E0,1.675350076E-1,9.245617390E-3,2.125875411E0,2.132486746E0
2.344347875E0,9.414303714E-1,1.822360772E-1,1.750438850E0,1.995880081E0
2.354374875E0,1.167713378E0,2.905154014E-1,1.641786766E0,2.035538630E0
2.364400875E0,1.199908293E0,3.891035503E-1,1.162466525E0,1.715374568E0
2.374427875E0,7.586747691E-1,-1.759368718E-1,4.646042606E-1,9.068617905E-1
2.384454875E0,8.867582472E-1,9.687140644E-2,-1.061284551E0,1.386379875E0
2.394480875E0,1.334961141E0,-3.467387187E-1,-2.169029324E0,2.570415763E0
2.404507875E0,2.343580990E0,-4.388972694E-1,-2.571124510E0,3.506520201E0
2.414533875E0,2.934712566E0,-3.174394906E-1,-2.184693722E0,3.672355148E0
2.424560875E0,3.033077351E0,-8.257788777E-2,-1.880140326E0,3.569496459E0
2.434586875E0,2.073119346E0,-8.046061099E-2,-1.288348307E0,2.442158695E0
2.444613875E0,7.879855455E-1,5.249045491E-3,-7.441304049E-1,1.083826016E0
2.454640875E0,-1.378838501E-1,2.590725839E-1,-2.900388533E-1,4.126173727E-1
2.464666875E0,-1.181466029E0,2.662851244E-1,-4.711891025E-2,1.212018951E0
2.474693875E0,-1.749991976E0,3.601341051E-1,1.020979401E-1,1.789578856E0
2.484719875E0,-1.688097152E0,5.602983302E-1,1.591714427E-1,1.785760836E0
2.494746875E0,-1.496972576E0,6.072842163E-1,2.091970038E-1,1.628951933E0
2.504773875E0,-5.040336438E-1,7.209839094E-1,5.038455096E-1,1.013769209E0
2.514799875E0,-2.285448557E-1,1.401788092E-1,8.178322193E-1,8.606581136E-1
2.524826875E0,-2.609816998E-1,-2.789314824E-1,8.560797340E-1,9.374362541E-1
2.534852875E0,-2.914980260E-1,-6.246171176E-2,8.095051995E-1,8.626535994E-1
2.544879875E0,-1.985841613E-1,5.364299959E-1,6.778223947E-1,8.869250297E-1
2.554906875E0,2.705793196E-1,1.089243890E0,4.487852034E-1,1.208748766E0
2.564932875E0,8.797777681E-1,7.655040246E-1,2.554975963E-1,1.193852736E0
2.574959875E0,1.275918150E0,-2.664511853E-1,1.107570818E-1,1.308140088E0
2.584985875E0,1.755221726E0,-8.491314876E-1,-2.887805325E-1,1.971096595E0
2.595012875E0,1.229616973E0,-1.713155833E0,-5.177069190E-1,2.171377734E0
2.605039875E0,-8.786947176E-2,-2.367476807E0,-3.614617154E-1,2.396522907E0
2.615065875E0,-7.226214221E-1,-1.796457022E0,-3.061417928E-1,1.960398518E0
2.625092875E0,-1.631384715E0,-3.301185930E-1,-2.050937203E-1,1.677038404E0
2.635118875E0,-2.077444531E0,7.629376817E-1,-5.979938677E-1,2.292476031E0
2.645145875E0,-1.529810539E0,1.471775170E0,-8.744075391E-1,2.295872597E0
2.655172875E0,-9.013782598E-1,1.779107164E0,-1.102673775E0,2.278945923E0
2.665198875E0,1.654702096E-1,1.812207082E0,-1.120020417E0,2.136801496E0
2.675225875E0,1.621398402E0,1.779673759E0,-5.567113557E-1,2.471052205E0
2.685251875E0,2.027219580E0,1.416652299E0,4.733823931E-1,2.518057555E0
2.695278875E0,1.763483988E0,8.405261403E-1,1.020203768E0,2.203900111E0
2.705305875E0,1.119474507E0,2.444194615E-2,9.863217849E-1,1.492196784E0
2.715331875E0,3.630317659E-1,-6.965869868E-1,6.686481133E-1,1.031559883E0
2.725358875E0,5.727827203E-1,-7.700508195E-1,3.928641871E-1,1.037015226E0
2.735384875E0,9.234199970E-1,-7.949242902E-1,5.999901071E-1,1.358159507E0
2.745411875E0,8.107632279E-1,-1.010690056E0,6.098707321E-1,1.432052272E0
2.755438875E0,8.571546715E-1,-9.177754605E-1,3.938500276E-1,1.316109331E0
2.765464875E0,6.888335057E-1,-6.485673130E-1,3.839001131E-1,1.021034013E0
2.775491875E0,3.167953467E-1,-3.522397792E-1,3.347367239E-1,5.800696752E-1
2.785517875E0,-2.606502358E-1,-2.151711041E-1,1.711015168E-1,3.788309366E-1
2.795544875E0,-5.857324027E-1,-2.214632928E-2,8.795060188E-2,5.927125912E-1
2.805571875E0,-4.385283832E-1,1.357127059E-1,-9.848991573E-2,4.694947762E-1
2.815597875E0,4.994720846E-2,2.694227403E-1,-1.206830227E-1,2.994123054E-1
2.825624875E0,4.881025393E-1,6.825700414E-1,9.362912536E-2,8.443413785E-1
2.835650875E0,3.147524757E-1,7.454264402E-1,3.558118433E-2,8.099356267E-1
2.845677875E0,4.409606056E-1,8.418557972E-1,-2.096951866E-1,9.732109279E-1
2.855704875E0,3.759443915E-1,7.221393192E-1,-3.539533058E-1,8.877512740E-1
2.865730875E0,4.707037836E-2,5.757104212E-1,-2.909659293E-1,6.467760676E-1
2.875757875E0,-3.095312776E-1,6.630175370E-1,-1.790396968E-1,7.532974706E-1
2.885783875E0,-9.184369268E-1,6.452870250E-1,7.270866483E-2,1.124814777E0
2.895810875E0,-1.277115368E0,5.890549368E-1,2.169685382E-1,1.423054717E0
2.905837875E0,-1.426036787E0,4.133922994E-1,3.683970979E-1,1.529768131E0
2.915863875E0,-1.787578610E0,4.320636284E-1,2.548125950E-1,1.856622127E0
2.925890875E0,-1.879958623E0,1.329732853E-1,6.454010457E-2,1.885760257E0
2.935917583E0,-1.291376873E0,-3.769220459E-1,-1.886028180E-1,1.358416534E0
2.945944583E0,-9.218329165E-1,-9.809832770E-1,-2.804014724E-1,1.375037855E0
2.955971583E0,-3.257385899E-1,-9.067569673E-1,-2.321546343E-1,9.910648823E-1
2.965997583E0,6.470989309E-2,-4.726900828E-1,-2.661506385E-2,4.778406076E-1
2.976024583E0,-1.269759424E-1,-2.673025399E-1,3.564149836E-1,4.632549820E-1
2.986050583E0,-2.603446457E-1,-2.415712827E-1,5.309985173E-1,6.388234846E-1
2.996077583E0,2.843576986E-1,-7.875556290E-2,7.948985624E-1,8.478947246E-1
3.006104583E0,9.008675055E-1,-9.564173698E-2,8.769651112E-1,1.260863756E0
3.016130583E0,1.045027538E0,-5.774084526E-1,1.047305321E0,1.588184973E0
3.026157583E0,1.073870098E0,-1.108968887E0,1.088259219E0,1.888734261E0
3.036183583E0,5.853362538E-1,-1.132707998E0,6.730621764E-1,1.441755400E0
3.046210583E0,1.365253226E-1,-7.614384556E-1,1.435280943E-1,7.867833242E-1
3.056237583E0,1.263942906E-1,-1.003779817E-1,-1.982381523E-1,2.556357192E-1
3.066263583E0,3.703328186E-1,3.690546173E-1,-4.589888871E-1,6.957143850E-1
3.076290583E0,8.840545678E-1,7.901570553E-1,-3.648536852E-1,1.240571990E0
3.086316583E0,8.883709824E-1,1.121084318E0,-1.457538369E-1,1.437802918E0
3.096343583E0,1.022086279E0,9.553046447E-1,6.144721985E-2,1.400372482E0
3.106369583E0,4.034363915E-1,-3.575472969E-1,1.988199502E-2,5.394407152E-1
3.116396583E0,2.245802973E-1,-1.360089258E0,2.047750470E-1,1.393632634E0
3.126423583E0,5.720646822E-1,-1.560328912E0,8.376282603E-2,1.664001360E0
3.136449583E0,2.273295119E-2,-7.897278696E-1,-6.241142571E-2,7.925162971E-1
3.146476583E0,-4.556676686E-1,-8.262758911E-2,9.345838666E-2,4.724349825E-1
3.156502583E0,-5.074465173E-1,3.305103564E-1,4.193769246E-2,6.070402241E-1
3.166529583E0,-4.091274865E-1,5.014414269E-1,-1.846015683E-1,6.729833161E-1
3.176556583E0,-2.647560775E-1,6.433545202E-1,-2.278323725E-1,7.320576543E-1
3.186582583E0,-3.672811568E-1,6.045716929E-1,-3.228405637E-1,7.775785552E-1
3.196609583E0,-2.225423965E-1,7.376256698E-1,-3.920078623E-1,8.644575821E-1
3.206635583E0,5.468494418E-1,1.179624887E0,1.194852206E-1,1.305693649E0
3.216662583E0,4.963080101E-1,1.051727570E0,4.904922232E-1,1.262154960E0
3.226689583E0,-1.221956974E-1,5.332216287E-1,6.686852431E-1,8.639427343E-1
3.236715583E0,-3.536640148E-1,9.888811111E-3,6.649737230E-1,7.532370651E-1
3.246742583E0,-5.676079345E-1,-6.889101774E-1,3.623417214E-1,9.633626123E-1
3.256769583E0,7.220390394E-2,-8.444104457E-1,2.147509816E-1,8.742770663E-1
3.266795583E0,5.573029478E-1,-7.159114498E-1,3.238886771E-1,9.633377677E-1
3.276822583E0,1.055875000E0,-3.491349077E-1,9.184923291E-2,1.115886858E0
3.286848583E0,1.104588884E0,7.987238109E-2,1.090686983E-1,1.112830707E0
3.296875583E0,6.746065722E-1,3.752468187E-1,3.400916040E-2,7.726971109E-1
3.306901583E0,1.448356779E-1,6.055452543E-1,-2.923590285E-1,6.878489879E-1
3.316928583E0,-6.430299997E-2,6.924477428E-1,-4.062850088E-1,8.054106162E-1
3.326955583E0,-4.378605580E-1,5.497125310E-1,-5.128008127E-3,7.028029820E-1
3.336981583E0,-6.775832435E-1,3.155385607E-1,1.980615664E-1,7.732477089E-1
3.347008583E0,1.787927981E-1,2.073896295E-1,1.528257519E-2,2.742460212E-1
3.357034583E0,1.161978136E0,2.439967078E-1,-3.588018170E-1,1.240349276E0
3.367061583E0,6.388371076E-1,1.445753306E-1,-1.066801107E-1,6.636230272E-1
3.377088583E0,1.838696431E-1,3.589898050E-1,1.378451854E-2,4.035737091E-1
3.387114583E0,-5.050814648E-1,4.050839907E-1,-1.710269648E-1,6.696645043E-1
3.397141583E0,-1.312150422E0,4.087782615E-1,-1.638047764E-1,1.384077455E0
3.407167583E0,-1.419405022E0,6.344381011E-1,-2.473889700E-1,1.574300995E0
3.417194583E0,-1.011510713E0,7.541230041E-1,-4.129008409E-1,1.327532497E0
3.427221583E0,-5.541314180E-1,6.724742389E-1,-6.978684041E-1,1.116379658E0
3.437247583E0,1.865986848E-1,6.199633187E-1,-8.742844552E-1,1.087909415E0
3.447274583E0,9.281438895E-1,4.924162495E-1,-5.400459141E-1,1.181344332E0
3.457300583E0,1.313630791E0,2.549964899E-1,-2.418133575E-1,1.359824534E0
3.467327583E0,1.204829018E0,-4.454759717E-2,2.212878764E-3,1.205654323E0
3.477354583E0,5.954718174E-1,-4.748944831E-1,1.016251928E-1,7.684003743E-1
3.487380583E0,-5.502814651E-2,-9.128655535E-1,-4.224613309E-2,9.154978708E-1
3.497407583E0,-2.953497331E-1,-9.657542038E-1,-1.199035889E-1,1.017000254E0
3.507433583E0,-4.223315227E-1,-9.130497408E-1,1.550915480E-2,1.006113452E0
3.517460583E0,-2.722525004E-1,-6.017568433E-1,2.747606635E-2,6.610504192E-1
3.527487583E0,-3.918216285E-1,-2.830397362E-1,2.545029849E-1,5.462668305E-1
3.537513583E0,-5.421458685E-1,2.059096992E-1,4.744196892E-1,7.492629635E-1
3.547540583E0,-6.257807866E-1,5.294957829E-1,7.134018248E-1,1.086696619E0
3.557566583E0,-3.505082725E-1,6.134068358E-1,6.278769404E-1,9.451737658E-1
3.567593583E0,-1.270088330E-2,3.076056433E-1,6.493753982E-1,7.186591347E-1
3.577620583E0,6.524157310E-1,-6.885096431E-2,6.929541117E-1,9.542390383E-1
3.587646583E0,1.499579557E0,-8.894959867E-2,7.577269354E-1,1.682498437E0
3.597673583E0,2.219500151E0,-6.502454638E-2,1.262439879E0,2.554244225E0
3.607699583E0,2.016412025E0,-2.339587927E-2,1.843537340E0,2.732232558E0
3.617726583E0,1.328831651E0,5.851776481E-2,2.013115658E0,2.412851536E0
3.627753583E0,4.610465223E-1,2.596140361E-1,1.574625939E0,1.661147252E0
3.637779583E0,-3.514677275E-1,4.370764464E-1,8.696160382E-1,1.034793427E0
3.647806583E0,-8.340076643E-1,3.288988638E-1,6.355017096E-2,8.987668613E-1
3.657832583E0,-1.110130144E0,-6.084554136E-2,-6.074590480E-1,1.266924470E0
3.667859583E0,-1.101157592E0,-4.523984903E-1,-1.161208789E0,1.663014819E0
3.677886583E0,-8.167763583E-1,-6.310940784E-1,-1.651112198E0,1.947196663E0
3.687912583E0,-5.768525286E-1,-6.083092332E-1,-1.891615194E0,2.069059449E0
3.697939583E0,-7.006631539E-1,-4.392937106E-1,-1.766121375E0,1.950151925E0
3.707965583E0,-4.619567145E-1,-3.389046192E-2,-1.334813499E0,1.412897606E0
3.717992583E0,-3.170785712E-1,2.906323457E-1,-9.417025593E-1,1.035282421E0
3.728019583E0,-5.007781333E-1,-1.785271883E-2,-8.091952971E-1,9.517848954E-1
3.738045583E0,-7.508634006E-1,-2.414537537E-1,-9.134470591E-1,1.206847667E0
3.748072583E0,-6.196811175E-1,-4.609126210E-2,-9.967514634E-1,1.174581871E0
3.758098583E0,-5.890419998E-1,1.242012924E-1,-1.009640481E0,1.175487277E0
3.768125583E0,-9.283793861E-1,2.455356950E-1,-9.974493286E-1,1.384587023E0
3.778152583E0,-1.010969918E0,6.619205993E-1,-1.063505031E0,1.609733521E0
3.788178583E0,-2.589742776E-1,1.213964415E0,-8.809710386E-1,1.522132468E0
3.798205583E0,-4.926921650E-1,1.001453794E0,-3.562591553E-1,1.171569826E0
3.808231583E0,-7.975602150E-4,1.019833347E0,-6.112854660E-2,1.021664031E0
3.818258583E0,7.382632356E-1,8.699317878E-1,1.654908210E-1,1.152909854E0
3.828285583E0,1.307828014E0,6.954970658E-1,5.133182913E-1,1.567681712E0
3.838311583E0,1.409631547E0,6.422195756E-1,9.942406690E-1,1.840657923E0
3.848338583E0,1.211030209E0,3.062017268E-1,1.163538612E0,1.707095711E0
3.858364583E0,1.169451974E0,6.576071084E-2,1.055263966E0,1.576554607E0
3.868391583E0,8.374247041E-1,-2.555221546E-1,9.321087402E-1,1.278826966E0
3.878418583E0,4.615913366E-1,-4.526113290E-1,7.658200666E-1,1.002199557E0
3.888444583E0,2.081684786E-1,-7.907546407E-1,6.823636347E-1,1.065010398E0
3.898471583E0,2.515896097E-1,-5.075576144E-1,6.129343808E-1,8.346260353E-1
3.908497583E0,8.091874033E-2,-3.190579998E-1,7.051554966E-1,7.781967130E-1
3.918524583E0,6.000698485E-1,-1.442625046E-1,6.316156501E-1,8.830820023E-1
3.928551583E0,4.840272492E-1,-2.548029470E-1,-3.088090003E-2,5.478690991E-1
3.938576833E0,-1.040116827E0,-4.002337253E-1,-7.606502509E-1,1.349303099E0
3.948603833E0,-1.255798612E0,-8.271781164E-1,-5.823271304E-1,1.612562767E0
3.958629833E0,-1.438638122E0,-1.419963577E0,-3.925876138E-1,2.059150611E0
3.968656833E0,-1.858175260E0,-2.405661464E0,-5.716749653E-1,3.093030010E0
3.978683833E0,-2.549060042E0,-3.242620803E0,-9.587743825E-1,4.234565513E0
3.988709833E0,-2.361487357E0,-2.281226283E0,-1.102236403E0,3.463457951E0
3.998736833E0,-1.599042450E0,-4.673691165E-1,-1.291909554E0,2.108174790E0
4.008762833E0,-5.434433656E-1,6.750832665E-1,-1.705381376E0,1.912954193E0
4.018789833E0,-4.304939434E-3,1.226583291E0,-2.095145661E0,2.427789209E0
4.028816833E0,5.543131933E-1,1.721364155E0,-2.085704454E0,2.760529069E0
4.038842833E0,9.102126718E-1,1.855420929E0,-1.460610496E0,2.530702858E0
4.048869833E0,1.319745370E0,1.699799039E0,-4.749172872E-1,2.203767466E0
4.058895833E0,2.005796405E0,1.464621686E0,9.556519693E-1,2.661128819E0
4.068922833E0,-1.370832932E0,1.349526848E0,2.183060010E0,2.909666072E0
4.078949833E0,-3.246906519E0,1.640383726E0,2.360239123E0,4.336356700E0
4.088975833E0,-3.367994462E0,1.910639695E0,2.619984722E0,4.675280813E0
4.099002833E0,-2.871533985E0,1.981710847E0,2.266325531E0,4.160422661E0
4.109028833E0,-2.603954872E0,5.433875978E-1,1.630619169E0,3.120059283E0
4.119055833E0,-2.309032132E0,-1.400473053E0,8.368722153E-1,2.827244111E0
4.129082833E0,-1.361457214E0,-1.961472464E0,1.928841493E-1,2.395442395E0
4.139108833E0,-1.815042982E-1,-1.816718794E0,-3.634179014E-1,1.861580929E0
4.149135833E0,9.120611228E-1,-1.365329533E0,-9.226140314E-1,1.883400349E0
4.159161833E0,1.851428743E0,-9.100308233E-1,-1.181976637E0,2.377606624E0
4.169188833E0,2.382643899E0,-5.993086141E-1,-1.167710600E0,2.720240948E0
4.179215833E0,2.390337373E0,-1.183102226E-1,-9.339520749E-1,2.569041951E0
4.189241833E0,2.010329605E0,2.623265594E-1,-6.205562264E-1,2.120219417E0
4.199268833E0,1.811352511E0,5.676278150E-1,-3.768279058E-1,1.935251541E0
4.209294833E0,1.654007154E0,7.191625017E-1,-1.703913724E-1,1.811620156E0
4.219321833E0,1.409178241E0,8.743207079E-1,3.324902236E-2,1.658712004E0
4.229348833E0,1.094918905E0,5.862313163E-1,6.079081142E-1,1.382775051E0
4.239374833E0,-3.825042073E0,-3.917975380E0,1.023347173E1,1.160626648E1
4.249401833E0,8.182448865E-1,-1.845530364E0,6.578801733E0,6.881579707E0
4.259427833E0,7.329544462E0,2.988915963E0,-3.586089466E0,8.689987244E0
4.269454833E0,2.502786639E-1,1.948618530E0,-2.984686964E0,3.573249202E0
4.279481833E0,5.224388514E-1,4.799945415E0,-3.202463003E0,5.793805971E0
4.289507833E0,2.126082695E-1,4.645636809E0,-3.023904824E0,5.547174418E0
4.299534833E0,-5.794959086E-1,2.747736443E0,-3.040155113E0,4.138648835E0
4.309560833E0,-8.413514748E-2,5.643750089E-1,-2.674200397E0,2.734400417E0
4.319587833E0,-3.803738035E-2,-1.107579004E0,-1.948589002E0,2.241690699E0
4.329614833E0,-2.821880161E-1,-1.989355497E0,-5.641031134E-1,2.086954166E0
4.339640833E0,-3.496989448E-1,-2.097737732E0,1.512725560E0,2.609814469E0
4.349667833E0,-3.117622096E-1,-2.197936204E0,3.232076519E0,3.921025102E0
4.359693833E0,6.205428509E-1,-1.536961684E0,3.262016602E0,3.658972118E0
4.369720833E0,1.251854811E0,-3.939304268E-1,6.964226800E-1,1.485707306E0
4.379747833E0,1.632260482E0,3.081394941E-1,-1.683154939E0,2.364790642E0
4.389773833E0,1.616940338E0,7.137567508E-1,-2.772763111E0,3.288184914E0
4.399800833E0,1.036698471E0,5.859547430E-1,-2.646845076E0,2.902391348E0
4.409826833E0,1.119160657E0,1.958349466E-1,-8.630060533E-1,1.426762542E0
4.419853833E0,2.286750147E0,1.561773759E0,1.336127661E0,3.074670818E0
4.429880833E0,4.875724892E-1,4.881203002E-1,3.860865332E0,3.922023645E0
4.439906833E0,8.488389076E-1,5.271317536E-1,1.445402473E-1,1.009597573E0
4.449933833E0,9.993034076E-1,9.476693505E-1,-1.236486136E0,1.850832910E0
4.459959833E0,1.657356732E-1,-4.815766811E-2,-5.558009443E-1,5.819812403E-1
4.469986833E0,-7.802072869E-1,-9.172761083E-1,-1.049679290E0,1.597480980E0
4.480013833E0,-1.510256719E0,-5.874948996E-1,-1.170198883E0,1.998847428E0
4.490039833E0,-1.353697374E0,-1.385421735E-1,-1.213855365E0,1.823495369E0
4.500066833E0,-1.353714623E0,2.657840180E-1,-1.556120963E0,2.079590556E0
4.510092833E0,-2.055405352E0,6.797031516E-1,-1.932155402E0,2.901708468E0
4.520119833E0,-3.444411138E0,1.003570486E0,-2.103371232E0,4.158760915E0
4.530146833E0,-3.912400060E0,5.620103949E-1,-2.113956446E0,4.482358951E0
4.540172833E0,-2.443968766E0,9.625967073E-1,-1.663611498E0,3.109208737E0
4.550199833E0,-3.913409874E-1,1.458977954E0,-1.534854640E0,2.153495578E0
4.560225833E0,3.556035362E-1,7.094198710E-1,-1.308834612E0,1.530613756E0
4.570252833E0,-4.479518290E-1,4.882565403E-1,-1.257261293E0,1.421183046E0
4.580279833E0,-1.127945295E0,7.152875519E-1,-1.275065188E0,1.846534078E0
4.590305833E0,-1.164516851E0,7.071072972E-1,-7.282701248E-1,1.544822838E0
4.600332833E0,-1.165023513E0,4.501297706E-1,1.359669136E-1,1.256337374E0
4.610358833E0,-1.057562506E0,9.705851734E-2,8.482131824E-1,1.359163130E0
4.620385833E0,-6.439807570E-1,-3.023373020E-1,1.435630606E0,1.602234158E0
4.630412833E0,-1.957092315E-2,-3.841889656E-1,1.672521339E0,1.716191077E0
4.640438833E0,6.931802528E-1,-3.452096719E-1,1.679611819E0,1.849530871E0
4.650465833E0,1.315706406E0,-3.241889316E-1,1.333216624E0,1.900959857E0
4.660491833E0,2.168900393E0,-3.144451314E-1,7.501492363E-1,2.316404225E0
4.670518833E0,2.312532275E0,-5.955102628E-1,2.955349436E-1,2.406195940E0
4.680545833E0,1.994874976E0,-7.125539786E-1,1.456943415E-1,2.123319614E0
4.690571833E0,2.364884882E0,-6.105797070E-1,2.774989146E-1,2.458148436E0
4.700598833E0,2.238925771E0,-4.848113608E-1,2.492551088E-1,2.304334778E0
4.710624833E0,1.711213973E0,-2.906773692E-1,2.848833632E-1,1.758950007E0
4.720651833E0,1.558955255E0,2.720861471E-1,5.752359197E-1,1.683825621E0
4.730678833E0,1.188946226E0,6.396912396E-1,5.521223147E-1,1.458642198E0
4.740704833E0,9.053344859E-1,7.966012716E-1,4.748675859E-1,1.296033696E0
4.750731833E0,4.598335174E-1,9.075171053E-1,6.417940445E-1,1.202885595E0
4.760757833E0,4.773813039E-2,9.608185691E-1,9.235012002E-1,1.333531296E0
4.770784833E0,-3.024548310E-1,8.843831813E-1,1.096695582E0,1.440955841E0
4.780811833E0,-3.749600127E-1,9.089596134E-1,1.077917687E0,1.459009640E0
4.790837833E0,-1.338351649E-1,1.061307063E0,9.480944431E-1,1.429394140E0
4.800864833E0,3.361372782E-1,1.249171670E0,7.825048041E-1,1.511863717E0
4.810890833E0,8.380093525E-1,1.457348335E0,5.316254850E-1,1.763164626E0
4.820917833E0,1.308069358E0,1.557843845E0,2.647071071E-1,2.051339256E0
4.830944833E0,1.734035656E0,1.549442566E0,1.165247753E-2,2.325465051E0
4.840970833E0,2.004981742E0,1.339951447E0,-2.188378930E-1,2.421427614E0
4.850997833E0,2.577443304E0,1.225602713E0,-4.503069413E-1,2.889306550E0
4.861023833E0,2.816959291E0,9.950662959E-1,-9.139079659E-1,3.124202994E0
4.871050833E0,2.878215599E0,6.051605076E-1,-1.659867818E0,3.377203791E0
4.881077833E0,2.760332515E0,1.871623564E-1,-2.536235636E0,3.753259456E0
4.891103833E0,2.198109135E0,-3.585629582E-1,-3.349994978E0,4.022774853E0
4.901130833E0,1.398065316E0,-9.387921077E-1,-3.811049101E0,4.166534831E0
4.911156833E0,6.419466569E-1,-1.368825583E0,-3.916239341E0,4.197941110E0
4.921183833E0,3.990081489E-2,-1.477731729E0,-3.737556617E0,4.019280110E0
4.931210833E0,-1.909437507E-1,-8.200076759E-1,-3.372420219E0,3.475930126E0
4.941237375E0,-2.314683174E-1,3.941666543E-2,-2.837439748E0,2.847138138E0
4.951264375E0,-2.834630746E-1,6.634683573E-1,-2.142038577E0,2.260281142E0
4.961290375E0,-3.007427663E-1,1.040892679E0,-1.417950965E0,1.784513581E0
4.971317375E0,-1.799197027E-1,1.029506396E0,-7.740450525E-1,1.300538451E0
4.981344375E0,1.039605707E-1,7.847676766E-1,-3.974386831E-1,8.857909535E-1
4.991370375E0,3.655110584E-1,5.432092577E-1,-2.736636893E-1,7.096241585E-1
5.001397375E0,5.712934345E-1,3.595219016E-1,-2.926987517E-1,7.357341539E-1
5.011423375E0,7.869415252E-1,2.514893299E-1,-3.617858704E-1,9.018940421E-1
5.021450375E0,8.823588753E-1,1.047370809E-1,-5.020454443E-1,1.020576636E0
5.031477375E0,1.013060517E0,7.026423633E-2,-6.671942031E-1,1.215062459E0
5.041503375E0,1.132658297E0,2.451702440E-1,-8.423744452E-1,1.432696050E0
5.051530375E0,1.286254127E0,5.216037959E-1,-9.791022277E-1,1.698576278E0
5.061556375E0,1.436487224E0,7.929356521E-1,-1.010578959E0,1.927047567E0
5.071583375E0,1.451440016E0,8.452156073E-1,-9.280851980E-1,1.918960572E0
5.081610375E0,1.334519530E0,6.372359937E-1,-7.544346607E-1,1.660175818E0
5.091636375E0,1.250030480E0,2.432389086E-1,-5.474058044E-1,1.386143745E0
5.101663375E0,1.174587803E0,-2.316006106E-1,-3.747538984E-1,1.254486283E0
5.111689375E0,1.048183718E0,-6.338025087E-1,-1.357395665E-1,1.232404137E0
5.121716375E0,1.081495452E0,-7.626944375E-1,-5.079825243E-2,1.324354817E0
5.131743375E0,1.252247598E0,-5.387694669E-1,-3.485174417E-1,1.407075333E0
5.141769375E0,1.689763609E0,-2.972812146E-1,-9.356188238E-1,1.954241479E0
5.151796375E0,2.068798254E0,-1.731190985E-1,-1.509491465E0,2.566799743E0
5.161822375E0,2.793406706E0,-8.737611294E-2,-2.083589809E0,3.485986532E0
5.171849375E0,3.147385155E0,-3.135674644E-1,-2.275215930E0,3.896275836E0
5.181876375E0,3.518231359E0,-6.352812696E-1,-2.263417418E0,4.231381878E0
5.191902375E0,4.126191221E0,-1.101071053E0,-1.965876587E0,4.701327707E0
5.201929375E0,4.072461449E0,-1.659531603E0,-1.506973654E0,4.648651093E0
5.211955375E0,4.480295092E0,-1.788966739E0,-1.533251626E0,5.062045699E0
5.221982375E0,4.413843241E0,-2.090949699E0,-1.822844921E0,5.213141702E0
5.232009375E0,3.589852734E0,-2.469081534E0,-2.475604103E0,5.011189674E0
5.242035375E0,3.471809144E0,-2.519559377E0,-3.576892088E0,5.585319615E0
5.252062375E0,3.312400305E0,-2.585566841E0,-4.885270325E0,6.443835645E0
5.262088375E0,2.948790907E0,-2.429818650E0,-5.902338524E0,7.031144042E0
5.272115375E0,2.649176361E0,-2.079340637E0,-6.342532121E0,7.181191167E0
5.282142375E0,2.447624007E0,-1.427052741E0,-6.090917076E0,6.717634526E0
5.292168375E0,2.399759284E0,-1.061998204E0,-5.722837189E0,6.295835950E0
5.302195375E0,2.277068620E0,-1.424617376E0,-4.113619123E0,4.912884942E0
5.312221375E0,1.500698130E0,-2.187572599E0,-1.469696631E0,3.032750722E0
5.322248375E0,6.614475596E-1,-2.744055621E0,1.330938549E0,3.120697285E0
5.332275375E0,-2.939559031E-1,-2.851366062E0,3.694354172E0,4.675997352E0
5.342301375E0,-1.024193031E0,-2.261636941E0,4.793886238E0,5.398640410E0
5.352328375E0,-1.720975023E0,-1.549902742E0,4.464484806E0,5.029470958E0
5.362354375E0,-1.797446955E0,-5.936754066E-1,3.957204934E0,4.386654413E0
5.372381375E0,-1.490690913E0,2.978296834E-1,3.370870707E0,3.697787344E0
5.382408375E0,-6.894931448E-1,1.359105756E0,2.259093110E0,2.725081821E0
5.392434375E0,-5.405633926E-2,2.157395119E0,1.000989525E0,2.378919044E0
5.402461375E0,9.741741943E-1,2.016869570E0,6.282628566E-2,2.240697518E0
5.412487375E0,1.122237097E0,6.604126024E-1,-7.255865452E-1,1.490649771E0
5.422514375E0,5.731873477E-1,-8.775442779E-1,-8.948154911E-1,1.378159083E0
5.432541375E0,3.844193459E-1,-1.566705886E0,-8.345836151E-1,1.816280643E0
5.442567375E0,5.044699922E-1,-1.886548582E0,-4.153438076E-1,1.996513462E0
5.452594375E0,7.766856551E-1,-1.972400326E0,-2.559665430E-1,2.135210182E0
5.462620375E0,1.047315261E0,-1.968910707E0,8.444841206E-3,2.230145723E0
5.472647375E0,1.430380099E0,-1.813322731E0,4.665964070E-1,2.356234021E0
5.482674375E0,1.508629586E0,-1.589617031E0,1.064649332E0,2.436457209E0
5.492700375E0,1.345435843E0,-1.315822327E0,1.686912653E0,2.527302970E0
5.502727375E0,9.695607412E-1,-9.006583214E-1,2.189162165E0,2.558058722E0
5.512753375E0,4.618382353E-1,-4.244756967E-1,2.503106482E0,2.580506972E0
5.522780375E0,-2.126164556E-1,8.163356245E-2,2.700111749E0,2.709699845E0
5.532807375E0,-1.051162144E0,5.778715521E-1,2.800630356E0,3.046704412E0
5.542833375E0,-1.910578884E0,1.155708606E0,2.838969672E0,3.611886329E0
5.552860375E0,-2.572723432E0,1.737772611E0,2.874224582E0,4.230830468E0
5.562886375E0,-3.248059883E0,2.235127419E0,2.889418572E0,4.888192638E0
5.572913375E0,-3.794571648E0,2.558336357E0,2.951210485E0,5.445502937E0
5.582940375E0,-4.422798252E0,2.792453610E0,2.961810902E0,6.010928826E0
5.592966375E0,-4.912009642E0,2.985979491E0,2.958172180E0,6.464881661E0
5.602993375E0,-5.344075025E0,3.115828024E0,2.874585355E0,6.821346136E0
5.613019375E0,-5.590956749E0,3.363230735E0,2.691791161E0,7.058034996E0
5.623046375E0,-5.756982590E0,3.679611295E0,2.445415806E0,7.256889574E0
5.633073375E0,-5.750563517E0,4.098611074E0,2.125113519E0,7.374530559E0
5.643099375E0,-5.473089745E0,4.665442498E0,1.755963299E0,7.403004267E0
5.653126375E0,-4.859330322E0,5.405600597E0,1.218308896E0,7.370066863E0
5.663153375E0,-4.008781177E0,6.004520956E0,5.155753165E-1,7.238122432E0
5.673179375E0,-2.820879849E0,6.117363448E0,-2.099577266E-1,6.739701842E0
5.683206375E0,-1.166264584E0,5.882233458E0,-9.781514704E-1,6.075987478E0
5.693232375E0,7.752478248E-1,5.418042303E0,-1.882079847E0,5.787781625E0
5.703259375E0,2.931694233E0,4.261935502E0,-3.256678971E0,6.112682162E0
5.713286375E0,5.205929292E0,2.472410354E0,-5.102760435E0,7.697576035E0
5.723312375E0,7.191737283E0,2.310112113E-1,-6.805774273E0,9.904191778E0
5.733339375E0,8.227972655E0,-2.008749542E0,-7.147708919E0,1.108261483E1
5.743365375E0,8.171198530E0,-4.200573066E0,-5.787137851E0,1.085837299E1
5.753392375E0,7.623175845E0,-6.100219411E0,-4.122914441E0,1.059829752E1
5.763419375E0,6.706648765E0,-7.105798416E0,-2.640292686E0,1.012139586E1
5.773445375E0,5.164819858E0,-6.750974168E0,-1.276407124E0,8.595361047E0
5.783472375E0,3.284889155E0,-5.147232018E0,-2.927928919E-1,6.113118835E0
5.793498375E0,1.532375713E0,-3.106989958E0,2.973408562E-1,3.477063921E0
5.803525375E0,5.083159983E-1,-1.039706864E0,3.676021689E-1,1.214292745E0
5.813552375E0,3.770281729E-1,9.891676247E-1,-2.426468781E-1,1.086038830E0
5.823578375E0,3.017712915E-1,2.707379546E0,-6.108387387E-1,2.791790444E0
5.833605375E0,-5.422459289E-1,3.916293721E0,-2.607457647E-1,3.962243747E0
5.843631375E0,-2.116286269E0,4.001525660E0,6.419500190E-1,4.571977144E0
5.853658375E0,-4.386327121E0,2.396019990E0,1.653183574E0,5.264389170E0
5.863685375E0,-6.166642027E0,-8.055942893E-1,2.239468684E0,6.609967930E0
5.873711375E0,-6.624831600E0,-4.580147994E0,1.408832817E0,8.176243592E0
5.883738375E0,-6.656808268E0,-7.912782589E0,-1.407310787E-1,1.034142301E1
5.893764375E0,-6.510876968E0,-1.012578005E1,-2.186441748E0,1.223533686E1
5.903791375E0,-6.154973323E0,-1.077043090E1,-3.888710650E0,1.300030572E1
5.913818375E0,-6.442306670E0,-8.780760237E0,-3.071189503E0,1.131535552E1
5.923844375E0,-7.582309070E0,-4.771912109E0,1.038523972E-2,8.958943233E0
5.933871375E0,-8.025187123E0,-1.261812181E0,2.191476785E0,8.414176659E0
5.943896833E0,-7.337114267E0,1.643162908E0,3.090401407E0,8.129194977E0
5.953923833E0,-5.948274835E0,3.845040720E0,3.515798040E0,7.907410923E0
5.963950833E0,-4.469592057E0,4.680693791E0,4.366827241E0,7.807389299E0
5.973976833E0,-2.730584221E0,4.288990569E0,5.440421936E0,7.446456951E0
5.984003833E0,-9.018078840E-1,2.762291332E0,6.240104105E0,6.883488223E0
5.994029833E0,3.381526673E-1,9.554210043E-1,6.413623738E0,6.493207680E0
6.004056833E0,2.182263035E0,1.464142799E-1,5.998623455E0,6.384919142E0
6.014083833E0,3.532253274E0,-6.586514211E-1,5.292093862E0,6.396631327E0
6.024109833E0,4.265644391E0,-9.144840628E-1,4.281340364E0,6.112436378E0
6.034136833E0,5.486217329E0,-9.844588619E-1,3.452885216E0,6.556687894E0
6.044162833E0,6.293986782E0,-9.676475322E-1,2.513990489E0,6.846222283E0
6.054189833E0,6.701717223E0,-6.251854670E-1,1.717353550E0,6.946450447E0
6.064216833E0,6.273276529E0,-1.384562194E-1,1.407218986E0,6.430663559E0
6.074242833E0,5.312498306E0,4.910380608E-1,1.383729551E0,5.511666182E0
6.084269833E0,4.267320203E0,1.161210251E0,1.462488914E0,4.658036580E0
6.094295833E0,3.315655450E0,1.721631957E0,1.442222757E0,4.004696510E0
6.104322833E0,2.370606236E0,1.909821085E0,1.388670594E0,3.345982146E0
6.114349833E0,1.517349246E0,1.765684295E0,1.288075096E0,2.660662928E0
6.124375833E0,5.018250042E-1,1.327078802E0,1.333969892E0,1.947419357E0
6.134402833E0,-5.954599768E-1,8.689477015E-1,1.443408573E0,1.786916618E0
6.144428833E0,-1.705032881E0,3.992449611E-1,1.303193511E0,2.182852948E0
6.154455833E0,-2.632776091E0,2.560495734E-2,9.493492556E-1,2.798826462E0
6.164482833E0,-3.151097260E0,-1.944865787E-1,5.118841155E-1,3.198322109E0
6.174508833E0,-3.309618199E0,-3.601919925E-1,8.175693870E-2,3.330164425E0
6.184535833E0,-3.488676607E0,-4.127520293E-1,-5.804973905E-1,3.560646841E0
6.194561833E0,-3.617955622E0,-3.235089004E-1,-1.350105576E0,3.875183345E0
6.204588833E0,-3.518707615E0,-1.507055515E-1,-1.825234094E0,3.966799079E0
6.214615833E0,-3.144774081E0,1.061678946E-1,-1.860698480E0,3.655553921E0
6.224641833E0,-2.716050674E0,3.698264498E-1,-1.392704735E0,3.074626700E0
6.234668833E0,-2.264427525E0,6.796780086E-1,-5.956405096E-1,2.438110298E0
6.244695833E0,-1.534088947E0,8.715245694E-1,-4.093854949E-2,1.764839918E0
6.254721833E0,-5.759282300E-1,1.032222428E0,2.766131345E-1,1.213956874E0
6.264748833E0,-2.801284075E-2,1.284439151E0,5.617080939E-1,1.402171400E0
6.274774833E0,2.944555476E-1,1.483538014E0,7.259096769E-1,1.677657285E0
6.284801833E0,8.661948323E-1,1.752636818E0,7.140900421E-1,2.081334642E0
6.294827833E0,1.200948513E0,1.848527647E0,6.385393381E-1,2.295008557E0
6.304854833E0,1.518480682E0,1.799518039E0,2.829783587E-1,2.371523879E0
6.314881833E0,1.805635981E0,1.587044256E0,-4.687151456E-1,2.449229400E0
6.324907833E0,1.989040039E0,1.103581848E0,-1.535360717E0,2.744358887E0
6.334934833E0,2.036080597E0,4.473926890E-1,-2.669695410E0,3.387190281E0
6.344960833E0,2.142527989E0,-2.857791567E-1,-3.821005740E0,4.390009200E0
6.354987833E0,2.417400919E0,-1.053657151E0,-4.821783596E0,5.495781804E0
6.365014833E0,2.940516220E0,-1.661304479E0,-5.499282348E0,6.453578430E0
6.375040833E0,3.658493783E0,-1.859621569E0,-5.459996660E0,6.830397695E0
6.385067833E0,4.348512008E0,-1.564966339E0,-4.686668476E0,6.582061814E0
6.395094833E0,4.883084051E0,-7.923409903E-1,-3.310902248E0,5.952679043E0
6.405120833E0,5.249270024E0,1.535759497E-1,-1.913124762E0,5.589138370E0
6.415147833E0,5.500076984E0,8.271325082E-1,-1.058658274E0,5.661779964E0
6.425173833E0,5.801314425E0,1.383897951E0,-7.356130582E-1,6.009288574E0
6.435200833E0,6.157678245E0,1.893610849E0,-8.185482109E-1,6.494057637E0
6.445227833E0,6.548824228E0,2.052242886E0,-9.293681502E-1,6.925498162E0
6.455253833E0,6.963881814E0,1.576250880E0,-9.680264318E-1,7.205365496E0
6.465280833E0,7.424341861E0,8.641255027E-1,-1.128451810E0,7.559164533E0
6.475306833E0,7.520070722E0,8.301467478E-2,-1.428105240E0,7.654922578E0
6.485333833E0,7.362725072E0,-6.012288398E-1,-1.777046605E0,7.597966257E0
6.495360833E0,6.700966440E0,-1.345448999E0,-1.972224909E0,7.113568397E0
6.505386833E0,5.479293641E0,-2.123728606E0,-1.987110751E0,6.203345156E0
6.515413833E0,3.946143172E0,-2.722543715E0,-2.279125378E0,5.308361583E0
6.525439833E0,2.045805686E0,-3.231713991E0,-2.951024251E0,4.830925414E0
6.535466833E0,4.287561509E-1,-3.884032878E0,-3.828898312E0,5.470832251E0
6.545493833E0,-8.167928767E-1,-4.892210970E0,-3.371386431E0,5.997259812E0
6.555519833E0,-1.927956516E0,-6.170250344E0,-8.276334684E-1,6.517206671E0
6.565546833E0,-2.769401254E0,-7.091626520E0,2.152504069E0,7.911638501E0
6.575572833E0,-3.169202578E0,-7.526500320E0,4.077285109E0,9.127776614E0
6.585599833E0,-3.349940599E0,-7.676725815E0,4.520053528E0,9.517620771E0
6.595626833E0,-3.160369189E0,-7.724547268E0,3.970231654E0,9.242256396E0
6.605652833E0,-2.821598471E0,-7.185024680E0,3.016129489E0,8.287522831E0
6.615679833E0,-1.941858564E0,-5.591387689E0,8.164370736E-1,5.975031419E0
6.625705833E0,-4.128403223E-1,-3.611684775E0,-2.239366358E0,4.269597842E0
6.635732833E0,1.398710117E0,-2.066088508E0,-4.492029870E0,5.138428170E0
6.645759833E0,1.886352700E0,-1.431274431E0,-5.146494684E0,5.665093162E0
6.655785833E0,7.006876391E-1,-1.226688541E0,-3.647119779E0,3.911164869E0
6.665812833E0,-2.829198682E-1,-1.196443818E0,-9.290719888E-1,1.541004939E0
6.675838833E0,-1.081782843E0,-9.772866672E-1,1.891141862E0,2.387836027E0
6.685865833E0,-1.606908417E0,-5.105168903E-1,4.260104154E0,4.581623026E0
6.695892833E0,-1.078212533E0,8.311817050E-3,5.640969154E0,5.743095363E0
6.705918833E0,-6.608762866E-1,4.049208534E-1,6.250815620E0,6.298683535E0
6.715945833E0,-5.976520979E-1,8.216437268E-1,6.272086036E0,6.353845268E0
6.725971833E0,-4.157206607E-1,1.401619107E0,5.701101919E0,5.885569037E0
6.735998833E0,-1.104118037E-1,1.956286569E0,4.977004368E0,5.348814858E0
6.746025833E0,-2.617652267E-1,2.176524870E0,4.294113899E0,4.821327174E0
6.756051833E0,-1.323983871E0,2.033701365E0,3.689372637E0,4.415919495E0
6.766078833E0,-2.165588822E0,1.973996031E0,3.326263468E0,4.432884381E0
6.776104833E0,-2.951836429E0,2.112593753E0,3.298379559E0,4.904660883E0
6.786131833E0,-3.666093117E0,2.337907437E0,3.411961430E0,5.526982063E0
6.796158833E0,-4.305838736E0,2.518300472E0,3.677240834E0,6.197110991E0
6.806184833E0,-5.035178316E0,2.596447340E0,4.015664519E0,6.944070924E0
6.816211833E0,-5.815879839E0,2.535516429E0,4.243922569E0,7.633097709E0
6.826237833E0,-6.568811765E0,2.416386427E0,4.222595142E0,8.174259667E0
6.836264833E0,-7.097373748E0,2.397183586E0,3.905827789E0,8.448354513E0
6.846291833E0,-7.366570786E0,2.528194546E0,3.381642155E0,8.490797163E0
6.856317833E0,-7.429844091E0,2.978240116E0,2.816130448E0,8.485463341E0
6.866344833E0,-7.216571578E0,3.777046958E0,2.616900023E0,8.555299807E0
6.876371833E0,-6.475018333E0,4.598662033E0,2.929294243E0,8.464887458E0
6.886397833E0,-5.209725305E0,4.688634894E0,3.130191417E0,7.676107948E0
6.896424833E0,-3.279154791E0,4.009276144E0,2.357370187E0,5.690724518E0
6.906450833E0,-8.665877652E-1,3.047171187E0,8.719824064E-1,3.285814955E0
6.916477833E0,2.172592033E0,1.694573967E0,-1.617488369E0,3.194996978E0
6.926504833E0,6.951088691E0,-7.199033439E-2,-6.493452265E0,9.512504346E0
6.936531833E0,1.219997221E1,-2.348537090E0,-1.171656419E1,1.707726046E1
6.946558833E0,1.367053993E1,-4.914505234E0,-1.258585804E1,1.922081805E1
6.956584833E0,1.052782290E1,-6.605476146E0,-9.374121063E0,1.556732205E1
6.966611833E0,6.394708580E0,-7.254484339E0,-6.077463217E0,1.142170740E1
6.976638833E0,3.625601733E0,-6.255921993E0,-4.039138167E0,8.282281391E0
6.986664833E0,1.336564155E0,-4.631638575E0,-2.450278058E0,5.407618902E0
6.996691833E0,-1.165719331E0,-3.338554900E0,-1.044829025E0,3.687345668E0
7.006717833E0,-2.808704191E0,-2.061298469E0,1.276733691E-1,3.486268937E0
7.016744833E0,-3.214857638E0,-6.676152027E-1,-1.980615664E-1,3.289414549E0
7.026771833E0,-2.223142674E0,1.070494793E0,-1.911702426E0,3.121366466E0
7.036797833E0,-1.061518440E0,2.638672423E0,-3.157995512E0,4.249982260E0
7.046824833E0,-1.663533438E0,3.091183180E0,-8.375060534E-1,3.608901957E0
7.056850833E0,-3.759657338E0,2.364259084E0,4.407649285E0,6.257165216E0
7.066877833E0,-5.025405280E0,6.270951676E-1,8.687033463E0,1.005547100E1
7.076904833E0,-4.401809379E0,-1.158671390E0,8.906240315E0,1.000197789E1
7.086930833E0,-3.045601210E0,-2.519048331E0,5.901492432E0,7.102739200E0
7.096957833E0,-6.614610082E-1,-3.935411777E0,6.309122300E-1,4.040179051E0
7.106983833E0,1.955486085E0,-5.654979667E0,-4.828494446E0,7.688763195E0
7.117010833E0,9.960942364E-1,-7.217546893E0,-5.023328349E0,8.849803082E0
7.127037833E0,-3.280714243E0,-7.434179801E0,-1.115290020E0,8.202072122E0
7.137063833E0,-6.161453208E0,-5.922241277E0,1.339882158E0,8.650533600E0
7.147090833E0,-6.772414738E0,-3.341542243E0,1.901286489E0,7.787579615E0
7.157116833E0,-6.198483040E0,-7.465952986E-1,1.853339905E0,6.512562118E0
7.167143833E0,-5.235586955E0,1.168842037E0,2.201105687E0,5.798485036E0
7.177170833E0,-4.193296207E0,2.038096132E0,3.099666612E0,5.598705389E0
7.187196833E0,-2.771158635E0,2.298974921E0,4.336279048E0,5.636303918E0
7.197223833E0,-8.997578502E-1,2.432954512E0,5.289904665E0,5.891682545E0
7.207249833E0,4.608035704E-1,1.964613004E0,5.688623961E0,6.035932965E0
7.217276833E0,1.403210135E0,1.200850280E0,5.797506133E0,6.084580301E0
7.227303833E0,2.224708850E0,7.337530589E-1,5.390336441E0,5.877367605E0
7.237329833E0,2.907157270E0,4.343235773E-1,4.730481955E0,5.569350042E0
7.247356833E0,3.298943815E0,2.244430339E-1,3.836144181E0,5.064524376E0
7.257382833E0,3.749648367E0,-6.093091071E-2,3.004882077E0,4.805506399E0
7.267409833E0,4.320326967E0,-3.764285409E-1,2.211590914E0,4.868065110E0
7.277436833E0,4.500871152E0,-3.821430248E-1,1.537988748E0,4.771717071E0
7.287462833E0,4.143931966E0,3.055287123E-2,8.726103973E-1,4.234920840E0
7.297489833E0,3.486602308E0,6.299597186E-1,6.008209965E-1,3.593637540E0
7.307515833E0,2.575962204E0,1.246150998E0,2.391862035E-1,2.871529841E0
7.317542833E0,1.933617498E0,1.740406197E0,2.512092483E-1,2.613617502E0
7.327569833E0,1.058578168E0,1.999696882E0,3.950074840E-1,2.296825259E0
7.337595833E0,-2.189139068E-2,2.031158411E0,4.871666193E-1,2.088878895E0
7.347622833E0,-9.701852238E-1,1.794414589E0,6.962680212E-1,2.155451750E0
7.357648833E0,-1.828336042E0,1.633983364E0,8.654420033E-1,2.600327706E0
7.367675833E0,-2.294821351E0,1.448310294E0,9.073301406E-1,2.861303152E0
7.377702833E0,-2.418057561E0,1.041375074E0,7.066984306E-1,2.725965349E0
7.387728833E0,-2.157536622E0,7.350207353E-1,3.680987437E-1,2.308834433E0
7.397755833E0,-1.706323362E0,5.100806880E-1,-4.403757378E-2,1.781477205E0
7.407782833E0,-1.394465331E0,3.018437970E-1,-5.229197118E-1,1.519568446E0
7.417808833E0,-1.446628342E0,1.879406208E-1,-6.988356797E-1,1.617537185E0
7.427835833E0,-1.480501847E0,1.137721986E-1,-8.068068556E-1,1.689901516E0
7.437861833E0,-1.151912009E0,1.747498870E-2,-7.086030149E-1,1.352525373E0
7.447888833E0,-7.932101789E-1,8.255683780E-3,-4.044973688E-1,8.904317299E-1
7.457915833E0,-6.762149951E-1,-6.832062185E-2,-4.466212951E-2,6.811234343E-1
7.467941833E0,-6.082262027E-1,-5.392594635E-2,4.778063965E-1,7.753361038E-1
7.477968833E0,-4.961675307E-1,-5.914283216E-2,9.987476297E-1,1.116770756E0
7.487994833E0,-4.060139903E-1,-4.505279660E-2,1.272640640E0,1.336596915E0
7.498021833E0,-3.524853623E-1,7.730954647E-2,1.387522055E0,1.433680630E0
7.508048833E0,-9.637146950E-2,2.449883956E-1,1.014714110E0,1.048308876E0
7.518074833E0,2.723288065E-1,3.397466183E-1,3.562556104E-1,5.625911512E-1
7.528101833E0,8.772586414E-1,6.429113013E-1,-5.786416304E-1,1.231967452E0
7.538127833E0,1.537055824E0,9.502707767E-1,-2.086847293E0,2.760522918E0
7.548154833E0,2.486672298E0,1.026575187E0,-4.128469296E0,4.927641876E0
7.558181833E0,3.821626422E0,7.451446044E-1,-6.615654395E0,7.676389259E0
7.568207833E0,5.311547549E0,-8.596459508E-2,-8.113095918E0,9.697538484E0
7.578234833E0,6.363375691E0,-1.083798963E0,-7.571937863E0,9.949945396E0
7.588260833E0,6.532940851E0,-1.779664988E0,-5.433951407E0,8.681840331E0
7.598287833E0,6.240015228E0,-1.657505543E0,-2.822018886E0,7.046197930E0
7.608314833E0,6.089162911E0,-6.784115016E-1,-8.206187099E-1,6.181550145E0
7.618340833E0,6.357281138E0,7.555701900E-1,3.132411897E-1,6.409682505E0
7.628367833E0,6.697359878E0,2.193903964E0,7.028967172E-1,7.082507164E0
7.638393833E0,7.153126949E0,3.160620620E0,6.720316046E-1,7.849100224E0
7.648420833E0,7.927180188E0,3.407798797E0,1.617661446E-1,8.630147546E0
7.658447833E0,8.672867414E0,2.700851129E0,-5.408230090E-1,9.099764586E0
7.668473833E0,9.217674716E0,1.243408654E0,-1.252143225E0,9.385065524E0
7.678500833E0,9.489011250E0,-1.267898548E-1,-2.214518323E0,9.744819217E0
7.688526833E0,9.152021593E0,-1.148945131E0,-3.356929775E0,9.815729809E0
7.698553833E0,8.104088282E0,-1.888066519E0,-4.266851256E0,9.351313368E0
7.708580833E0,6.273458378E0,-2.622328870E0,-4.247540241E0,8.017137072E0
7.718606833E0,3.896021424E0,-2.867398542E0,-3.942612623E0,6.240605069E0
7.728633833E0,2.045397550E0,-3.032561919E0,-3.616566031E0,5.143892766E0
7.738659833E0,7.554813123E-1,-3.712719984E0,-1.944663473E0,4.258727242E0
7.748686833E0,-5.673044640E-1,-4.734447829E0,1.444976942E0,4.982448090E0
7.758713833E0,-2.333931330E0,-5.510006141E0,4.580411996E0,7.535753259E0
7.768739833E0,-3.212897359E0,-5.611124965E0,5.704317888E0,8.622451819E0
7.778766833E0,-3.865722907E0,-5.648996211E0,5.571797177E0,8.826091749E0
7.788792833E0,-3.782836286E0,-5.499087051E0,4.978533415E0,8.326800329E0
7.798819833E0,-3.378008403E0,-5.297600770E0,3.917560520E0,7.404241698E0
7.808846833E0,-2.841401821E0,-5.125624217E0,1.701814720E0,6.102602828E0
7.818872833E0,-1.409090679E0,-4.760917005E0,-1.976700368E0,5.344081924E0
7.828899833E0,1.145524510E0,-4.558314491E0,-5.304209293E0,7.086966462E0
7.838925833E0,1.611080405E0,-4.919015776E0,-7.295986122E0,8.945597228E0
7.848952833E0,-3.851350451E-1,-5.095556080E0,-6.416621021E0,8.202807208E0
7.858979833E0,-2.826254609E0,-4.624180452E0,-3.549828543E0,6.478583383E0
7.869005833E0,-4.674812661E0,-3.732640278E0,-4.303413311E-1,5.997638746E0
7.879032833E0,-5.387732091E0,-2.727458299E0,2.404100257E0,6.499721833E0
7.889059833E0,-4.298132105E0,-1.350811481E0,4.173137346E0,6.141148635E0
7.899085833E0,-2.201216492E0,-4.770158529E-2,5.044177766E0,5.503758608E0
7.909112833E0,-1.952122182E-1,1.154488292E0,5.205769079E0,5.335820717E0
7.919138833E0,9.295523375E-1,2.007647341E0,4.966779342E0,5.437243090E0
7.929165833E0,1.059148856E0,2.599037656E0,4.704082361E0,5.477698778E0
7.939192458E0,5.968954682E-2,2.628914005E0,4.591103045E0,5.290839145E0
7.949218458E0,-1.495146491E0,2.336657887E0,4.217119517E0,5.047725244E0
7.959245458E0,-3.062121348E0,2.111258249E0,3.731182275E0,5.268369740E0
7.969271458E0,-4.194361569E0,2.087831379E0,3.543832808E0,5.874560393E0
7.979298458E0,-5.138762911E0,2.083523735E0,3.414276343E0,6.511930463E0
7.989325458E0,-6.058121213E0,2.066845137E0,3.224526594E0,7.167304459E0
7.999351458E0,-6.709106934E0,2.219771461E0,2.980260914E0,7.669514738E0
8.009378458E0,-7.191535555E0,2.393212157E0,2.742175741E0,8.060097757E0
8.019404458E0,-7.484552395E0,2.802519591E0,2.616862016E0,8.409554532E0
8.029431458E0,-7.380154452E0,3.598534387E0,2.643929654E0,8.625919864E0
8.039458458E0,-6.638624597E0,4.742650888E0,2.952824024E0,8.676591710E0
8.049484458E0,-5.431575683E0,5.855481277E0,3.510896319E0,8.724395013E0
8.059511458E0,-3.901214336E0,6.557643583E0,3.919483377E0,8.578141559E0
8.069537458E0,-2.522644368E0,6.666922197E0,3.763627013E0,8.060798625E0
8.079564458E0,-1.067705671E0,6.375727349E0,3.026510051E0,7.137902893E0
8.089591458E0,5.720787156E-1,5.761814729E0,1.608338061E0,6.009370545E0
8.099617458E0,2.329475167E0,4.686246307E0,-4.133487377E-1,5.249592002E0
8.109644458E0,4.577455351E0,3.075131403E0,-3.362274715E0,6.458670289E0
8.119670458E0,7.228201690E0,1.001749663E0,-7.151181580E0,1.021713267E1
8.129697458E0,9.032333182E0,-1.617844464E0,-9.857051375E0,1.346706818E1
8.139724458E0,8.865848334E0,-4.342632925E0,-9.584681638E0,1.375964569E1
8.149750458E0,7.662660338E0,-6.747908472E0,-6.820138543E0,1.227863681E1
8.159777458E0,6.560530939E0,-8.270625170E0,-4.181051552E0,1.135451448E1
8.169804458E0,5.147613257E0,-8.194610782E0,-2.590909442E0,1.001810261E1
8.179830458E0,3.160951572E0,-6.427441294E0,-1.386405237E0,7.295597022E0
8.189857458E0,1.188621413E0,-3.803639510E0,-4.113606843E-1,4.006209180E0
8.199883458E0,-2.363684303E-1,-1.308194050E0,5.532927811E-3,1.329387949E0
8.209910458E0,-8.662193906E-1,8.509417856E-1,1.286785054E-1,1.221063517E0
8.219937458E0,-1.442412207E0,2.381389087E0,4.260591227E-1,2.816574752E0
8.229963458E0,-2.674463230E0,3.032689388E0,8.705898920E-1,4.136167943E0
8.239990458E0,-4.134217694E0,1.897217996E0,1.225586926E0,4.710971808E0
8.250016458E0,-5.566621807E0,-7.152665019E-1,1.503339610E0,5.810242206E0
8.260043458E0,-6.376937138E0,-3.932886364E0,2.241666653E0,7.820357524E0
8.270070458E0,-6.313617640E0,-6.950916783E0,1.830865255E0,9.567083119E0
8.280096458E0,-5.472928362E0,-8.801003298E0,-3.063941002E-2,1.036395401E1
8.290123458E0,-3.758034736E0,-9.606997536E0,-3.066169960E0,1.076190620E1
8.300149458E0,-2.932830347E0,-9.326765049E0,-4.233426525E0,1.065419825E1
8.310176458E0,-5.105067746E0,-6.738215543E0,-3.924180445E-1,8.462816158E0
8.320203458E0,-7.270512727E0,-3.435533895E0,3.304735774E0,8.693936220E0
8.330229458E0,-7.411635277E0,-6.358045954E-1,4.195769579E0,8.540554275E0
8.340256458E0,-6.119074928E0,1.762044988E0,3.953484059E0,7.495192907E0
8.350282458E0,-4.741362746E0,2.838033825E0,4.577445996E0,7.175511726E0
8.360309458E0,-3.592262664E0,2.607219665E0,6.043084513E0,7.498054138E0
8.370336458E0,-1.760903027E0,2.065258788E0,7.001833168E0,7.509443457E0
8.380362458E0,2.568287149E-1,1.406152453E0,7.434045900E0,7.570222200E0
8.390389458E0,1.706673610E0,4.973384356E-1,7.249042920E0,7.463826337E0
8.400415458E0,3.083339432E0,-2.522091222E-1,6.462032837E0,7.164388311E0
8.410442458E0,4.432463407E0,-5.026254880E-1,5.316306013E0,6.939918865E0
8.420469458E0,5.409820533E0,-8.683086008E-1,4.075082171E0,6.828353588E0
8.430495458E0,5.963124424E0,-1.290742450E0,2.986015451E0,6.792728262E0
8.440522458E0,6.046748378E0,-1.258221406E0,2.273797103E0,6.581522645E0
8.450549458E0,5.449576921E0,-6.552150124E-1,1.817330705E0,5.781858371E0
8.460575458E0,4.679989786E0,3.142112428E-1,1.192439353E0,4.839725686E0
8.470602458E0,3.774514529E0,1.203269273E0,8.528640577E-1,4.052430625E0
8.480628458E0,2.475328992E0,1.895963768E0,4.689662835E-1,3.153071773E0
8.490655458E0,1.470363944E0,2.216132154E0,1.032779083E-1,2.661555594E0
8.500682458E0,4.712697941E-1,2.205979634E0,-2.339143538E-1,2.267853013E0
8.510708458E0,-9.519231999E-1,2.037780383E0,-4.515181920E-1,2.294030371E0
8.520735458E0,-2.546012766E0,1.637206934E0,-4.651129684E-1,3.062508387E0
8.530761458E0,-3.506821979E0,1.171454573E0,-1.805699131E-1,3.701717399E0
8.540788458E0,-4.184118709E0,6.844277018E-1,2.640440328E-1,4.247941843E0
8.550815458E0,-4.029058736E0,5.747462153E-1,2.801427332E-1,4.079476371E0
8.560841458E0,-3.312850833E0,6.788822025E-1,2.422736795E-1,3.390362550E0
8.570868458E0,-2.718027618E0,7.320982969E-1,1.284153807E-1,2.817824082E0
8.580894458E0,-2.341638838E0,7.049023122E-1,2.694060758E-2,2.445584902E0
8.590921458E0,-1.879320254E0,6.361484116E-1,-3.860536426E-2,1.984444454E0
8.600948458E0,-1.423599960E0,6.497502047E-1,5.015639260E-2,1.565671689E0
8.610974458E0,-8.773975128E-1,7.405095166E-1,3.026097822E-1,1.187330375E0
8.621001458E0,-3.633600140E-1,6.277904016E-1,5.138439560E-1,8.889245745E-1
8.631027458E0,1.932744509E-1,6.169753915E-1,5.834994972E-1,8.709106213E-1
8.641054458E0,5.312473163E-1,4.818222642E-1,4.908819401E-1,8.691038399E-1
8.651081458E0,8.549798727E-1,4.442427939E-1,8.544653177E-2,9.672865927E-1
8.661107458E0,1.070657930E0,6.819467282E-1,-6.828694189E-1,1.441412636E0
8.671134458E0,1.356180979E0,9.833321035E-1,-1.667434115E0,2.363578939E0
8.681160458E0,1.677320003E0,1.359319764E0,-2.577164977E0,3.361983333E0
8.691187458E0,2.188522479E0,1.563153117E0,-3.171066670E0,4.157973321E0
8.701214458E0,2.883283088E0,1.055466279E0,-3.288532555E0,4.499086218E0
8.711240458E0,3.435996703E0,-1.756018263E-1,-2.979382077E0,4.551222573E0
8.721267458E0,3.819602993E0,-1.406150115E0,-2.490293478E0,4.771602119E0
8.731294458E0,3.960218297E0,-2.057018307E0,-2.075864468E0,4.921774737E0
8.741320458E0,4.082973573E0,-1.891397678E0,-1.999958253E0,4.924214799E0
8.751347458E0,4.215717940E0,-8.828845400E-1,-2.021539741E0,4.757981272E0
8.761373458E0,4.525288247E0,5.876703161E-1,-1.902357699E0,4.943941235E0
8.771400458E0,5.217341888E0,1.836870638E0,-1.618865973E0,5.763287009E0
8.781427458E0,5.948682970E0,2.543445253E0,-1.241384933E0,6.587638377E0
8.791453458E0,6.524357139E0,2.699931362E0,-9.080842853E-1,7.119092815E0
8.801480458E0,7.152965566E0,2.399231281E0,-7.144829750E-1,7.578371398E0
8.811506458E0,7.871863189E0,1.765701252E0,-7.488365364E-1,8.102140898E0
8.821533458E0,8.694142508E0,7.827749455E-1,-9.481938457E-1,8.780656133E0
8.831560458E0,9.380750052E0,-3.161057407E-1,-1.452553618E0,9.497805346E0
8.841586458E0,9.721544491E0,-1.132009841E0,-2.495885171E0,1.010046120E1
8.851613458E0,9.346262004E0,-1.850257253E0,-3.820167249E0,1.026497653E1
8.861639458E0,7.895938514E0,-2.332924440E0,-4.763040129E0,9.511831198E0
8.871666458E0,5.168509451E0,-2.463330798E0,-5.135177983E0,7.691003932E0
8.881693458E0,2.201025288E0,-2.405101300E0,-5.282847075E0,6.207857747E0
8.891719458E0,2.011442184E-1,-2.814467207E0,-4.492219319E0,5.304876914E0
8.901746458E0,-9.397995830E-1,-4.231224171E0,-1.622917070E0,4.628211432E0
8.911772458E0,-1.658797778E0,-5.583921964E0,2.331939769E0,6.274530871E0
8.921799458E0,-2.434626231E0,-5.977619087E0,5.529339960E0,8.498996130E0
8.931826458E0,-3.169367470E0,-6.037376461E0,6.616281216E0,9.501051617E0
8.941852000E0,-3.033394563E0,-5.989892392E0,6.112167027E0,9.079585850E0
8.951879000E0,-2.200615398E0,-5.839322496E0,5.007595246E0,8.001025277E0
8.961905000E0,-1.311408264E0,-5.515890194E0,2.851310805E0,6.346243738E0
8.971932000E0,4.029678833E-1,-4.816165591E0,-4.723369110E-1,4.856020622E0
8.981959000E0,2.120057724E0,-4.387363540E0,-2.971767541E0,5.707451787E0
8.991985000E0,1.997866704E0,-4.012149466E0,-4.430122181E0,6.301967728E0
9.002012000E0,9.209183389E-1,-3.378963838E0,-4.202266128E0,5.470331600E0
9.012038000E0,-7.546270341E-1,-2.855846198E0,-2.214998087E0,3.692091006E0
9.022065000E0,-2.417819579E0,-2.209385637E0,1.204555660E-2,3.275268158E0
9.032092000E0,-3.529457136E0,-1.388161740E0,2.063551401E0,4.317673572E0
9.042118000E0,-3.935345703E0,-5.651620442E-1,3.652267083E0,5.398648793E0
9.052145000E0,-3.670647513E0,1.844942719E-1,4.779325794E0,6.029066789E0
9.062172000E0,-2.780768534E0,9.111341929E-1,5.153844634E0,5.926630887E0
9.072198000E0,-1.894369233E0,1.649348093E0,5.103489583E0,5.688109514E0
9.082225000E0,-1.411659361E0,2.188466054E0,5.013119695E0,5.649206572E0
9.092251000E0,-1.640325839E0,2.611610339E0,4.724926223E0,5.642349266E0
9.102278000E0,-2.114040354E0,2.747959807E0,4.356655717E0,5.567845073E0
9.112305000E0,-3.102398139E0,2.592703367E0,3.994865681E0,5.683831170E0
9.122331000E0,-4.080910968E0,2.383259026E0,3.591717703E0,5.935839787E0
9.132358000E0,-4.945331170E0,2.278541826E0,3.254093040E0,6.343277918E0
9.142384000E0,-5.789300151E0,2.114211093E0,2.893084776E0,6.808511166E0
9.152411000E0,-6.475234095E0,2.045245523E0,2.504720314E0,7.237769663E0
9.162438000E0,-7.175396655E0,2.072684167E0,2.269383040E0,7.805923148E0
9.172464000E0,-7.717086806E0,2.359873672E0,2.096432049E0,8.337713107E0
9.182491000E0,-7.705654330E0,2.865363711E0,2.076556193E0,8.479357492E0
9.192517000E0,-7.049850503E0,3.510703946E0,2.254270326E0,8.191896545E0
9.202544000E0,-5.937409539E0,4.141975195E0,2.309657784E0,7.598901870E0
9.212571000E0,-4.600586936E0,4.516557185E0,1.991165210E0,6.747549767E0
9.222597000E0,-2.936426092E0,4.691760816E0,1.302906997E0,5.686192434E0
9.232624000E0,-1.092240003E0,4.467284453E0,1.541422525E-1,4.601453949E0
9.242650000E0,8.668310094E-1,3.594119155E0,-1.606619857E0,4.031168052E0
9.252677000E0,3.536321767E0,2.248342711E0,-4.597805708E0,6.220967282E0
9.262704000E0,6.755501082E0,3.566123271E-1,-8.202365944E0,1.063215756E1
9.272730000E0,8.549485316E0,-1.810668095E0,-9.437349930E0,1.286218457E1
9.282757000E0,8.529462111E0,-3.525217320E0,-8.055252922E0,1.225014207E1
9.292783000E0,7.941091298E0,-4.729233867E0,-6.032744297E0,1.103723642E1
9.302810000E0,7.216155256E0,-4.909359099E0,-3.844446935E0,9.537005593E0
9.312837000E0,5.996615521E0,-3.866944975E0,-1.932712642E0,7.392431217E0
9.322863000E0,4.634738184E0,-2.084231248E0,-4.804826671E-1,5.104476616E0
9.332890000E0,2.897040417E0,-3.887287438E-1,7.010048506E-1,3.005887725E0
9.342917000E0,1.057104084E0,8.364991629E-1,1.335351735E0,1.897462556E0
9.352943000E0,-3.506388116E-1,1.758641909E0,1.090322117E0,2.098707044E0
9.362970000E0,-1.100901484E0,2.403756441E0,4.810784984E-1,2.687278479E0
9.372996000E0,-1.594590088E0,2.539716484E0,4.752575952E-1,3.036238981E0
9.383023000E0,-2.453632021E0,1.650140975E0,9.734304285E-1,3.113011746E0
9.393050000E0,-3.611887089E0,-4.357479590E-1,1.621280288E0,3.982983103E0
9.403076000E0,-4.427875974E0,-3.428555828E0,2.264510263E0,6.040619789E0
9.413103000E0,-5.111447643E0,-7.052199329E0,2.140029473E0,8.968842653E0
9.423129000E0,-5.033003152E0,-9.986421021E0,7.908736315E-1,1.121094138E1
9.433156000E0,-4.068476279E0,-1.069858733E1,-1.928012065E0,1.160730376E1
9.443183000E0,-3.215540593E0,-1.023089662E1,-4.911404455E0,1.179545847E1
9.453209000E0,-5.238053895E0,-7.846697942E0,-3.380147315E0,1.002164024E1
9.463236000E0,-8.747153950E0,-4.233894594E0,8.479734465E-1,9.754876966E0
9.473262000E0,-9.963012278E0,-6.041536170E-1,2.735447935E0,1.034936185E1
9.483289000E0,-8.909910028E0,2.519402672E0,3.004957799E0,9.734662701E0
9.493316000E0,-7.461299772E0,3.944167398E0,3.896543288E0,9.295724842E0
9.503342000E0,-6.126383947E0,3.009203462E0,6.052982095E0,9.122854706E0
9.513369000E0,-3.949266754E0,1.593127699E0,7.811073196E0,8.896495278E0
9.523396000E0,-1.652066171E0,4.218064427E-2,8.421707282E0,8.582322261E0
9.533422000E0,7.003639957E-1,-1.108356684E0,8.107455109E0,8.212782269E0
9.543449000E0,2.405975459E0,-2.241357043E0,7.502404529E0,8.191365760E0
9.553475000E0,3.686199060E0,-2.671719716E0,6.215658066E0,7.704580128E0
9.563502000E0,4.858861375E0,-2.792564707E0,4.672196617E0,7.296325975E0
9.573529000E0,5.671325558E0,-2.840422997E0,3.339629034E0,7.168337218E0
9.583555000E0,6.088609765E0,-2.604304828E0,2.034572308E0,6.927702143E0
9.593582000E0,6.024390965E0,-1.780817474E0,1.043403181E0,6.368146321E0
9.603608000E0,5.428527530E0,-4.481551659E-1,5.670881170E-1,5.476435257E0
9.613635000E0,4.370942512E0,9.975151098E-1,4.203791374E-1,4.502987170E0
9.623662000E0,3.201202343E0,2.217237278E0,4.938587576E-1,3.925268661E0
9.633688000E0,1.863468160E0,2.890661690E0,1.583455235E-1,3.442892954E0
9.643715000E0,7.976584482E-1,2.941542406E0,-5.858588487E-2,3.048337749E0
9.653741000E0,-4.770026967E-1,2.588041382E0,-3.216969945E-1,2.651222119E0
9.663768000E0,-1.815861884E0,2.051804929E0,-3.265759112E-1,2.759331382E0
9.673795000E0,-2.593749142E0,1.465789960E0,-2.639842451E-1,2.990946756E0
9.683821000E0,-2.933593993E0,9.155798310E-1,-1.576175451E-1,3.077190835E0
9.693848000E0,-3.192794924E0,4.870929444E-1,-1.929698110E-2,3.229794318E0
9.703874000E0,-3.308791403E0,3.698925233E-1,1.234478787E-2,3.329425389E0
9.713901000E0,-2.968967602E0,3.684663874E-1,2.065587401E-2,2.991815964E0
9.723928000E0,-2.692351617E0,5.157174039E-1,-2.745633200E-2,2.741436762E0
9.733954000E0,-2.331502689E0,7.145122111E-1,1.092881151E-1,2.440978571E0
9.743981000E0,-1.632437068E0,8.978826481E-1,1.147785044E-1,1.866606047E0
9.754008000E0,-1.263398530E0,9.926309305E-1,3.085564005E-1,1.636062060E0
9.764034000E0,-8.602485064E-1,1.052778899E0,6.292366373E-1,1.498102015E0
9.774061000E0,-2.942994270E-1,1.108682958E0,7.902944648E-1,1.392966402E0
9.784087000E0,2.494509906E-1,9.559788287E-1,8.154503560E-1,1.281046682E0
9.794114000E0,6.512570322E-1,8.379241294E-1,5.965692667E-1,1.217434786E0
9.804141000E0,1.002340232E0,8.492379069E-1,-7.044601165E-2,1.315619095E0
9.814167000E0,1.380573224E0,9.024896693E-1,-1.083103144E0,1.973216271E0
9.824194000E0,1.850675914E0,8.510482049E-1,-2.346367189E0,3.107205073E0
9.834220000E0,2.513534699E0,6.737758291E-1,-3.742985172E0,4.558702507E0
9.844247000E0,3.361687947E0,1.910636187E-1,-5.052826383E0,6.071944138E0
9.854274000E0,4.315189603E0,-6.399952948E-1,-5.570691469E0,7.075525332E0
9.864300000E0,5.127473107E0,-1.488288292E0,-5.043296006E0,7.344441238E0
9.874327000E0,5.616614331E0,-1.991019030E0,-3.955701615E0,7.152488279E0
9.884353000E0,5.946733509E0,-1.789258515E0,-2.966455053E0,6.882219194E0
9.894380000E0,6.095997722E0,-7.867662549E-1,-2.244005247E0,6.543374428E0
9.904407000E0,5.927614283E0,5.953757769E-1,-1.665060146E0,6.185750455E0
9.914433000E0,5.930391126E0,1.828637173E0,-9.808587313E-1,6.282956045E0
9.924460000E0,6.226837943E0,2.770653436E0,-4.551870275E-1,6.830609523E0
9.934486000E0,6.580011522E0,3.393856696E0,-2.740052215E-1,7.408771408E0
9.944513708E0,7.024111644E0,3.676388894E0,-5.249770546E-1,7.945412551E0
9.954540708E0,7.408753184E0,3.586472166E0,-1.146450709E0,8.310641105E0
9.964566708E0,7.643194957E0,2.972229763E0,-2.027587516E0,8.447703241E0
9.974593708E0,7.836631376E0,2.141524606E0,-3.011371025E0,8.664137257E0
9.984620708E0,7.823808432E0,1.250115995E0,-3.760746675E0,8.770289843E0
9.994646708E0,7.132784486E0,4.153540403E-1,-4.056096554E0,8.215902431E0
1.000467371E1,5.430041374E0,-2.624125135E-1,-3.733419127E0,6.594894088E0
1.001469971E1,3.401000825E0,-8.448747146E-1,-3.391621306E0,4.876855029E0
1.002472671E1,1.774474415E0,-1.653851033E0,-3.146047604E0,3.972605973E0
1.003475371E1,1.085534416E0,-3.103564074E0,-1.811552778E0,3.753960362E0
1.004477971E1,1.042220289E0,-4.928907511E0,9.045515437E-1,5.118453465E0
1.005480671E1,4.353021088E-1,-6.401347509E0,4.090438421E0,7.609101414E0
1.006483271E1,-2.572628707E-1,-6.756132581E0,6.277450272E0,9.225935918E0
1.007485971E1,-1.214804660E0,-6.909829568E0,6.730150478E0,9.721955590E0
1.008488671E1,-1.758382292E0,-7.254248697E0,5.961174377E0,9.552572030E0
1.009491271E1,-1.387300445E0,-7.447882751E0,4.673628016E0,8.901593050E0
1.010493971E1,-8.415570045E-1,-7.286440542E0,2.611957956E0,7.786061799E0
1.011496571E1,4.323138893E-2,-6.440437315E0,-7.675102043E-1,6.486152456E0
1.012499271E1,1.125945693E0,-5.375972756E0,-3.710540434E0,6.628495085E0
1.013501971E1,1.133718397E0,-4.832664680E0,-5.374733731E0,7.316264620E0
1.014504571E1,1.924546713E-1,-4.389603024E0,-5.350495852E0,6.923399408E0
1.015507271E1,-9.691099209E-1,-3.899088289E0,-3.937681374E0,5.625602023E0
1.016509871E1,-1.824967461E0,-3.192425964E0,-1.750445574E0,4.072609664E0
1.017512571E1,-2.242889598E0,-2.287350656E0,5.608140546E-1,3.252236027E0
1.018515271E1,-2.558013006E0,-1.405377113E0,2.545666026E0,3.872845322E0
1.019517871E1,-2.507328172E0,-6.023403955E-1,3.897665953E0,4.673468562E0
1.020520571E1,-2.321944538E0,-2.620955944E-1,4.822277394E0,5.358589348E0
1.021523271E1,-1.762650760E0,2.372589612E-1,5.293654484E0,5.584443331E0
1.022525871E1,-1.040144235E0,8.052592438E-1,5.098711238E0,5.265662235E0
1.023528571E1,-9.684714049E-1,1.153024149E0,4.857235557E0,5.085286502E0
1.024531171E1,-1.333751644E0,1.603602986E0,4.484464157E0,4.945791621E0
1.025533871E1,-1.837354787E0,2.071708851E0,4.097759719E0,4.945653132E0
1.026536571E1,-2.546899788E0,2.424055050E0,3.872083215E0,5.230274357E0
1.027539171E1,-3.564159776E0,2.654184501E0,3.862925891E0,5.888134400E0
1.028541871E1,-4.680833539E0,2.688880125E0,3.958365899E0,6.693947978E0
1.029544471E1,-5.792403853E0,2.576816483E0,3.975804927E0,7.483244644E0
1.030547171E1,-6.762526512E0,2.444165379E0,3.994979702E0,8.225908584E0
1.031549871E1,-7.503660511E0,2.316797819E0,3.899284463E0,8.767946881E0
1.032552471E1,-8.024953235E0,2.322629247E0,3.610319450E0,9.101037720E0
1.033555171E1,-8.320948647E0,2.479831055E0,3.228497438E0,9.263419679E0
1.034557771E1,-8.358208274E0,2.800949614E0,2.872390310E0,9.271223781E0
1.035560471E1,-8.221934236E0,3.264191181E0,2.482633626E0,9.187960403E0
1.036563171E1,-7.809649984E0,3.730980839E0,2.021478345E0,8.888038343E0
1.037565771E1,-7.079301174E0,4.156810750E0,1.804514485E0,8.405465677E0
1.038568471E1,-5.900050508E0,4.547958487E0,1.904348091E0,7.689022308E0
1.039571171E1,-4.130083712E0,4.767339587E0,1.665856537E0,6.523817610E0
1.040573771E1,-1.782588596E0,4.662911823E0,9.540790683E-1,5.082384838E0
1.041576471E1,1.354309285E0,4.150014532E0,-6.285908854E-1,4.410430903E0
1.042579071E1,5.081457274E0,3.114213023E0,-3.740607110E0,7.036453107E0
1.043581771E1,9.333962971E0,1.313047239E0,-8.471996845E0,1.267366120E1
1.044584471E1,1.355328455E1,-1.825391968E0,-1.296488976E1,1.884441415E1
1.045587071E1,1.616212506E1,-5.549894092E0,-1.345580562E1,2.175027163E1
1.046589771E1,1.450410496E1,-8.392752455E0,-8.000983159E0,1.856941265E1
1.047592371E1,1.147523673E1,-9.115950120E0,-3.747693935E0,1.512702266E1
1.048595071E1,8.307876027E0,-7.409075366E0,-1.796145950E0,1.127569697E1
1.049597771E1,5.020495958E0,-4.100344774E0,-6.720003220E-1,6.516885096E0
1.050600371E1,1.790634949E0,-1.533959139E0,1.169443130E-4,2.357838878E0
1.051603071E1,-5.545791686E-1,3.531811810E-1,-2.451603037E-1,7.017111765E-1
1.052605671E1,-1.381951413E0,1.783797800E0,-7.366269654E-1,2.373677228E0
1.053608371E1,-1.973770328E0,2.902387696E0,9.968099356E-2,3.511347312E0
1.054611071E1,-3.739921816E0,3.133431652E0,2.550891098E0,5.505674754E0
1.055613671E1,-6.306552449E0,2.244524480E0,4.816870181E0,8.246983222E0
1.056616371E1,-8.188461850E0,1.309595042E-1,6.539640006E0,1.048021704E1
1.057618971E1,-8.722985069E0,-2.749038618E0,6.862461859E0,1.143420590E1
1.058621671E1,-8.475230355E0,-5.590783086E0,5.296139551E0,1.145144005E1
1.059624371E1,-7.330948963E0,-7.560146953E0,1.595227434E0,1.065098048E1
1.060626971E1,-3.760076291E0,-8.465945562E0,-6.325305054E0,1.121694664E1
1.061629671E1,-1.027437651E0,-9.106368873E0,-1.063130225E1,1.403588863E1
1.062632371E1,-4.834846861E0,-7.802640926E0,-5.215315243E0,1.055729429E1
1.063634971E1,-7.676517069E0,-5.111334792E0,-4.362192446E-1,9.232818903E0
1.064637671E1,-7.920747081E0,-1.891573094E0,2.234970129E0,8.444606241E0
1.065640271E1,-6.475103703E0,4.823099220E-1,4.052498762E0,7.653909918E0
1.066642971E1,-4.982051100E0,1.316822201E0,6.161049750E0,8.032022652E0
1.067645671E1,-3.181565346E0,1.582189897E0,8.050258230E0,8.799564790E0
1.068648271E1,-1.163388631E0,1.488114045E0,9.037379914E0,9.232669832E0
1.069650971E1,4.745945209E-1,8.932984310E-1,8.840028200E0,8.897714348E0
1.070653571E1,1.781760630E0,2.956796622E-1,8.045409719E0,8.245648243E0
1.071656271E1,2.837809000E0,-2.355755478E-1,7.089578240E0,7.640076922E0
1.072658971E1,4.059087697E0,-2.183005339E-1,5.597692741E0,6.917948546E0
1.073661571E1,5.130283864E0,-4.751868439E-1,4.026683013E0,6.539097120E0
1.074664271E1,6.205687394E0,-6.288247740E-1,2.497100222E0,6.718741411E0
1.075666871E1,6.866459016E0,-6.972769582E-1,1.283725206E0,7.020142803E0
1.076669571E1,7.065623952E0,-3.056129122E-1,5.415603429E-1,7.092935125E0
1.077672271E1,7.029164223E0,3.391320759E-1,8.019611219E-1,7.082887962E0
1.078674871E1,4.038346161E0,1.153876673E0,1.119440666E-1,4.201452436E0
1.079677571E1,2.518895426E0,1.855903909E0,2.694204015E-1,3.140350433E0
1.080680271E1,8.077314466E-1,1.816847432E0,1.328005001E-1,1.992736976E0
1.081682871E1,-8.174319774E-1,1.439786807E0,1.697797537E-2,1.655738307E0
1.082685571E1,-2.160262594E0,1.227132345E0,4.933310464E-2,2.484959159E0
1.083688171E1,-3.380993991E0,1.086654743E0,1.393403184E-1,3.554061708E0
1.084690871E1,-3.945604643E0,6.313227046E-1,4.350749445E-1,4.019409728E0
1.085693571E1,-4.136799240E0,2.871748871E-1,5.872405457E-1,4.188129514E0
1.086696171E1,-4.277183578E0,3.666011256E-1,4.016184922E-1,4.311611434E0
1.087698871E1,-3.953188190E0,4.915520310E-1,-2.026498765E-3,3.983632057E0
1.088701471E1,-3.374960250E0,5.691469216E-1,-6.331669164E-1,3.480687468E0
1.089704171E1,-2.835319255E0,6.035010678E-1,-1.125070950E0,3.109506948E0
1.090706871E1,-2.194070610E0,6.521048784E-1,-1.355510888E0,2.660187283E0
1.091709471E1,-1.426330025E0,7.626353806E-1,-8.567631273E-1,1.830320497E0
1.092712171E1,-4.684023196E-1,7.852781385E-1,-1.835487771E-1,9.326052977E-1
1.093714771E1,7.092374378E-1,7.335829049E-1,4.244096231E-1,1.105117709E0
1.094717421E1,1.843678258E0,9.009840113E-1,7.946447933E-1,2.200541310E0
1.095720121E1,2.430089377E0,1.382911525E0,1.018486733E0,2.975750979E0
1.096722721E1,2.665222290E0,1.900094826E0,8.959467081E-1,3.393595543E0
1.097725421E1,2.895471317E0,2.477744769E0,2.705085683E-1,3.820490567E0
1.098728021E1,3.075736882E0,2.642804650E0,-9.262200093E-1,4.159622254E0
1.099730721E1,3.397682822E0,2.020427601E0,-2.145601870E0,4.497775409E0
1.100733421E1,3.771270786E0,1.054485117E0,-3.163625504E0,5.034178039E0
1.101736021E1,4.191380074E0,1.269810587E-1,-3.911555722E0,5.734462423E0
1.102738721E1,4.742183988E0,-6.709025073E-1,-4.274534497E0,6.419506548E0
1.103741421E1,5.170460082E0,-1.154080156E0,-4.312591685E0,6.831105731E0
1.104744021E1,5.213575696E0,-1.171068656E0,-3.989174001E0,6.668304324E0
1.105746721E1,5.044752547E0,-6.340568626E-1,-3.310120475E0,6.066997110E0
1.106749321E1,4.932656161E0,1.322283500E-1,-2.456064463E0,5.511881147E0
1.107752021E1,4.940105513E0,9.617155319E-1,-1.721861168E0,5.319242909E0
1.108754721E1,5.059897420E0,1.747058575E0,-1.408925203E0,5.535327072E0
1.109757321E1,5.437804137E0,2.362343536E0,-1.435009632E0,6.099969956E0
1.110760021E1,6.172607356E0,2.524326612E0,-1.707488712E0,6.883954105E0
1.111762621E1,7.323732330E0,2.318481233E0,-2.174050913E0,7.983665063E0
1.112765321E1,8.506790117E0,1.961772426E0,-2.685897460E0,9.133896995E0
1.113768021E1,9.671694054E0,1.617078479E0,-2.940368285E0,1.023730308E1
1.114770621E1,1.044662145E1,1.361336469E0,-2.730378399E0,1.088301902E1
1.115773321E1,9.978988041E0,1.102884275E0,-2.131430558E0,1.026350585E1
1.116776021E1,7.977200779E0,8.792230135E-1,-1.803887079E0,8.225738506E0
1.117778621E1,5.317236890E0,4.740478063E-1,-2.243887718E0,5.790747927E0
1.118781321E1,2.895190358E0,-6.280359846E-1,-2.121207432E0,3.643635187E0
1.119783921E1,1.346878351E0,-2.646980731E0,2.575379822E-1,2.981092769E0
1.120786621E1,3.431660700E-1,-4.904000126E0,4.283245679E0,6.520212706E0
1.121789321E1,-3.436677611E-1,-6.257976705E0,7.507635448E0,9.779824640E0
1.122791921E1,-1.574844040E0,-6.921811098E0,8.192463684E0,1.084011365E1
1.123794621E1,-2.409922330E0,-7.734975777E0,7.680068668E0,1.116337900E1
1.124797221E1,-2.283696731E0,-8.035103416E0,6.544701941E0,1.061184627E1
1.125799921E1,-1.725163091E0,-8.295039634E0,4.548478597E0,9.616263712E0
1.126802621E1,-1.017356467E0,-8.318983397E0,7.748224398E-1,8.416700586E0
1.127805221E1,5.202589363E-1,-7.691300585E0,-3.985583811E0,8.678228642E0
1.128807921E1,2.229405334E0,-6.955100466E0,-7.243762300E0,1.028667891E1
1.129810521E1,1.319206696E0,-6.660260464E0,-7.867380129E0,1.039206649E1
1.130813221E1,-1.068095096E0,-6.177599709E0,-6.179228743E0,8.802637852E0
1.131815921E1,-3.263731590E0,-5.214452779E0,-3.481120251E0,7.068285497E0
1.132818521E1,-4.685615392E0,-3.916608886E0,-6.900889760E-1,6.145814800E0
1.133821221E1,-4.889676202E0,-2.440383400E0,1.370690552E0,5.634110142E0
1.134823821E1,-4.566105321E0,-1.162292570E0,2.966918153E0,5.568019859E0
1.135826521E1,-3.649933167E0,-3.038692725E-1,4.204580163E0,5.576095678E0
1.136829221E1,-2.531588854E0,3.705713850E-1,4.918495958E0,5.544174219E0
1.137831821E1,-1.677806491E0,9.260749984E-1,5.445613094E0,5.772984626E0
1.138834521E1,-1.231103189E0,1.628689880E0,5.620792751E0,5.980096733E0
1.139837221E1,-1.477006089E0,2.288247619E0,5.681094502E0,6.300195147E0
1.140839821E1,-1.713952224E0,2.814902240E0,5.479295980E0,6.394059061E0
1.141842521E1,-2.263602775E0,3.304039956E0,5.155668966E0,6.528514382E0
1.142845121E1,-3.035811802E0,3.658540853E0,4.891802250E0,6.821349113E0
1.143847821E1,-3.804839358E0,3.817561145E0,4.921728299E0,7.298903006E0
1.144850521E1,-4.716468810E0,3.811389994E0,4.910579998E0,7.802920456E0
1.145853121E1,-5.707583558E0,3.510619746E0,4.810186813E0,8.248567042E0
1.146855821E1,-6.728713233E0,3.167825559E0,4.670772820E0,8.782187613E0
1.147858421E1,-7.574379076E0,2.926042022E0,4.444599595E0,9.256749206E0
1.148861121E1,-8.148290893E0,2.884647244E0,4.092382035E0,9.563651234E0
1.149863821E1,-8.456895241E0,3.070158931E0,3.503294354E0,9.654948178E0
1.150866421E1,-8.627483080E0,3.360535753E0,2.787836064E0,9.669472310E0
1.151869121E1,-8.556060510E0,3.779563015E0,2.160507300E0,9.599951033E0
1.152871721E1,-8.042964413E0,4.176585449E0,2.000150919E0,9.280826809E0
1.153874421E1,-6.991942018E0,4.617812834E0,2.364679791E0,8.706500965E0
1.154877121E1,-5.178532164E0,4.905960113E0,2.307959168E0,7.497487280E0
1.155879721E1,-3.117394493E0,4.439114322E0,1.375335288E0,5.596019259E0
1.156882421E1,6.844516754E-2,3.491497597E0,-7.662776113E-1,3.575251262E0
1.157885121E1,5.303303559E0,2.003374781E0,-5.681432471E0,8.026033521E0
1.158887721E1,1.161377481E1,-7.799115640E-1,-1.314046762E1,1.755448423E1
1.159890421E1,1.821109234E1,-5.501067502E0,-1.986254017E1,2.750320217E1
1.160893021E1,1.971205389E1,-1.063179225E1,-1.857939091E1,2.909972236E1
1.161895721E1,1.302949682E1,-1.160020810E1,-9.109010645E0,1.968010900E1
1.162898421E1,9.022411042E0,-9.307313116E0,-4.138815359E0,1.360734254E1
1.163901021E1,6.276769656E0,-4.678018105E0,-2.644754112E0,8.262954376E0
1.164903721E1,3.102414511E0,-1.292749214E0,-1.072376427E0,3.527912631E0
1.165906321E1,8.303338587E-2,3.769606376E-1,2.334904307E-1,4.511226515E-1
1.166909021E1,-2.116372223E0,1.092266901E0,1.076031814E0,2.613412106E0
1.167911721E1,-2.486034366E0,1.643805517E0,6.771607822E-1,3.056306623E0
1.168914321E1,-1.497937952E0,1.477820022E0,-1.864440259E-1,2.112470473E0
1.169917021E1,-1.613951973E0,2.056822425E-1,1.302247431E0,2.083985251E0
1.170919621E1,-3.195712100E0,-9.636252326E-1,5.495975747E0,6.430155428E0
1.171922321E1,-4.902435996E0,-2.388183551E0,8.915940846E0,1.045137793E1
1.172925021E1,-5.601343743E0,-3.773567864E0,9.585950484E0,1.172626594E1
1.173927621E1,-5.310278118E0,-4.711765310E0,7.397534716E0,1.025296571E1
1.174930321E1,-4.525340872E0,-4.980523807E0,1.996210772E0,7.019201155E0
1.175933021E1,-2.642737407E0,-4.077050636E0,-5.059429643E0,7.014572774E0
1.176935621E1,-3.596870270E0,-3.228275828E0,-7.224047828E0,8.691726387E0
1.177938321E1,-7.417787717E0,-2.744789447E0,-3.991018798E0,8.859214117E0
1.178940921E1,-9.693349802E0,-1.565449904E0,-4.502791670E-1,9.829263203E0
1.179943621E1,-9.808338221E0,-6.963776565E-1,2.612596765E0,1.017418804E1
1.180946321E1,-8.205828080E0,-4.728532201E-1,5.409556239E0,9.839842649E0
1.181948921E1,-5.784883164E0,-2.736631411E-1,7.585152571E0,9.543285821E0
1.182951621E1,-3.376426731E0,-2.178122914E-1,8.532506171E0,9.178854026E0
1.183954221E1,-1.065047527E0,-2.656530404E-1,8.483425813E0,8.554145854E0
1.184956921E1,9.384974080E-1,-7.282344568E-1,7.578200816E0,7.670738583E0
1.185959621E1,2.296679304E0,-7.466935319E-1,6.351454972E0,6.795091414E0
1.186962221E1,3.810231076E0,-4.267297983E-1,4.585566317E0,5.977238293E0
1.187964921E1,5.153057014E0,-2.848441869E-1,3.062840556E0,6.001343606E0
1.188967521E1,6.117684460E0,-2.908580482E-1,1.763324944E0,6.373380297E0
1.189970221E1,6.825547217E0,-3.539185148E-1,7.940021843E-1,6.880682568E0
1.190972921E1,7.042377761E0,-1.077174067E-2,7.319202492E-1,7.080318341E0
1.191975521E1,6.701244768E0,6.131910735E-1,9.075074574E-1,6.790158652E0
1.192978221E1,5.802079241E0,1.172658514E0,1.041483833E0,6.010319466E0
1.193980908E1,4.715040336E0,1.632052613E0,1.381140404E0,5.177137232E0
1.194983508E1,2.934370796E0,1.868576580E0,1.371519980E0,3.739408704E0
1.195986208E1,1.350860597E0,1.997724032E0,1.378073101E0,2.777554884E0
1.196988808E1,-2.878514099E-1,1.972914881E0,1.182943182E0,2.318319679E0
1.197991508E1,-1.717840038E0,1.754061785E0,8.564782217E-1,2.600242697E0
1.198994208E1,-2.941896747E0,1.371538691E0,7.487172532E-1,3.331133798E0
1.199996808E1,-3.738421420E0,1.019502395E0,6.446637118E-1,3.928202025E0
1.200999508E1,-3.670419764E0,7.266808516E-1,5.053365496E-1,3.775633898E0
1.202002108E1,-3.620330761E0,5.579559356E-1,2.800782676E-1,3.673765572E0
1.203004808E1,-3.627000387E0,3.493313742E-1,-8.595392391E-2,3.644797977E0
1.204007508E1,-3.289813095E0,-1.322874069E-2,-7.768774438E-1,3.380323027E0
1.205010108E1,-2.787035580E0,-3.785136580E-1,-1.567498183E0,3.219920879E0
1.206012808E1,-2.001607752E0,-7.125966632E-1,-2.030058696E0,2.938599310E0
1.207015408E1,-9.200126052E-1,-8.128547770E-1,-2.200655744E0,2.519928925E0
1.208018108E1,1.526377639E-1,-5.465380776E-1,-2.138585211E0,2.212588724E0
1.209020808E1,1.148433792E0,9.828760207E-2,-2.104650310E0,2.399606959E0
1.210023408E1,2.031119235E0,9.206493670E-1,-2.266947967E0,3.179951837E0
1.211026108E1,2.861938412E0,1.823051913E0,-2.806681055E0,4.403597199E0
1.212028808E1,3.666805893E0,2.543221890E0,-3.466365094E0,5.650586695E0
1.213031408E1,4.190596547E0,2.614091898E0,-3.607873560E0,6.116479992E0
1.214034108E1,4.313332235E0,1.910909252E0,-3.068020020E0,5.627535515E0
1.215036708E1,4.006440537E0,8.641430444E-1,-2.181372796E0,4.642918937E0
1.216039408E1,3.632466072E0,1.612954438E-1,-1.385786601E0,3.891173408E0
1.217042108E1,3.382260206E0,2.105670065E-1,-7.744591085E-1,3.476177423E0
1.218044708E1,2.935744892E0,7.907148796E-1,-3.901940560E-1,3.065302512E0
1.219047408E1,2.624859253E0,1.447829652E0,-3.359460012E-1,3.016447665E0
1.220050008E1,2.633757838E0,2.092265323E0,-5.944619302E-1,3.415792663E0
1.221052708E1,2.935364238E0,2.679525164E0,-9.732656101E-1,4.091877841E0
1.222055408E1,3.525881563E0,2.916933814E0,-1.313008647E0,4.760707446E0
1.223058008E1,4.394576080E0,2.734876662E0,-1.582493953E0,5.412590544E0
1.224060708E1,5.580161619E0,2.165909835E0,-1.781236281E0,6.245171879E0
1.225063408E1,7.043940722E0,1.432567835E0,-1.969058057E0,7.452955194E0
1.226066008E1,8.340269601E0,7.568273413E-1,-2.443410065E0,8.723711217E0
1.227068708E1,9.137224630E0,1.627572477E-1,-3.159469303E0,9.669416225E0
1.228071308E1,9.140277461E0,-5.351927251E-1,-3.590551769E0,9.834793608E0
1.229074008E1,8.094964871E0,-1.273771491E0,-3.931659326E0,9.088943566E0
1.230076708E1,5.932356375E0,-2.627938689E0,-4.235146191E0,7.748249942E0
1.231079308E1,3.362985152E0,-4.524849706E0,-2.320182480E0,6.096489214E0
1.232082008E1,1.318162968E0,-6.105557334E0,1.154676572E0,6.352059663E0
1.233084608E1,-4.315595984E-1,-7.188257021E0,5.242578471E0,8.907407687E0
1.234087308E1,-1.715185987E0,-7.895144463E0,7.787141712E0,1.122117396E1
1.235090008E1,-2.515463403E0,-8.102706585E0,8.825954536E0,1.224250316E1
1.236092608E1,-3.542371296E0,-8.091238441E0,8.040468822E0,1.194427364E1
1.237095308E1,-3.734221365E0,-7.584785365E0,6.381511999E0,1.059231201E1
1.238097908E1,-3.548537770E0,-6.933913080E0,4.753437539E0,9.125044622E0
1.239100608E1,-3.273661916E0,-6.390630147E0,1.886274347E0,7.423950898E0
1.240103308E1,-2.794173276E0,-6.268962454E0,-1.568310654E0,7.040375902E0
1.241105908E1,-1.055297295E0,-5.767338594E0,-4.517638335E0,7.401682441E0
1.242108608E1,-4.032462108E-1,-5.455921150E0,-5.098938695E0,7.478559949E0
1.243111308E1,-9.589755267E-1,-4.643967429E0,-4.369188347E0,6.447935666E0
1.244113908E1,-2.470864935E0,-3.842850938E0,-2.379414774E0,5.151144681E0
1.245116608E1,-3.244520563E0,-3.185620390E0,-2.469331795E-1,4.553687182E0
1.246119208E1,-2.716604698E0,-2.617575084E0,1.749731922E0,4.158509613E0
1.247121908E1,-1.890449259E0,-2.202366639E0,3.161746793E0,4.291952936E0
1.248124608E1,-1.803589455E0,-2.272080653E0,5.364643191E0,6.098744295E0
1.249127208E1,-6.806825602E-1,-1.722006764E0,5.881791993E0,6.166369523E0
1.250129908E1,2.022489329E0,2.475202399E-1,5.760834151E0,6.110559669E0
1.251132508E1,1.322077094E0,7.725692153E-1,6.095507140E0,6.284899230E0
1.252135208E1,6.952222466E-1,1.488030429E0,5.761159841E0,5.990703735E0
1.253137908E1,-5.301623654E-1,1.140323412E0,5.401280674E0,5.545740937E0
1.254140508E1,-1.522003922E0,1.111094350E0,5.260718288E0,5.588039325E0
1.255143208E1,-2.085267960E0,2.496941178E0,5.510172787E0,6.398832851E0
1.256145808E1,-2.892916961E0,2.933417115E0,5.673597786E0,7.011677143E0
1.257148508E1,-3.802322717E0,3.001616115E0,5.691573297E0,7.474046022E0
1.258151208E1,-4.510186644E0,3.023063702E0,5.363715822E0,7.632178269E0
1.259153808E1,-5.572785357E0,2.773910919E0,5.425132636E0,8.257274523E0
1.260156508E1,-6.425739754E0,2.135817724E0,5.534112457E0,8.745184356E0
1.261159208E1,-6.514658947E0,2.778767617E0,5.500253570E0,8.967447797E0
1.262161808E1,-6.086402441E0,3.394156659E0,4.834269741E0,8.481436082E0
1.263164508E1,-5.419324597E0,3.532033419E0,3.843781230E0,7.524559343E0
1.264167108E1,-4.514028264E0,2.830216683E0,3.090067823E0,6.159147408E0
1.265169808E1,-2.981608112E0,1.939845952E0,2.304363423E0,4.238287395E0
1.266172508E1,-7.095730680E-1,1.308432616E0,1.088529360E0,1.844013562E0
1.267175108E1,1.886659094E0,1.246142228E0,-6.214119664E-1,2.344889298E0
1.268177808E1,4.917627647E0,1.176457450E0,-2.691202931E0,5.727974077E0
1.269180408E1,8.607821233E0,1.844065636E-1,-5.722054832E0,1.033781910E1
1.270183108E1,9.816525493E0,-1.959991949E0,-6.599969823E0,1.199021863E1
1.271185808E1,7.401998481E0,-5.148957531E0,-5.233650942E0,1.042556700E1
1.272188408E1,4.029005819E0,-6.109770838E0,-2.675143261E0,7.792212718E0
1.273191108E1,-8.522498077E-1,-5.602604402E0,2.586236639E0,6.229295769E0
1.274193808E1,-5.606438422E0,-4.636242673E0,6.308998339E0,9.629660323E0
1.275196408E1,-7.534551351E0,-2.856031555E0,6.319904566E0,1.024048700E1
1.276199108E1,-7.634279122E0,-9.950674653E-1,7.464314597E0,1.072326300E1
1.277201708E1,-7.632610327E0,-2.056290329E-1,6.516356978E0,1.003802431E1
1.278204408E1,-6.651742825E0,4.514149886E-1,5.166585717E0,8.434634911E0
1.279207108E1,-5.361448857E0,-6.723023307E-1,4.495378862E0,7.028908548E0
1.280209708E1,-3.705258352E0,-3.251448344E0,3.985333550E0,6.339064544E0
1.281212408E1,-2.061541421E0,-6.083841360E0,3.617113623E0,7.372013950E0
1.282215008E1,-8.703434318E-2,-8.844676151E0,2.990559030E0,9.336986372E0
1.283217708E1,3.105382850E0,-1.063545962E1,2.242104025E0,1.130413351E1
1.284220408E1,7.364945844E0,-7.545468103E0,6.725751033E-1,1.056545661E1
1.285223008E1,1.043385347E1,-1.268725929E0,-2.617083041E0,1.083162441E1
1.286225708E1,9.133445574E0,2.836119447E0,-3.816002570E0,1.029685764E1
1.287228308E1,5.481564699E0,4.698107384E0,-2.428827840E0,7.617018394E0
1.288231008E1,2.389495082E0,5.470912827E0,-2.015532312E-1,5.973374056E0
1.289233708E1,7.705074871E-1,5.288087350E0,2.131148722E0,5.753202976E0
1.290236308E1,1.051754467E0,4.359102193E0,3.925142604E0,5.959421436E0
1.291239008E1,2.007433918E0,3.013959587E0,5.183042706E0,6.322790129E0
1.292241608E1,2.887523197E0,1.441384851E0,5.834830665E0,6.667880427E0
1.293244308E1,3.004221050E0,-5.549007654E-2,6.133751439E0,6.830177888E0
1.294247021E1,2.656967483E0,-1.146451879E0,5.800511602E0,6.482265265E0
1.295249621E1,1.787036280E0,-1.775485398E0,4.957730191E0,5.561019305E0
1.296252321E1,9.976954964E-1,-1.750162277E0,3.785134242E0,4.287855586E0
1.297255021E1,2.850210652E-1,-1.307128687E0,2.530456833E0,2.862347672E0
1.298257621E1,-1.792501965E-1,-6.534052992E-1,1.302457639E0,1.468150203E0
1.299260321E1,-2.051966313E-1,-1.396081209E-1,3.207504764E-1,4.055575829E-1
1.300262921E1,-6.101744950E-2,3.365189552E-2,-3.762920085E-1,3.826895019E-1
1.301265621E1,1.645356783E-1,6.295521677E-1,-8.999733201E-1,1.110567377E0
1.302268321E1,3.175242752E-1,1.190321199E0,-1.138627135E0,1.677545222E0
1.303270921E1,3.141980866E-1,1.256864267E0,-1.064151441E0,1.676557936E0
1.304273621E1,4.041177383E-1,1.180171602E0,-7.498912279E-1,1.455490642E0
1.305276221E1,6.725979075E-1,1.090257213E0,-3.113396752E-1,1.318325122E0
1.306278921E1,9.575210318E-1,7.266492766E-1,1.072309184E-1,1.206799141E0
1.307281621E1,1.280011347E0,2.539972007E-2,4.585947847E-1,1.359920355E0
1.308284221E1,1.582427879E0,-4.896721512E-1,7.500387239E-1,1.818354997E0
1.309286921E1,1.817416074E0,-5.235497493E-1,1.105004475E0,2.190465799E0
1.310289621E1,2.013757682E0,-2.114353180E-1,1.277491490E0,2.394140639E0
1.311292221E1,2.223759555E0,9.032427907E-2,1.391000856E0,2.624528227E0
1.312294921E1,2.258963594E0,1.386117554E-1,1.611088006E0,2.778081047E0
1.313297521E1,2.382429891E0,-1.059889698E-1,1.607004311E0,2.875703167E0
1.314300221E1,2.525122126E0,-3.461434722E-2,1.443927805E0,2.909014852E0
1.315302921E1,2.614494771E0,1.853836334E-1,1.200922201E0,2.883082401E0
1.316305521E1,2.759527646E0,5.675944859E-1,8.067871213E-1,2.930539505E0
1.317308221E1,3.152092748E0,1.075912238E0,5.201645038E-1,3.371030547E0
1.318310821E1,3.182674855E0,1.242981808E0,2.596230993E-1,3.426634962E0
1.319313521E1,2.865454051E0,7.624897850E-1,2.206996465E-1,2.973369456E0
1.320316221E1,2.760005364E0,1.861379242E-1,2.037802894E-1,2.773770600E0
1.321318821E1,2.701696344E0,-2.879321015E-1,2.226830220E-1,2.726106337E0
1.322321521E1,3.009262811E0,-6.793458867E-1,4.686844477E-1,3.120390779E0
1.323324121E1,2.947334658E0,-1.282889054E0,1.288879527E0,3.463206079E0
1.324326821E1,2.755068852E0,-1.616060479E0,2.128307268E0,3.838195888E0
1.325329521E1,2.775151406E0,-1.860617350E0,2.634367410E0,4.254791875E0
1.326332121E1,2.768822380E0,-2.051783879E0,3.131217019E0,4.656255414E0
1.327334821E1,2.299440944E0,-2.015937524E0,3.355634032E0,4.540012392E0
1.328337421E1,1.404008279E0,-1.744340789E0,3.122851407E0,3.842676795E0
1.329340121E1,3.777207756E-1,-9.602747780E-1,2.581826085E0,2.780400432E0
1.330342821E1,-5.806261754E-1,-4.652021384E-1,1.849307081E0,1.993358087E0
1.331345421E1,-1.321273102E0,-3.459148461E-1,9.779207978E-1,1.679806172E0
1.332348121E1,-1.844155391E0,-4.222730505E-1,1.852196190E-1,1.900928705E0
1.333350821E1,-2.706433466E0,-3.512159318E-1,-4.002316788E-1,2.758318352E0
1.334353421E1,-3.311424404E0,-8.234534401E-1,-4.164521474E-1,3.437592114E0
1.335356121E1,-3.673091942E0,-1.179878072E0,-3.792240947E-1,3.876535514E0
1.336358721E1,-3.830219783E0,-1.358009988E0,-5.303570777E-1,4.098298835E0
1.337361421E1,-3.863909393E0,-1.395624542E0,-7.045163959E-1,4.168201891E0
1.338364121E1,-3.076563971E0,-1.454741646E0,-9.225000107E-1,3.525978644E0
1.339366721E1,-2.099713798E0,-1.834807155E0,-6.792710423E-1,2.869969422E0
1.340369421E1,-5.665662530E-1,-2.411870622E0,1.849687734E-1,2.484417570E0
1.341372021E1,6.121847677E-1,-1.958539501E0,1.277344725E0,2.417076067E0
1.342374721E1,1.572393472E0,-2.077433860E0,2.602035524E0,3.682219649E0
1.343377421E1,2.229421414E0,-1.469914586E0,3.228279921E0,4.189601411E0
1.344380021E1,2.566670102E0,-2.771662080E-1,3.358965191E0,4.236421093E0
1.345382721E1,2.478588522E0,5.603404301E-1,3.479660493E0,4.308760797E0
1.346385421E1,1.869142005E0,1.352273285E0,3.352359299E0,4.069477576E0
1.347388021E1,1.224462214E0,9.440698045E-1,3.409961975E0,3.744117543E0
1.348390721E1,4.520412254E-1,1.256616930E0,3.445737872E0,3.695475187E0
1.349393321E1,-1.480468225E-1,1.461443140E0,3.384877712E0,3.689868702E0
1.350396021E1,-6.334452438E-1,1.399221164E0,3.233525459E0,3.579770891E0
1.351398721E1,-8.987372187E-1,1.129941096E0,3.018670689E0,3.346172171E0
1.352401321E1,-1.089353233E0,5.798865026E-1,2.691098851E0,2.960569514E0
1.353404021E1,-1.095363586E0,7.517472804E-2,2.273191916E0,2.524455211E0
1.354406621E1,-1.035683979E0,-3.428725398E-1,1.820511590E0,2.122372572E0
1.355409321E1,-1.016316247E0,-7.745882589E-1,1.466963789E0,1.945473835E0
1.356412021E1,-1.113824415E0,-1.041041198E0,1.140938831E0,1.904235548E0
1.357414621E1,-1.406454754E0,-9.262281954E-1,9.837966648E-1,1.950351128E0
1.358417321E1,-1.783258687E0,-6.676865387E-1,7.220191589E-1,2.036449981E0
1.359419921E1,-1.998435638E0,-3.144100481E-1,4.315829873E-1,2.068541165E0
1.360422621E1,-2.273192208E0,-7.945430517E-2,3.659389284E-1,2.303828792E0
1.361425321E1,-2.509508598E0,-2.961065090E-1,3.725737640E-1,2.554236418E0
1.362427921E1,-2.690213875E0,-7.710705739E-1,5.096149573E-1,2.844557598E0
1.363430621E1,-2.578799273E0,-1.280669451E0,4.098240361E-1,2.908311482E0
1.364433321E1,-2.351293468E0,-1.534874813E0,6.356829733E-2,2.808640702E0
1.365435921E1,-2.076982455E0,-1.806800746E0,-5.373860157E-1,2.804847373E0
1.366438621E1,-1.901354609E0,-2.057075610E0,-1.601820024E0,3.226846262E0
1.367441221E1,-1.954143564E0,-2.083669916E0,-2.820027909E0,4.014089535E0
1.368443921E1,-1.903448204E0,-1.934140824E0,-4.314794039E0,5.097201526E0
1.369446621E1,-2.117050208E0,-1.093657953E0,-5.712631459E0,6.189680726E0
1.370449221E1,-3.182017044E0,-2.451848620E-1,-5.815413816E0,6.633580175E0
1.371451921E1,-4.793983594E0,3.967172098E-1,-4.322147205E0,6.466886400E0
1.372454521E1,-6.484714186E0,8.671403271E-1,-2.209652270E0,6.905506033E0
1.373457221E1,-7.438535392E0,1.130801806E0,-4.559398565E-1,7.537798263E0
1.374459921E1,-6.096381884E0,1.276858821E0,1.418449440E0,6.388132695E0
1.375462521E1,-3.675369725E0,1.351677454E-1,2.981483274E0,4.734538568E0
1.376465221E1,-7.621123472E-1,-1.463884352E0,3.891109178E0,4.226642079E0
1.377467921E1,1.855875843E0,-2.257907002E0,4.591895635E0,5.443153929E0
1.378470521E1,3.815879486E0,-2.345552672E0,5.380694382E0,7.001030326E0
1.379473221E1,5.234274255E0,-2.107994918E0,5.636819969E0,7.975901762E0
1.380475821E1,5.297788466E0,-1.788395466E0,5.628575395E0,7.933837782E0
1.381478521E1,5.278974465E0,-5.496920657E-1,4.614567629E0,7.033062432E0
1.382481221E1,4.677894729E0,5.379982191E-1,3.459492569E0,5.842964146E0
1.383483821E1,4.137174631E0,1.742193691E0,2.220325778E0,5.008123335E0
1.384486521E1,3.838839748E0,3.239258069E0,2.930671263E-1,5.031438342E0
1.385489121E1,3.561051396E0,3.670639912E0,-1.562821726E0,5.347625282E0
1.386491821E1,3.204183253E0,2.972059609E0,-2.479274400E0,5.024612442E0
1.387494521E1,2.585168938E0,1.636808739E0,-2.728701417E0,4.099762519E0
1.388497121E1,1.880683824E0,6.301643711E-1,-2.605359081E0,3.274442658E0
1.389499821E1,1.006254651E0,7.617167830E-3,-2.083425941E0,2.313713486E0
1.390502521E1,1.700370312E-3,-4.915397519E-1,-1.191343292E0,1.288764159E0
1.391505121E1,-9.036237368E-1,-1.369024973E0,-3.083865389E-1,1.669091816E0
1.392507821E1,-1.470628531E0,-2.387298283E0,5.163851559E-1,2.851069097E0
1.393510421E1,-1.996230945E0,-3.097665988E0,1.369801629E0,3.931517399E0
1.394513183E1,-2.222025855E0,-2.780959153E0,1.799933192E0,3.988845974E0
1.395515883E1,-2.538796425E0,-1.918888362E0,1.848069663E0,3.680078982E0
1.396518483E1,-2.948880954E0,-1.146920241E0,1.794337406E0,3.637440260E0
1.397521183E1,-3.295080267E0,-2.363011873E-1,1.617073363E0,3.678086252E0
1.398523783E1,-3.249229910E0,5.740036190E-1,1.228588886E0,3.520852996E0
1.399526483E1,-2.674674314E0,8.912612611E-1,4.121982980E-1,2.849234416E0
1.400529183E1,-1.950283232E0,5.699210930E-1,-4.814575441E-1,2.088113049E0
1.401531783E1,-1.099481195E0,-1.684582829E-3,-1.047156801E0,1.518354077E0
1.402534483E1,-3.013947308E-1,-5.529016024E-1,-1.346268779E0,1.486263298E0
1.403537083E1,3.114592507E-1,-9.213165343E-1,-1.414285930E0,1.716401968E0
1.404539783E1,6.715907246E-1,-1.435560440E0,-1.315108967E0,2.059460966E0
1.405542483E1,1.061551184E0,-1.818447815E0,-1.073048272E0,2.363276532E0
1.406545083E1,1.389147873E0,-1.771922690E0,-9.059453007E-1,2.426969040E0
1.407547783E1,1.492332518E0,-9.914632416E-1,-8.416656896E-1,1.979509242E0
1.408550483E1,1.172584255E0,-8.732816577E-3,-6.632145151E-1,1.347176154E0
1.409553083E1,7.001955959E-1,7.265615684E-1,-3.727716192E-1,1.075697107E0
1.410555783E1,-1.488429210E-1,1.116462679E0,4.945458055E-2,1.127425778E0
1.411558383E1,-8.876064590E-1,-1.233416348E0,7.639303927E-1,1.700808854E0
1.412561083E1,-1.052383043E0,-9.843050802E-1,1.173882190E0,1.858592466E0
1.413563783E1,-1.409915721E0,-2.943014735E-1,1.287010757E0,1.931546631E0
1.414566383E1,-1.648428326E0,5.219400108E-2,1.385383143E0,2.153909611E0
1.415569083E1,-2.191896907E0,4.833548194E-1,1.305023689E0,2.596368765E0
1.416571683E1,-2.287995312E0,3.572297931E-1,1.200729243E0,2.608502710E0
1.417574383E1,-2.070475381E0,-1.907127857E-2,9.190115619E-1,2.265350805E0
1.418577083E1,-1.672147556E0,-5.480747259E-1,4.971255239E-1,1.828550557E0
1.419579683E1,-1.184557891E0,-6.428382111E-1,1.345047442E-1,1.354440803E0
1.420582383E1,-8.342374599E-1,-2.218018466E-1,-1.020163715E-1,8.692269777E-1
1.421585083E1,-6.937081102E-1,6.693307757E-3,-1.022958684E-1,7.012418892E-1
1.422587683E1,-5.995951277E-1,3.387186778E-1,2.148274340E-2,6.889892366E-1
1.423590383E1,-5.687115964E-1,4.620288545E-1,2.087211136E-1,7.618845356E-1
1.424592983E1,-4.070954329E-1,9.819287717E-2,3.486074889E-1,5.448813760E-1
1.425595683E1,-5.733633488E-2,-2.940500432E-1,4.113258934E-1,5.088633154E-1
1.426598383E1,2.723685676E-1,-5.103935140E-1,3.951361958E-1,7.005846052E-1
1.427600983E1,4.646519154E-1,-4.299019128E-1,3.079447818E-1,7.039510251E-1
1.428603683E1,4.989785796E-1,-6.409483910E-2,2.048594662E-1,5.431898123E-1
1.429606283E1,4.664630905E-1,2.562132955E-1,1.208082262E-1,5.457359206E-1
1.430608983E1,3.514360794E-1,4.898083913E-1,9.854550082E-2,6.108443287E-1
1.431611683E1,1.916343069E-1,7.765482455E-1,1.301672065E-1,8.103668224E-1
1.432614283E1,-3.178254068E-3,8.721145535E-1,2.007068102E-1,8.949173813E-1
1.433616983E1,-6.272659063E-2,5.178580695E-1,2.532569432E-1,5.798712656E-1
1.434619683E1,-2.931004554E-2,2.562705982E-1,2.920181723E-1,3.896258606E-1
1.435622283E1,5.013227284E-2,3.260191101E-1,2.814265259E-1,4.335926595E-1
1.436624983E1,1.478336915E-1,-4.307000577E-2,1.693786530E-1,2.289081777E-1
1.437627583E1,3.385175335E-1,-6.664732414E-1,6.465149403E-2,7.503069490E-1
1.438630283E1,4.547198349E-1,-1.091322575E0,-9.735149939E-2,1.186268269E0
1.439632983E1,2.661366051E-1,-1.234775240E0,-2.033111966E-1,1.279388147E0
1.440635583E1,-1.439429542E-1,-1.223820482E0,-2.856294680E-1,1.264927009E0
1.441638283E1,-4.519301283E-1,-1.110733577E0,-3.944777262E-1,1.262371814E0
1.442640883E1,-7.273392481E-1,-7.405995637E-1,-4.258317025E-1,1.121981611E0
1.443643583E1,-9.052489704E-1,-4.836337316E-1,-4.363134213E-1,1.115233916E0
1.444646283E1,-9.260428387E-1,-2.663289785E-2,-2.932261888E-1,9.717233393E-1
1.445648883E1,-7.621398291E-1,5.186228853E-1,-6.179337502E-2,9.239292384E-1
1.446651583E1,-5.234994632E-1,7.365772641E-1,2.217638397E-1,9.304713615E-1
1.447654283E1,-1.580309433E-1,3.861594772E-1,5.834702611E-1,7.173077906E-1
1.448656883E1,3.395700324E-1,3.344262367E-1,7.712348807E-1,9.066156605E-1
1.449659583E1,8.237481397E-1,5.702274871E-1,8.588425434E-1,1.319594975E0
1.450662183E1,1.131195031E0,7.680610120E-1,1.102114781E0,1.756182481E0
1.451664883E1,6.659882149E-1,-5.802309036E-2,1.363116946E0,1.518220929E0
1.452667583E1,2.689105242E-1,-1.411614338E0,6.615539789E-1,1.581967628E0
1.453670183E1,-1.909466743E-1,-4.409584129E-1,2.990757251E-1,5.659957983E-1
1.454672883E1,-1.531764094E0,9.778824985E-2,4.343042815E-1,1.595143878E0
1.455675483E1,-1.835999402E0,2.402474731E-1,3.571397460E-1,1.885778739E0
1.456678183E1,-1.203290323E0,5.361481601E-1,3.590611410E-1,1.365389085E0
1.457680883E1,-4.717475116E-1,9.499480104E-1,4.691455007E-1,1.159760509E0
1.458683483E1,3.683664000E-1,1.567733826E0,2.069727230E-1,1.623675110E0
1.459686183E1,1.197329671E0,2.695396262E0,4.529615772E-1,2.983945968E0
1.460688783E1,1.609029202E0,2.431558197E0,5.094936275E-1,2.959904390E0
1.461691483E1,2.315061196E0,9.336453885E-1,7.754741120E-1,2.613917013E0
1.462694183E1,2.753807607E0,-6.553933525E-1,8.921377587E-1,2.967980216E0
1.463696783E1,2.052401345E0,-2.762455639E0,1.105351800E0,3.614597494E0
1.464699483E1,1.838879741E0,-3.596783146E0,8.126483703E-1,4.120524854E0
1.465702183E1,2.380005051E0,-2.980597129E0,-2.712593690E-1,3.823867797E0
1.466704783E1,1.885376800E0,-1.753662420E0,-1.640831623E0,3.053245155E0
1.467707483E1,7.218259084E-1,-3.379819286E-1,-2.318936731E0,2.452087271E0
1.468710083E1,3.485688972E-1,1.489240218E0,-2.584787407E0,3.003408504E0
1.469712783E1,-2.047592595E-1,1.920236145E0,-1.993416388E0,2.775417465E0
1.470715483E1,8.199117815E-1,5.500171709E-1,-8.873991752E-1,1.327498216E0
1.471718083E1,1.707451290E0,1.942850252E0,-9.642771971E-1,2.760414375E0
1.472720783E1,1.601807891E0,1.497282479E0,1.523492404E-1,2.197920297E0
1.473723383E1,4.397720128E-1,1.528651621E0,6.169350457E-1,1.706102006E0
1.474726083E1,-6.612765285E-1,3.844304556E-1,1.629682152E0,1.800260353E0
1.475728783E1,-8.313711548E-1,-1.017175788E0,2.032951752E0,2.420478755E0
1.476731383E1,-9.322271463E-1,1.495495570E-1,8.596330869E-1,1.276863958E0
1.477734083E1,-7.869948810E-1,-7.383700204E-1,1.189661633E0,1.606189911E0
1.478736683E1,-7.968471470E-1,-9.131661004E-1,8.011293554E-1,1.452806232E0
1.479739383E1,5.666764730E-1,-1.316089545E0,4.108019829E-1,1.490628117E0
1.480742083E1,-4.945820582E-1,-2.123865430E0,-2.286296586E-1,2.192643906E0
1.481744683E1,5.481843612E-1,-2.423616509E0,-3.976685518E-1,2.516458494E0
1.482747383E1,9.248859671E-1,6.155363917E-1,-4.197774589E-1,1.187649871E0
1.483750083E1,-3.861264405E-1,1.425213207E0,2.513653690E-1,1.497835392E0
1.484752683E1,-1.528333533E0,1.292340494E0,2.960649937E-1,2.023265138E0
1.485755383E1,-2.797550920E0,-1.985016863E0,8.352911282E-1,3.530480755E0
1.486757983E1,-2.145180286E0,-5.877801268E0,2.041613452E-1,6.260353669E0
1.487760683E1,-1.744429666E0,-9.342346709E0,-3.137230003E-1,9.508990431E0
1.488763383E1,6.244671366E-1,-8.021426779E0,-1.717150651E0,8.226898148E0
1.489765983E1,7.071686929E-1,-4.115255173E0,-1.866127181E0,4.573602886E0
1.490768683E1,6.091945016E-1,-2.384804446E-1,-1.480305527E0,1.618423713E0
1.491771383E1,8.127132744E-1,1.845656079E0,-1.005235773E0,2.253319371E0
1.492773983E1,1.101680187E0,3.400044805E0,-5.164787114E-1,3.611198439E0
1.493776683E1,1.425408358E0,4.535705647E0,1.731138361E-1,4.757560625E0
1.494779250E1,1.361537613E0,5.441707154E0,1.268993146E0,5.751200312E0
1.495781950E1,9.775103232E-1,6.064792886E0,2.160892339E0,6.512042297E0
1.496784650E1,1.148476623E0,6.516787333E0,2.543453147E0,7.089193862E0
1.497787250E1,1.077984345E0,5.859766116E0,2.865225132E0,6.611234699E0
1.498789950E1,7.757810909E-1,4.662729975E0,2.941026389E0,5.567092899E0
1.499792550E1,3.402952333E-1,3.683295041E0,2.771851530E0,4.622296411E0
1.500795250E1,-2.172275698E-1,2.512523423E0,1.913013664E0,3.165372497E0
1.501797950E1,-5.986835468E-1,1.556179728E0,1.101484159E0,1.998345487E0
1.502800550E1,-1.172923978E0,9.758014745E-1,7.179071045E-1,1.686217598E0
1.503803250E1,-1.835593606E0,7.161254579E-1,7.124237318E-1,2.095181885E0
1.504805850E1,-2.446506019E0,6.353344792E-1,9.348238948E-1,2.694983732E0
1.505808550E1,-2.930122502E0,6.908304030E-1,1.051093439E0,3.188677145E0
1.506811250E1,-3.358472563E0,6.106387639E-1,1.312794639E0,3.657273222E0
1.507813850E1,-2.538991429E0,1.957789303E0,2.129055419E0,3.848674241E0
1.508816550E1,-1.883165967E0,1.620717201E0,3.084019171E0,3.960329854E0
1.509819250E1,-1.616050831E0,2.838478214E-1,2.798671539E0,3.244187457E0
1.510821850E1,4.531881568E-1,-9.597859508E-1,2.895198544E0,3.083625008E0
1.511824550E1,1.724616084E0,-2.164980127E0,1.761629397E0,3.280972070E0
1.512827150E1,2.150943301E0,-2.673464525E0,2.172003218E0,4.060981117E0
1.513829850E1,2.387967789E0,-1.678107038E0,2.533510834E0,3.864855824E0
1.514832550E1,2.182717656E0,-4.593718797E-1,3.374165028E0,4.044782878E0
1.515835150E1,2.267138294E0,1.359043776E0,3.701031400E0,4.548026984E0
1.516837850E1,2.548590511E0,2.454316145E-1,4.428861229E0,5.115697612E0
1.517840450E1,1.158619057E0,-4.044941236E0,2.329596205E0,4.809466311E0
1.518843150E1,8.614077169E-1,-6.287074204E0,1.078898996E0,6.436874113E0
1.519845850E1,4.488533235E-1,-6.666381914E0,-4.826817684E-1,6.698887879E0
1.520848450E1,-6.172279912E-1,-5.368701743E0,-1.510228214E0,5.611124491E0
1.521851150E1,-2.702642424E0,-3.430846767E0,-3.055011134E0,5.329922949E0
1.522853850E1,-2.302351688E0,-1.394688987E0,-5.494982305E0,6.118889703E0
1.523856450E1,-3.693747523E-1,-4.834249860E-1,-8.287707226E0,8.310007731E0
1.524859150E1,4.031394991E-1,3.337625778E-1,-9.553899556E0,9.568224268E0
1.525861750E1,-5.398380455E-1,7.748016822E-1,-8.882295967E0,8.932352681E0
1.526864450E1,-2.165398788E0,5.449727780E-1,-7.031710685E0,7.377730166E0
1.527867150E1,-3.478362411E0,-4.689098579E-1,-4.946814609E0,6.065464227E0
1.528869750E1,-3.825146446E0,-1.154444438E0,-3.141951045E0,5.082946356E0
1.529872450E1,-2.807025456E0,-1.887539685E0,-1.596790395E0,3.740579840E0
1.530875050E1,-1.298630928E0,-2.108286109E0,-7.523024004E-2,2.477291302E0
1.531877750E1,2.356427908E-4,-7.996792459E-1,1.396490514E0,1.609246006E0
1.532880450E1,-2.246950489E-1,3.539202690E-1,2.248369024E0,2.287118425E0
1.533883050E1,-9.175295851E-1,8.228429908E-1,2.617986728E0,2.893576616E0
1.534885750E1,-1.043000600E0,1.041861563E0,2.578799858E0,2.970443481E0
1.535888450E1,-6.619621146E-1,8.227558672E-1,2.497905968E0,2.711946770E0
1.536891050E1,-4.035704389E-1,1.960214728E-1,2.831835777E0,2.867156672E0
1.537893750E1,-6.952815959E-1,-1.187417471E0,3.231742058E0,3.512482523E0
1.538896350E1,1.748995757E-1,-2.877665668E0,3.727580098E0,4.712367022E0
1.539899050E1,1.654528141E0,-2.526904650E0,4.009204223E0,5.019604465E0
1.540901750E1,3.090331825E0,-2.859902412E-1,4.087641113E0,5.132324140E0
1.541904350E1,2.997980024E0,1.847276343E0,3.608162413E0,5.041740781E0
1.542907050E1,1.646149666E0,2.649370489E0,2.689554309E0,4.118576828E0
1.543909650E1,2.852672330E-1,2.157347757E0,1.371205984E0,2.572106644E0