"Time (s)","Linear Acceleration x (m/s^2)","Linear Acceleration y (m/s^2)","Linear Acceleration z (m/s^2)","Absolute acceleration (m/s^2)"
6.433083327E-3,-8.049942188E-1,2.269450575E-1,-2.353249362E0,2.497459171E0
1.645908342E-2,-7.019376276E-1,2.554011172E-1,-2.556479282E0,2.663368634E0
2.648608340E-2,-6.418321976E-1,5.553784829E-1,-2.424560834E0,2.568830292E0
3.651208337E-2,-5.482309927E-1,7.615834665E-1,-1.947455519E0,2.161746885E0
4.653908336E-2,-2.982623774E-1,7.737161466E-1,-1.371503023E0,1.602690757E0
5.656508333E-2,-2.463285774E-2,4.827087021E-1,-6.839341968E-1,8.374845995E-1
6.659208343E-2,-3.034381865E-1,4.062353075E-1,-1.006413987E0,1.126929888E0
7.661808340E-2,-1.768947188E-1,5.745699218E-1,-2.025621098E0,2.112951293E0
8.664408338E-2,-6.083133262E-1,2.529429477E-1,-2.733076304E0,2.811357559E0
9.667108336E-2,-1.620123709E0,1.083360422E-1,-3.028888113E0,3.436670007E0
1.066970833E-1,-2.355255980E0,-4.307936132E-2,-2.949651325E0,3.774854898E0
1.167240834E-1,-1.740085624E0,-2.062640405E-1,-2.409604826E0,2.979368767E0
1.267500834E-1,-3.430034078E-1,-3.094840613E-1,-2.018421421E0,2.070617482E0
1.367770834E-1,1.279946151E0,-1.649750966E-1,-2.221914466E0,2.569510231E0
1.468030834E-1,3.202648652E0,2.732006264E-1,-2.709486297E0,4.203916384E0
1.568300833E-1,4.302940271E0,6.628716490E-1,-3.141172196E0,5.368580498E0
1.668560834E-1,3.870494235E0,4.173703064E-1,-2.430485818E0,4.589355609E0
1.768820834E-1,2.162849987E0,2.634579957E-2,-2.452781836E0,3.270283306E0
1.869090834E-1,7.392590895E-1,-4.087678827E-1,-3.079384668E0,3.193149717E0
1.969350834E-1,1.458513393E-1,-1.373968501E0,-2.871455925E0,3.186584564E0
2.069620833E-1,5.296345080E-1,-1.763349210E0,-1.316114688E0,2.263199288E0
2.169880833E-1,9.042670767E-1,-3.220164717E-1,3.155323627E0,3.298099566E0
2.270150834E-1,9.566074044E-2,-4.791610502E-2,2.985508790E0,2.987425257E0
2.370410834E-1,1.358377486E0,-9.087765956E-1,4.428515074E0,4.720467144E0
2.470680834E-1,1.039538610E0,-9.103234034E-1,3.704124577E0,3.953462799E0
2.570940834E-1,-1.680479546E-1,9.626654852E-2,2.332365446E0,2.340392261E0
2.671210833E-1,-8.055767477E-1,9.519278046E-1,1.495518959E-1,1.255980179E0
2.771470834E-1,-5.787398636E-1,1.234685339E0,-1.125859154E0,1.768317436E0
2.871730834E-1,4.045027775E-1,1.486174669E0,-1.294735513E0,2.012132623E0
2.972000834E-1,1.064895061E0,1.123312911E0,-1.153370304E0,1.930309935E0
3.072260834E-1,5.631418312E-1,-7.363691032E-2,-1.094664259E0,1.233223806E0
3.172530833E-1,-6.049891841E-1,-1.636570172E0,-9.785847491E-1,2.000500426E0
3.272790834E-1,-2.042624508E0,-3.238882970E0,-9.820755368E-1,3.953119039E0
3.373060834E-1,-3.215007911E0,-5.038784294E0,-1.384970915E0,6.135451692E0
3.473320834E-1,-3.774454887E0,-5.224764344E0,-2.328961197E0,6.853373797E0
3.573590834E-1,-4.311476036E0,-4.886062623E0,-4.763220808E0,8.071598728E0
3.673850833E-1,-3.329091182E0,-4.526245144E0,-7.755444540E0,9.576881707E0
3.774120833E-1,-1.943021575E0,-3.988889827E0,-9.432697885E0,1.042412415E1
3.874380834E-1,-1.017652920E0,-4.111518218E0,-9.126000899E0,1.006101843E1
3.974640834E-1,-1.683979982E0,-4.916727176E0,-7.377232599E0,9.024054273E0
4.074910834E-1,-4.905899886E0,-5.273941181E0,-5.509987430E0,9.068752437E0
4.175170833E-1,-6.406632223E0,-5.276955421E0,-4.745594376E0,9.560955022E0
4.275440833E-1,-5.604941534E0,-5.237224175E0,-6.103231312E0,9.802719986E0
4.375700834E-1,-3.702918881E0,-5.616176959E0,-7.010284148E0,9.715818839E0
4.475970834E-1,-2.262487711E0,-6.049112992E0,-5.445162274E0,8.447509149E0
4.576230834E-1,-2.260565146E0,-5.816554608E0,-1.266824414E0,6.367676686E0
4.676500834E-1,-1.074450434E0,-5.445972113E0,1.012863466E0,5.642601208E0
4.776760833E-1,4.928349102E-1,-5.455354555E0,1.774951547E0,5.757971220E0
4.877020834E-1,1.284448507E0,-5.313651377E0,2.654410204E0,6.077054587E0
4.977290834E-1,1.730700404E0,-4.144106213E0,1.808902820E0,4.841597836E0
5.077550834E-1,3.714880530E0,-2.200450799E0,1.604448493E0,4.606145465E0
5.177820834E-1,4.671884376E0,-2.374722384E-1,3.749410678E0,5.995079408E0
5.278080833E-1,5.298708233E0,-1.560010824E-1,5.836916952E0,7.884811017E0
5.378350834E-1,6.649750094E0,-1.713510467E-1,6.876308066E0,9.567243600E0
5.478610834E-1,7.302618034E0,7.531751704E-1,7.489963408E0,1.048785273E1
5.578880834E-1,8.455392507E0,3.086941609E0,8.010872555E0,1.204976971E1
5.679140834E-1,1.071989926E1,6.135299782E0,7.718077909E0,1.456457587E1
5.779410833E-1,1.058117407E1,6.705731921E0,6.445901538E0,1.408821252E1
5.879670833E-1,9.745412825E0,5.933701819E0,4.909422249E0,1.242112375E1
5.979930834E-1,8.329909505E0,4.901308360E0,4.023514114E0,1.046894846E1
6.080200834E-1,7.658182540E0,4.351792296E0,3.048850508E0,9.321016330E0
6.180460834E-1,8.147365864E0,5.458477553E0,3.033671721E0,1.026536467E1
6.280730834E-1,8.603097852E0,6.231050861E0,3.695413395E0,1.124701594E1
6.380990833E-1,8.200377306E0,6.083150804E0,3.509397093E0,1.079660964E1
6.481260834E-1,7.287418782E0,5.919300127E0,1.548385682E0,9.515360461E0
6.581520834E-1,7.037297115E0,5.228908850E0,-1.938750477E0,8.979075223E0
6.681790834E-1,5.726894572E0,2.895222518E0,-6.354379165E0,9.030934029E0
6.782050834E-1,2.292878614E0,-6.874498352E-2,-8.010391329E0,8.332369858E0
6.882310833E-1,-3.575777024E-1,1.440873512E0,-4.339661955E0,4.586572159E0
6.982580834E-1,-1.259416577E0,3.165074151E0,-1.259944142E0,3.631980691E0
7.082840834E-1,-3.037615668E0,1.672696902E-1,-9.630504513E-1,3.191011480E0
7.183110834E-1,-4.802458549E-1,-2.390795503E0,-2.497510697E0,3.490572861E0
7.283370834E-1,7.732683084E0,1.551948536E0,-1.342631080E0,8.000349377E0
7.383640833E-1,9.350431069E0,3.597991473E0,-2.476164266E0,1.032024677E1
7.483900834E-1,3.286139290E0,4.161531500E0,-3.372574001E0,6.284211267E0
7.584170834E-1,-3.337881886E0,2.989650958E0,-4.476530363E-1,4.503316730E0
7.684430834E-1,-4.223795283E0,-1.520878918E0,5.489494109E0,7.091407818E0
7.784700834E-1,-5.915333961E0,-7.580522745E0,7.982924618E0,1.249730317E1
7.884960833E-1,-8.012403941E0,-1.023314429E1,9.472354286E0,1.608233051E1
7.985220833E-1,-9.177820678E0,-9.329621413E0,5.656685885E0,1.425736032E1
8.085490834E-1,2.026198803E0,-6.279599708E0,-1.025143204E0,6.677557388E0
8.185750834E-1,2.897071407E0,-2.088130903E0,-1.820081089E0,4.008242580E0
8.286020834E-1,-1.843735853E0,-3.284007980E0,-4.601328363E0,5.946115792E0
8.386280834E-1,-5.566256940E-2,-4.917082686E0,-6.746710963E0,8.348587263E0
8.486550833E-1,4.861568052E-1,-5.087765250E0,-4.112487686E0,6.560050202E0
8.586810834E-1,-8.379527807E-2,-4.637668809E0,-2.485854272E0,5.262553096E0
8.687080834E-1,-1.127682901E0,-3.813923593E0,-2.293422551E0,4.591020463E0
8.787340834E-1,-2.221337931E0,-2.722182941E0,-2.556275214E0,4.345016126E0
8.887610834E-1,-3.032941403E0,-1.359152534E0,-2.852277058E0,4.379670488E0
8.987870833E-1,-5.758616887E0,-6.334984535E-1,-4.020150211E0,7.051566950E0
9.088130834E-1,-6.292832542E0,-3.584156084E-1,-3.448856192E0,7.184901682E0
9.188400834E-1,7.351391999E0,-1.864174211E0,3.504970751E0,8.354814766E0
9.288660834E-1,7.216458142E-1,1.562435079E0,2.334980321E-1,1.736806664E0
9.388930834E-1,1.195661578E1,9.586784881E-1,-1.511723347E0,1.208987315E1
9.489190833E-1,1.310371319E1,5.280813414E-1,1.921394479E0,1.325435498E1
9.589460833E-1,1.275616872E1,-4.852308986E-1,2.948329854E0,1.310144795E1
9.689720834E-1,1.143126567E1,-1.349841428E0,4.684757606E0,1.242750420E1
9.789990834E-1,4.832079374E0,-1.863521369E0,7.776372310E0,9.343108116E0
9.890250834E-1,-1.948594556E0,5.490374699E-1,3.583267015E0,4.115612395E0
9.990511250E-1,-1.807760274E0,-6.771014330E-1,3.883468329E0,4.336794879E0
1.009078125E0,-4.954225370E0,-2.349612978E-1,1.161446186E0,5.093968303E0
1.019104125E0,-6.408496900E0,2.265538495E0,-5.085597103E0,8.489098602E0
1.029131125E0,-7.883926579E0,1.965832441E0,-6.041346720E0,1.012515016E1
1.039157125E0,-8.451693558E0,8.660182464E-1,-4.010858400E0,9.395110255E0
1.049184125E0,-6.623213675E0,2.121615422E-1,-1.747738021E0,6.853215311E0
1.059210125E0,-4.294944788E0,9.024048847E-1,-6.590689123E-2,4.389217359E0
1.069237125E0,-2.353345256E0,1.555906078E0,-1.651703936E-1,2.826014663E0
1.079263125E0,-8.056200171E-1,2.692663273E0,-1.577581707E0,3.223076660E0
1.089290125E0,1.267713191E0,3.583931259E0,-2.066428231E0,4.326867878E0
1.099316125E0,-6.458670688E-1,3.776885574E0,-2.378342687E0,4.509825147E0
1.109342125E0,-3.161870170E0,3.552589890E0,-2.430469446E0,5.340926851E0
1.119369125E0,-4.036806589E0,3.041632412E0,-2.174025185E0,5.502156003E0
1.129395125E0,-3.335813141E0,2.282954720E0,-1.267762308E0,4.236360800E0
1.139422125E0,-3.420070349E0,1.745887962E0,-2.341509907E0,4.497518717E0
1.149448125E0,-2.223089756E0,2.541547832E0,-2.750243729E0,4.354932148E0
1.159475125E0,-1.921333083E0,1.046432624E0,-5.118733274E0,5.566684146E0
1.169501125E0,-3.356010593E0,-1.263544126E0,-2.313657280E0,4.267594272E0
1.179528125E0,-2.700731261E0,-1.197232608E0,2.208112991E0,3.688235112E0
1.189554125E0,-7.571091771E-1,4.432972991E-1,5.422946362E0,5.493457386E0
1.199580125E0,2.754243225E-1,4.051377851E-1,3.285938146E0,3.322255962E0
1.209607125E0,-2.139636540E-1,7.800314319E-1,2.852391078E0,2.964854861E0
1.219633125E0,4.274180156E0,1.349885282E0,1.445884869E0,4.709712235E0
1.229660125E0,5.543435258E0,1.949126068E0,4.327767549E0,7.297831105E0
1.239686125E0,1.668467903E0,1.910812188E0,3.544299123E0,4.358559927E0
1.249713125E0,2.213651766E0,9.927449512E-1,-9.517384279E-1,2.606070358E0
1.259739125E0,1.770012989E0,9.564109379E-1,-4.350118530E0,4.792827880E0
1.269766125E0,1.667184439E0,9.108073336E-1,-1.991727712E0,2.752463121E0
1.279792125E0,6.556243175E-1,4.712095678E-1,-5.458293951E-1,9.745826958E-1
1.289819125E0,9.338553035E-1,-1.312611036E0,1.313982793E0,2.078842043E0
1.299845125E0,1.803091273E0,-3.254871304E0,-5.753683591E-1,3.765152599E0
1.309871125E0,3.106702859E0,-3.915390911E0,-6.113895464E-1,5.035442961E0
1.319898125E0,4.426679049E0,-4.317552463E0,1.645618739E0,6.398812992E0
1.329924125E0,4.819798467E0,-4.927039910E0,-6.667474759E-1,6.924646686E0
1.339951125E0,4.576979388E0,-5.214462719E0,-2.474122419E0,7.366182424E0
1.349977125E0,3.093420909E0,-5.057217057E0,-2.279384410E0,6.351400678E0
1.360004125E0,-8.665719777E-1,-4.665293979E0,-1.996386774E0,5.147958338E0
1.370030125E0,-4.180842807E0,-3.846505448E0,-1.324718281E0,5.833517743E0
1.380057125E0,-3.733000467E0,-4.215499839E0,8.927341747E-1,5.701114424E0
1.390083125E0,-2.321441678E0,-7.604422070E0,8.625002691E0,1.173060092E1
1.400110125E0,-2.381158122E0,-9.792215109E-2,-2.454444784E0,3.421081985E0
1.410136125E0,-2.676249554E0,1.121338087E-1,-1.096858134E0,2.894474639E0
1.420162125E0,-3.407728631E0,4.099020964E-1,6.674047029E-1,3.496578783E0
1.430189125E0,-3.712750974E0,2.527829095E0,-4.787226917E-1,4.517036102E0
1.440215125E0,-2.584420202E0,3.116370646E0,6.865777230E-1,4.106383171E0
1.450242125E0,-8.570187968E-1,4.029171295E0,-6.619165063E-1,4.172150046E0
1.460268125E0,1.358858419E0,4.076046084E0,-1.392425530E0,4.516580204E0
1.470295125E0,2.875490504E0,3.672879980E0,-2.070658107E0,5.103539750E0
1.480321125E0,3.696824328E0,3.700654255E0,-2.312244008E0,5.719075483E0
1.490348125E0,4.575328719E0,3.674991410E0,-2.026035665E0,6.208382661E0
1.500374125E0,4.863755495E0,3.357596943E0,-1.354347292E0,6.063318508E0
1.510400125E0,3.909454817E0,2.547097424E0,-6.183922449E-1,4.706798405E0
1.520427125E0,3.610552754E0,1.701094782E0,4.766650200E-3,3.991220035E0
1.530453125E0,3.559057496E0,1.186549745E0,-7.819936844E-1,3.832271477E0
1.540480125E0,3.739274529E0,1.797731715E0,-2.716990614E-1,4.157864079E0
1.550506125E0,4.127371189E0,2.638745513E0,4.618277103E-3,4.898794968E0
1.560533125E0,3.482263674E0,2.578798104E0,-1.708812229E-1,4.336537829E0
1.570559125E0,2.594562782E0,2.143245442E0,-1.130594376E0,3.550140940E0
1.580586125E0,1.008240073E0,2.405456811E0,-2.000500875E0,3.287061646E0
1.590612125E0,-1.078829414E0,2.590063934E0,-2.255096830E0,3.599689681E0
1.600639125E0,-3.333817486E0,9.288056481E-1,6.033571093E0,6.955645125E0
1.610665125E0,-6.554920535E0,-1.519366828E0,7.870507804E0,1.035472606E1
1.620691125E0,-5.318385283E0,2.739070870E0,-8.067064297E0,1.004316970E1
1.630718125E0,-4.209743255E0,3.222854290E0,3.903973053E0,6.584051461E0
1.640744125E0,-6.708568990E-1,3.580536658E-1,7.841154782E0,7.877941337E0
1.650771125E0,-2.522653724E0,1.921919559E0,6.409276918E0,7.150971068E0
1.660797125E0,-2.928357520E0,1.833819560E0,5.681921883E0,6.649993099E0
1.670824125E0,-2.704899741E0,2.001349890E0,3.364249320E0,4.758156942E0
1.680850125E0,-2.882928162E0,2.880051917E0,2.960790271E0,5.037087736E0
1.690877125E0,1.989936125E-1,3.592567304E0,6.249878311E0,7.211596023E0
1.700903125E0,2.123147392E-1,4.558432020E0,6.889844370E-1,4.615092587E0
1.710930125E0,7.048654747E-1,-5.034423441E-1,8.962389958E0,9.004150337E0
1.720956125E0,2.138261860E0,-2.418075103E0,3.332504348E-1,3.245043426E0
1.730982125E0,2.229690678E0,-1.038302947E0,-8.529605953E0,8.877148824E0
1.741009125E0,2.479567931E0,-7.484517896E-1,-4.450512300E0,5.149320046E0
1.751035125E0,3.219840635E0,-2.243085480E-1,2.094594269E0,3.847728316E0
1.761062125E0,4.886121095E0,-2.121980873E0,-5.057812303E0,7.345641393E0
1.771088125E0,4.696252647E0,-4.930190974E0,-6.620873619E0,9.497238517E0
1.781115125E0,3.582662120E0,-5.507091889E0,-4.354325602E0,7.881857674E0
1.791141125E0,2.585679107E0,-5.959511429E0,-4.509105493E0,7.907815455E0
1.801168125E0,1.620649958E0,-6.807003942E0,-4.368713846E0,8.249089018E0
1.811194125E0,-2.782648998E-1,-4.487119963E0,-3.167504547E0,5.499523794E0
1.821220125E0,-1.228997022E0,-7.865376288E-1,-7.706823188E-1,1.650159495E0
1.831247125E0,-9.236408025E-1,8.153234714E-1,1.458454043E0,1.909175972E0
1.841273125E0,-1.186802344E0,1.837133178E0,1.203945211E0,2.496606134E0
1.851300125E0,-1.499272286E0,2.068969431E0,1.443854715E0,2.934819983E0
1.861326125E0,-1.056970768E0,2.247831080E0,2.430948333E0,3.475549103E0
1.871353125E0,-1.356561048E0,3.207279646E0,2.259191635E0,4.151005595E0
1.881379125E0,-2.124500438E0,3.939463313E0,1.472763934E0,4.711889951E0
1.891406125E0,-2.474360985E0,4.534335644E0,6.900918996E-1,5.211419082E0
1.901432125E0,-2.149702522E0,4.773094416E0,2.120550315E-2,5.234892636E0
1.911459125E0,-1.354498735E0,4.580618695E0,1.978103919E-3,4.776686965E0
1.921485125E0,-8.776708701E-1,4.234025572E0,3.396179795E-1,4.337351620E0
1.931511125E0,-2.035097095E-1,3.608467637E0,2.948955506E-1,3.626212663E0
1.941538125E0,7.390240315E-1,1.321171945E0,3.320730248E0,3.649506981E0
1.951564125E0,8.058866501E-1,5.063659519E-1,1.962841297E0,2.181422868E0
1.961591125E0,2.000269032E0,-1.438268870E-1,-1.861140676E0,2.735983733E0
1.971617125E0,2.308167036E0,-1.735012726E0,-1.035199245E0,3.067497629E0
1.981644125E0,1.676934671E0,-3.440412812E0,-1.984357882E-1,3.832483134E0
1.991669833E0,1.962210383E0,-5.125535924E0,-1.663258619E0,5.734790086E0
2.001696833E0,1.599003566E0,-6.141949235E0,-1.055203739E0,6.433801966E0
2.011722833E0,2.150976046E0,-6.381500305E0,2.864708823E-1,6.740349372E0
2.021749833E0,1.942086605E0,-5.680873477E0,1.149329878E0,6.112690325E0
2.031775833E0,1.106927917E0,-4.235816574E0,1.513619015E0,4.632329218E0
2.041801833E0,7.400370616E-1,-4.310420614E0,1.772151901E0,4.718887907E0
2.051828833E0,5.500782743E-1,-4.271648312E0,2.137557855E0,4.808192903E0
2.061854833E0,1.740309718E-1,-3.944864970E0,1.441797665E0,4.203692058E0
2.071881833E0,-3.012029421E-1,-3.259953119E0,2.938670254E-1,3.287000970E0
2.081907833E0,-5.665191829E-1,-2.359990616E0,-4.443772799E-1,2.467381377E0
2.091934833E0,-2.076854986E-1,-1.822571856E0,-1.073703745E0,2.125497864E0
2.101960833E0,4.255322886E-1,-8.842644829E-1,-1.465667168E0,1.763854204E0
2.111987833E0,8.943518069E-1,7.649602336E-1,-1.712682794E0,2.078054779E0
2.122013833E0,8.182842091E-1,1.235620748E0,-1.711913885E0,2.264287267E0
2.132040833E0,3.208568957E-1,9.862510335E-1,-1.789997018E0,2.068750728E0
2.142066833E0,-1.070373756E-1,6.368307817E-1,-1.652375781E0,1.774078963E0
2.152092833E0,-4.326141438E-1,1.018294945E0,-1.224020457E0,1.649941111E0
2.162119833E0,-1.072258898E0,1.697601655E0,-8.537946421E-1,2.181869798E0
2.172145833E0,-8.773893267E-1,2.257095993E0,-3.042984581E-1,2.440674477E0
2.182172833E0,-3.090724173E-1,2.994239852E0,5.622074461E-1,3.062201049E0
2.192198833E0,3.130096400E-1,2.562142895E0,1.145733840E0,2.824049802E0
2.202225833E0,6.839409211E-1,1.586458949E0,1.466072381E0,2.265832167E0
2.212251833E0,1.166604307E0,6.389176530E-1,1.707282890E0,2.164254200E0
2.222278833E0,1.338818257E0,-6.676368374E-1,1.797766213E0,2.338832322E0
2.232304833E0,1.485916953E0,-1.464234601E0,1.952857761E0,2.857548879E0
2.242330833E0,1.103669263E0,-2.128484731E0,1.964485534E0,3.099634899E0
2.252357833E0,6.043456981E-1,-2.291346644E0,1.546760448E0,2.829835869E0
2.262383833E0,3.120109355E-1,1.019462049E-1,1.063902130E0,1.113387442E0
2.272410833E0,3.329522122E0,1.019232838E1,3.704304671E-1,1.072876946E1
2.282436833E0,-3.538834316E-1,-3.189521652E-1,-8.026274121E-1,9.333674140E-1
2.292463833E0,-7.984147856E-1,-2.360306951E0,-6.443643343E-1,2.573658965E0
2.302489833E0,-8.357524735E-1,-3.358527235E0,-3.195550863E-1,3.475673005E0
2.312516833E0,-5.805729657E-1,-2.343743543E0,-3.866576600E-1,2.445343107E0
2.322542833E0,4.399041599E-1,-5.161699784E-1,-4.905299377E-1,8.369986477E-1
2.332569833E0,-1.363886440E-1,-2.536381817E-1,-2.558999578E-1,3.852518369E-1
2.342595833E0,-1.259940195E0,-4.120807689E-1,1.982625644E-1,1.340361108E0
2.352621833E0,-2.141137813E0,-2.839893240E-1,5.488290898E-1,2.228527415E0
2.362648833E0,-2.818155338E0,-1.229488188E-1,7.721796446E-1,2.924615757E0
2.372674833E0,-3.413904168E0,1.562159675E-1,7.681827803E-1,3.502748903E0
2.382701833E0,-3.159119639E0,6.897638708E-1,5.629243147E-1,3.282178374E0
2.392727833E0,-1.983079973E0,1.482543987E0,2.881472790E-1,2.492703694E0
2.402754833E0,-6.274614957E-1,2.167492676E0,1.992263317E-2,2.256574692E0
2.412780833E0,-3.072934020E-1,1.539705198E0,1.808602273E-1,1.580453021E0
2.422807833E0,-1.502661332E-1,-4.299130225E-1,1.664152658E-1,4.848702491E-1
2.432833833E0,-8.488098177E-1,-3.610694842E0,3.481068210E-1,3.725422621E0
2.442860833E0,-3.569078454E0,-7.248566372E0,-1.266273022E-2,8.079616068E0
2.452886833E0,8.333342113E-2,-5.110354798E0,-9.091937944E-2,5.111842814E0
2.462912833E0,1.702578805E0,-1.401990990E0,-5.178317571E-1,2.265502825E0
2.472939833E0,2.124154721E0,-2.834671676E-1,-1.442766695E0,2.583401372E0
2.482965833E0,3.375414578E0,4.749108553E-2,-1.863075081E0,3.855739583E0
2.492992833E0,4.116267619E0,4.750815940E-1,-2.283340051E0,4.731067894E0
2.503018833E0,4.030321150E0,1.173363689E0,-1.800491016E0,4.567498092E0
2.513045833E0,3.974350140E0,2.781887106E0,-6.129256099E-2,4.851609185E0
2.523071833E0,4.647141590E0,3.917721026E0,2.565313840E0,6.597370544E0
2.533098833E0,2.364180585E0,4.100300335E0,2.621963712E0,5.410776874E0
2.543124833E0,1.615416116E-1,3.551238599E0,2.361774602E0,4.267946877E0
2.553150833E0,3.223751545E0,4.304880377E0,4.963820651E0,7.318748837E0
2.563177833E0,1.519423984E0,4.634027748E0,1.767578647E0,5.187214733E0
2.573203833E0,-2.071006016E0,2.231680486E0,-1.800769197E0,3.537263548E0
2.583230833E0,-2.042606674E0,-1.195356821E0,-1.831958684E0,2.992856925E0
2.593256833E0,-1.256449699E0,-3.113268698E0,-8.725587957E-1,3.468784612E0
2.603283833E0,-1.037305485E0,-3.896315539E0,-1.069973221E-1,4.033450864E0
2.613309833E0,-1.091057916E0,-4.317554217E0,6.162171538E-1,4.495709663E0
2.623336833E0,-2.001895728E0,-4.064743416E0,7.382457671E-1,4.590722422E0
2.633362833E0,-1.770257110E0,-2.939856069E0,1.251198607E0,3.652678729E0
2.643389833E0,-1.497559929E0,-1.494700348E0,9.895313215E-1,2.335805452E0
2.653415833E0,-1.732499008E0,-5.983888471E-1,1.836549041E-1,1.842105086E0
2.663441833E0,-2.089162498E0,-3.124120545E-1,-3.829692364E-1,2.146827117E0
2.673468833E0,-1.625863628E0,1.745885038E-1,-7.891589355E-1,1.815677699E0
2.683494833E0,-7.005531532E-1,5.254728985E-1,-9.044405928E-1,1.258931799E0
2.693521833E0,-2.616892129E-1,4.354684621E-1,-7.218645000E-1,8.827244089E-1
2.703547833E0,9.361333787E-2,1.573035496E-1,-4.349720335E-1,4.719200501E-1
2.713574833E0,7.299534651E-1,-2.186753404E-1,-2.446653369E-1,8.003199940E-1
2.723600833E0,1.943403398E0,-5.460796559E-1,6.589294562E-1,2.123489531E0
2.733627833E0,1.637662432E0,-9.548503160E-1,1.299976373E0,2.298611741E0
2.743653833E0,6.181120902E-2,-1.139169756E0,7.959159780E-1,1.391046585E0
2.753680833E0,-8.973271626E-1,-6.962724066E-1,3.097620964E-1,1.177261168E0
2.763706833E0,-7.182810339E-1,2.847605717E-1,-5.551814318E-2,7.746602424E-1
2.773732833E0,-1.138393246E0,1.165458253E0,-1.770278160E-1,1.638771177E0
2.783759833E0,-1.904672611E0,1.721272354E0,-8.261412589E-1,2.696862186E0
2.793785833E0,-2.289929571E0,2.083406206E0,-1.199945569E0,3.320275324E0
2.803812833E0,-2.249410413E0,2.280842121E0,-1.578937676E0,3.571432789E0
2.813838833E0,-2.147180033E0,2.058813987E0,-1.891835926E0,3.525356762E0
2.823865833E0,-2.060312774E0,1.595612181E0,-1.760480566E0,3.144862283E0
2.833891833E0,1.029764843E-1,1.172985374E0,-1.559206831E0,1.953874302E0
2.843918833E0,1.168473151E0,-1.951332808E-2,-1.590547615E0,1.973715276E0
2.853944833E0,8.648074342E-1,-1.526606850E0,-1.276161540E0,2.169564161E0
2.863970833E0,1.562824504E0,-2.082549005E0,-6.804404855E-1,2.691176330E0
2.873997833E0,2.041757366E0,-2.019500817E0,-2.675659570E-1,2.884224026E0
2.884023833E0,2.300994549E0,-1.771946663E0,-1.888372913E-1,2.910331668E0
2.894050833E0,3.126845056E0,-1.084894731E0,-1.130757952E-1,3.311637467E0
2.904076833E0,3.006010298E0,-5.209722966E-1,9.059909821E-2,3.052166155E0
2.914103833E0,1.219580447E0,-2.603671575E-1,-9.239974827E-2,1.250482001E0
2.924129833E0,-5.785155133E-1,-3.842380822E-2,-1.204147817E-1,5.921623999E-1
2.934156833E0,-3.534592453E0,1.490525436E-1,-5.104828303E-1,3.574374517E0
2.944182833E0,-3.491655179E0,9.396849775E-1,-9.889699888E-1,3.748696491E0
2.954208833E0,-3.479500279E0,1.909236363E0,-1.665010883E0,4.303994299E0
2.964235833E0,-1.531148675E0,1.009170949E0,-3.271724734E-1,1.862762491E0
2.974261833E0,1.394519710E0,5.881398475E-1,7.323288234E-1,1.681338517E0
2.984288833E0,1.889017569E0,2.438949662E-1,7.468745032E-1,2.045896784E0
2.994315208E0,3.364415381E0,-7.635253268E-1,2.693008259E-2,3.450070580E0
3.004342208E0,2.550308423E0,-1.089714591E0,-9.634504008E-1,2.935947482E0
3.014368208E0,1.445394287E0,-7.258476233E-1,-1.787304668E0,2.410493184E0
3.024395208E0,-9.521876402E-2,-6.738611984E-1,-1.924569224E0,2.041353038E0
3.034421208E0,-1.172020876E0,-7.478115195E-1,-1.548786947E0,2.081248666E0
3.044448208E0,-1.304003642E0,-6.293235415E-1,-8.998116446E-1,1.704738870E0
3.054474208E0,-1.090356834E0,-1.561031163E-1,-4.513193867E-1,1.190350956E0
3.064500208E0,-3.127459306E-1,3.677635521E-1,-1.673964286E-1,5.109614580E-1
3.074527208E0,4.190181249E-1,8.294339722E-1,3.438253435E-1,9.908343808E-1
3.084553208E0,6.204825515E-1,1.462126679E0,1.002865312E0,1.878443999E0
3.094580208E0,7.982385651E-1,1.489032058E0,7.560864991E-1,1.850964092E0
3.104606208E0,3.195588504E-1,1.147721309E0,2.158724776E-1,1.210777845E0
3.114633208E0,-2.262439764E-1,8.133734250E-1,-4.531580436E-1,9.581831129E-1
3.124659208E0,4.232510705E-2,5.901460272E-1,-7.237892573E-1,9.348447128E-1
3.134686208E0,5.876460502E-1,3.261448252E-1,-4.231092024E-1,7.941786477E-1
3.144712208E0,1.459957947E0,1.546559304E-1,5.942817628E-3,1.468138611E0
3.154739208E0,2.198850416E0,1.473550969E-1,5.574983910E-2,2.204487406E0
3.164765208E0,1.446951985E0,7.575184822E-2,1.288493903E-1,1.454651352E0
3.174791208E0,-1.783789614E-1,-5.935859442E-2,4.321302867E-1,4.712526724E-1
3.184818208E0,-1.442950736E0,-2.292985618E-1,7.413123393E-1,1.638361572E0
3.194844208E0,-1.987386155E0,-1.555178100E-1,8.203459373E-1,2.155656970E0
3.204871208E0,-2.269205284E0,3.480087340E-2,1.022757247E0,2.489284257E0
3.214897208E0,-2.311136837E0,2.398785138E-1,9.452640983E-1,2.508469533E0
3.224924208E0,-2.084682069E0,3.591845173E-1,7.136551555E-1,2.232535896E0
3.234950208E0,-2.107004692E0,-2.102389777E-1,4.861901343E-1,2.172567616E0
3.244977208E0,-1.264260410E0,-7.752332067E-1,2.266532815E-1,1.500237521E0
3.255003208E0,-3.664802710E-2,-1.284933826E0,1.000139925E-1,1.289341232E0
3.265029208E0,1.159847265E0,-1.620420163E0,-5.480071905E-1,2.066716977E0
3.275056208E0,1.644500459E0,-1.561967302E0,-1.381898203E0,2.655892741E0
3.285082208E0,1.278927858E0,-1.375589642E0,-1.903117691E0,2.673903565E0
3.295109208E0,6.723812681E-1,-7.923830903E-1,-2.017610851E0,2.269520010E0
3.305135208E0,-1.027715394E-1,-1.309928334E-1,-1.835515838E0,1.843051682E0
3.315162208E0,-1.025557479E0,3.342163217E-1,-1.648097373E0,1.969693794E0
3.325188208E0,-1.809819664E0,5.575507236E-1,-1.499577219E0,2.415583130E0
3.335215208E0,-1.995814039E0,6.289382100E-1,-1.306225292E0,2.466791735E0
3.345241208E0,-1.680969250E0,7.410147160E-1,-1.017006218E0,2.099776673E0
3.355268208E0,-1.162077685E0,8.896094227E-1,-6.869621775E-1,1.616708540E0
3.365294208E0,-6.385168263E-1,1.178528534E0,-3.670016599E-1,1.389720642E0
3.375320208E0,-5.040162483E-1,1.463380907E0,-1.473986587E-1,1.554748347E0
3.385347208E0,-5.351930174E-1,1.565498435E0,2.440674591E-1,1.672359364E0
3.395373208E0,-3.688061106E-1,1.903276881E0,1.936366859E-1,1.948326461E0
3.405400208E0,-8.754258317E-1,1.660285894E0,1.365070501E-1,1.881901648E0
3.415426208E0,-1.259061943E0,1.356918313E0,4.271510902E-1,1.899716384E0
3.425453208E0,-1.582825490E0,2.150383723E-1,4.506729770E-1,1.659724123E0
3.435479208E0,-1.572244368E0,-6.882804322E-1,-2.794992471E-1,1.738908317E0
3.445506208E0,2.072390637E-1,2.609273207E-1,-5.473511329E-1,6.407997807E-1
3.455532208E0,2.325947250E0,1.848320655E0,-3.839012825E-1,2.995613468E0
3.465558208E0,2.840122451E0,9.772697103E-1,-2.626005015E-1,3.015014203E0
3.475585208E0,7.721148866E-1,-1.210451408E0,-2.200561604E-1,1.452507736E0
3.485611208E0,4.511457244E-1,-1.287402520E0,-6.249270201E-2,1.365592564E0
3.495638208E0,1.125845121E0,-1.338868543E0,-7.554134846E-2,1.750943376E0
3.505664208E0,2.111921323E0,-1.089938539E0,6.465815985E-1,2.462974920E0
3.515691208E0,3.373825305E0,-2.087561238E-1,1.867344864E0,3.861768138E0
3.525717208E0,2.595045470E0,3.480017173E-1,2.724101998E0,3.778372385E0
3.535744208E0,2.251679425E0,1.518235391E0,2.974808385E0,4.027975157E0
3.545770208E0,1.172927194E0,1.100540711E0,2.536334162E0,3.003321335E0
3.555797208E0,-3.132267544E-2,-4.047647327E-1,2.261855188E0,2.298000107E0
3.565823208E0,-1.595456937E0,-2.313909879E0,2.296810136E0,3.629738085E0
3.575849208E0,-2.388785815E0,-4.653099026E0,2.613476186E0,5.847040789E0
3.585876208E0,-2.287752068E0,-5.298069717E0,3.223101043E0,6.609972207E0
3.595902208E0,-2.368487206E0,-3.320539044E0,2.588042844E0,4.830494483E0
3.605929208E0,-2.352069101E0,-4.287137586E-1,1.195627108E0,2.673115921E0
3.615955208E0,-3.179732244E0,8.188768244E-1,-7.440219390E-1,3.366723191E0
3.625982208E0,-3.833495685E0,1.468969676E0,-2.754057283E0,4.943520264E0
3.636008208E0,-3.243380063E0,2.240493994E0,-3.889072008E0,5.537527305E0
3.646035208E0,-1.660698708E0,2.809287159E0,-3.980548189E0,5.147307881E0
3.656061208E0,-4.312181211E-1,2.787758296E0,-3.585740680E0,4.562354831E0
3.666088208E0,5.188610863E-1,3.110794741E0,-3.152607011E0,4.459281524E0
3.676114208E0,2.776465568E-1,3.105462080E0,-3.139723256E0,4.424798805E0
3.686140208E0,5.723126773E-1,3.566807980E0,-2.474187323E0,4.378500186E0
3.696167208E0,1.225456314E0,3.829271364E0,-1.130451411E0,4.176479708E0
3.706193208E0,1.860874627E0,3.337400660E0,3.758392878E-1,3.839577153E0
3.716220208E0,1.566588649E0,2.355090065E0,1.521675893E0,3.211875890E0
3.726246208E0,1.283699479E0,9.711014825E-1,1.621039968E0,2.284445888E0
3.736273208E0,1.555240080E0,-2.881496179E-1,1.871293927E0,2.450212822E0
3.746299208E0,1.860225586E0,-1.492871924E0,1.870780395E0,3.031323985E0
3.756326208E0,1.431544280E0,-2.450949318E0,1.577771741E0,3.247435181E0
3.766352208E0,1.195899954E0,-2.641683154E0,1.239972246E0,3.153759305E0
3.776378208E0,1.763271149E0,-2.399689118E0,1.080904664E0,3.167962737E0
3.786405208E0,1.971999791E0,-1.896021656E0,4.358549631E-1,2.770135528E0
3.796431208E0,2.218612836E0,-1.438374120E0,-5.034927763E-2,2.644560091E0
3.806458208E0,2.686040132E0,-1.062870609E0,-3.718852544E-1,2.912525393E0
3.816484208E0,3.113521590E0,-8.264092076E-1,-8.567153263E-1,3.333306170E0
3.826511208E0,3.254230742E0,-6.115743184E-1,-1.663951514E0,3.705775965E0
3.836537208E0,3.560523977E0,-3.279761732E-1,-2.398762919E0,4.305689597E0
3.846564208E0,3.848263998E0,1.397858763E-1,-2.837458459E0,4.783288241E0
3.856590208E0,3.890011071E0,4.658687210E-1,-2.682057009E0,4.747910024E0
3.866617208E0,3.828035848E0,7.338583088E-1,-1.988669618E0,4.375752886E0
3.876643208E0,3.295340176E0,8.626186752E-1,-9.514729643E-1,3.536761040E0
3.886669208E0,2.524609033E0,7.109711373E-1,2.921117095E-1,2.639026331E0
3.896696208E0,1.563086167E0,3.333029866E-1,1.491768554E0,2.186253111E0
3.906722208E0,5.364799165E-1,-8.405021667E-2,2.308847945E0,2.371846110E0
3.916749208E0,-4.334456909E-1,-3.733938360E-1,2.958539093E0,3.013345597E0
3.926775208E0,-1.368451069E0,-7.273643911E-1,2.907546694E0,3.294775419E0
3.936802208E0,-2.110880811E0,-1.242470176E0,2.509837797E0,3.506969590E0
3.946828208E0,-2.571048497E0,-1.693367102E0,2.200617152E0,3.784243434E0
3.956855208E0,-2.812708365E0,-2.083008596E0,1.694285114E0,3.888554385E0
3.966881208E0,-2.972542589E0,-2.389751775E0,1.152979710E0,3.984505641E0
3.976908208E0,-2.602434304E0,-2.546060713E0,-5.837861935E-2,3.641221982E0
3.986934208E0,-2.275068872E0,-2.035984118E0,-1.865189288E0,3.577722849E0
3.996960250E0,-1.978848050E0,-1.097801290E0,-4.260617539E0,4.824299855E0
4.006987250E0,-1.582926939E0,-6.856854379E-2,-5.935601580E0,6.143429453E0
4.017013250E0,-1.255093730E0,5.214997154E-1,-5.761382620E0,5.919522947E0
4.027040250E0,-1.166436492E0,7.762640709E-1,-4.377252535E0,4.596030869E0
4.037066250E0,-1.237822809E0,7.236718744E-1,-2.660126442E0,3.021949532E0
4.047093250E0,-1.149414663E0,6.485942101E-1,-9.633966064E-1,1.634001694E0
4.057119250E0,-9.495950579E-1,4.834922290E-1,5.112817061E-1,1.181907142E0
4.067146250E0,-6.945629731E-1,3.891778100E-1,1.696142775E0,1.873706862E0
4.077172250E0,-3.721665055E-1,3.887521327E-1,2.571561005E0,2.627272755E0
4.087198250E0,-5.044100583E-2,2.730351502E-1,3.098450099E0,3.110865716E0
4.097225250E0,2.110940599E-1,1.016515052E-1,3.462240468E0,3.470158900E0
4.107251250E0,5.627734566E-1,7.593662024E-2,3.640992190E0,3.685010781E0
4.117278250E0,9.109874278E-1,1.293351477E-1,3.626313339E0,3.741226284E0
4.127304250E0,1.233775659E0,2.139332485E-1,3.490439250E0,3.708252415E0
4.137331250E0,1.509233895E0,2.768504584E-1,3.279564096E0,3.620769778E0
4.147357250E0,1.587252124E0,2.855920458E-1,2.829170616E0,3.256553162E0
4.157384250E0,1.340294679E0,1.580864918E-1,2.044637997E0,2.449882794E0
4.167410250E0,1.027557811E0,-6.145423651E-3,1.241338155E0,1.611469279E0
4.177437250E0,5.724731103E-1,-1.490332478E-1,4.536854625E-1,7.454977329E-1
4.187463250E0,-2.057891004E-3,-3.193532842E-1,-3.616456103E-1,4.824710380E-1
4.197489250E0,-7.012171045E-1,-5.348530018E-1,-1.098612299E0,1.408801670E0
4.207516250E0,-1.427265872E0,-6.472528589E-1,-1.736641760E0,2.339219685E0
4.217542250E0,-2.115928712E0,-5.865342021E-1,-2.137178371E0,3.064099880E0
4.227569250E0,-2.644918711E0,-3.795193791E-1,-2.224191957E0,3.476587379E0
4.237595250E0,-2.925819243E0,-1.048563641E-1,-1.961516318E0,3.524054393E0
4.247622250E0,-3.016217197E0,1.014760888E-1,-1.457680457E0,3.351521429E0
4.257648250E0,-2.955619285E0,1.665251935E-1,-8.586261964E-1,3.082313246E0
4.267675250E0,-2.661791144E0,2.159043449E-1,-2.597122510E-1,2.683131982E0
4.277701250E0,-2.269873329E0,1.840031058E-1,1.739347851E-1,2.283951703E0
4.287727250E0,-1.808253195E0,2.205628216E-2,4.728421469E-1,1.869183188E0
4.297754250E0,-1.310401666E0,-2.411572999E-1,6.283277607E-1,1.473127674E0
4.307780250E0,-8.457061887E-1,-5.774523067E-1,7.338466144E-1,1.259841648E0
4.317807250E0,-5.091354125E-1,-8.946871448E-1,8.150060407E-1,1.312980884E0
4.327833250E0,-3.433762043E-1,-1.072625518E0,7.974702410E-1,1.379996922E0
4.337860250E0,-2.762139159E-1,-1.006931466E0,7.273106698E-1,1.272472363E0
4.347886250E0,-2.782480891E-1,-7.701280028E-1,5.525608194E-1,9.878474573E-1
4.357913250E0,-2.981968155E-1,-4.702699202E-1,3.311980621E-1,6.478945091E-1
4.367939250E0,-3.637622293E-1,-1.489420313E-1,-2.373238653E-4,3.930734594E-1
4.377966250E0,-6.144830158E-1,1.849123478E-2,-3.892280960E-1,7.276192777E-1
4.387992250E0,-9.435681134E-1,1.033331645E-1,-8.377574837E-1,1.266031646E0
4.398018250E0,-1.336934869E0,3.231808716E-1,-1.566143968E0,2.084381838E0
4.408045250E0,-1.867304518E0,6.281938595E-1,-2.351235434E0,3.067533497E0
4.418071250E0,-2.638550216E0,6.205954027E-1,-2.871378157E0,3.948657799E0
4.428098250E0,-3.558341504E0,3.065063667E-1,-3.068943880E0,4.708944356E0
4.438124250E0,-4.248502986E0,1.068169355E-1,-2.956984903E0,5.177349437E0
4.448151250E0,-4.445613795E0,1.164315122E-1,-2.750582868E0,5.229029013E0
4.458177250E0,-4.262396847E0,2.426775759E-1,-2.291005605E0,4.845165216E0
4.468204250E0,-4.379041783E0,2.286004043E-1,-1.848996740E0,4.758892100E0
4.478230250E0,-4.401072922E0,3.998296827E-1,-1.277227049E0,4.600066910E0
4.488257250E0,-2.663078116E0,2.169156793E0,2.025437495E-1,3.440675837E0
4.498283250E0,-4.353770701E0,-3.921786010E-2,1.381894841E0,4.567985411E0
4.508309250E0,-4.793508800E0,-9.443440390E-1,3.378876715E0,5.940228963E0
4.518336250E0,-3.820596143E0,-2.669680792E-1,4.906648915E0,6.224422095E0
4.528362250E0,-3.301644936E0,2.104307663E-1,5.955161101E0,6.812421312E0
4.538389250E0,-3.042237307E0,6.458653146E-1,6.045798790E0,6.798825844E0
4.548415250E0,-2.467014251E0,9.662442005E-1,5.438999308E0,6.050000053E0
4.558442250E0,-8.364941928E-1,1.317157831E0,4.300963912E0,4.575250579E0
4.568468250E0,9.385941795E-1,1.360447108E0,2.700380136E0,3.166042995E0
4.578495250E0,2.920776897E0,1.340904543E0,1.095604491E0,3.395484042E0
4.588521250E0,4.827942761E0,1.350453047E0,-8.085091263E-2,5.013909812E0
4.598548250E0,5.892474271E0,1.353062659E0,-3.838413486E-1,6.058000146E0
4.608574250E0,5.873581917E0,1.418656139E0,8.927090317E-2,6.043138181E0
4.618600250E0,4.891866861E0,1.585297108E0,3.884539247E-1,5.156978259E0
4.628627250E0,3.150297945E0,1.667229463E0,1.897938958E-1,3.569321077E0
4.638653250E0,1.560787041E0,1.617632795E0,-1.273365694E-1,2.251445458E0
4.648680250E0,5.612892871E-1,1.554467663E0,-3.300025257E-1,1.685324018E0
4.658706250E0,-3.652477875E-2,1.467323100E0,-7.469663045E-1,1.646915237E0
4.668733250E0,-6.039048180E-1,1.319256397E0,-1.181358587E0,1.871028215E0
4.678759250E0,-1.244888000E0,1.084651487E0,-1.423884720E0,2.180289585E0
4.688786250E0,-1.775692243E0,8.304987502E-1,-1.601387768E0,2.531255400E0
4.698812250E0,-2.073606858E0,5.434753060E-1,-1.539796414E0,2.639352914E0
4.708838250E0,-2.162710092E0,3.206484425E-1,-1.360403546E0,2.575039451E0
4.718865250E0,-2.270540350E0,2.190945858E-1,-1.463309864E0,2.710098093E0
4.728891250E0,-2.582884138E0,2.782409263E-1,-2.151966272E0,3.373376249E0
4.738918250E0,-3.131585686E0,4.519786602E-1,-3.140906440E0,4.458296410E0
4.748944250E0,-3.512985822E0,4.949720675E-1,-3.207859105E0,4.782930772E0
4.758971250E0,-3.218280890E0,3.454821521E-1,-1.556362161E0,3.591511239E0
4.768997250E0,-2.549120561E0,2.499848413E-1,5.775587261E-1,2.625658420E0
4.779024250E0,-2.084191634E0,2.472559458E-1,1.429126310E0,2.539171573E0
4.789050250E0,-1.864728089E0,-5.663028359E-2,8.921357122E-1,2.067927456E0
4.799077250E0,-1.360567122E0,-6.230693597E-1,-6.464586608E-1,1.630112609E0
4.809103250E0,5.516444510E-1,-7.458012468E-1,-1.613297085E0,1.860983230E0
4.819129250E0,8.983938409E-1,-5.755198020E-1,1.139843502E0,1.561274397E0
4.829156250E0,-9.533825187E-1,-4.130859053E-1,3.752721956E0,3.893905529E0
4.839182250E0,-1.791143365E0,-3.913670075E-1,4.194832270E0,4.577988692E0
4.849209250E0,-1.678444569E0,-5.229024625E-1,3.438134445E0,3.861524520E0
4.859235250E0,-1.234931800E0,-5.134498537E-1,3.495845586E0,3.742943182E0
4.869262250E0,-2.375092220E-1,-6.683613074E-1,3.901376889E0,3.965332155E0
4.879288250E0,1.642758134E0,-1.032993675E0,3.145438324E0,3.695877768E0
4.889315250E0,4.048548968E0,-1.524380230E0,1.591637975E0,4.609533086E0
4.899341250E0,6.270447646E0,-2.015109558E0,4.522948484E-1,6.601799061E0
4.909367250E0,8.303687666E0,-2.538785022E0,1.904355546E-1,8.685212948E0
4.919394250E0,9.636941712E0,-3.887721886E0,-3.290017017E-1,1.039679129E1
4.929420250E0,9.945013379E0,-5.009216679E0,-7.473677158E-1,1.116038088E1
4.939447250E0,9.158266420E0,-5.057241030E0,-8.981553476E-2,1.046219850E1
4.949473250E0,7.777845224E0,-4.618633198E0,4.629829008E-2,9.045926844E0
4.959500250E0,6.529122620E0,-3.451942937E0,3.566181743E-1,7.394087418E0
4.969526250E0,5.057346280E0,-2.794796004E0,-2.291542087E-3,5.778203990E0
4.979553250E0,3.442697612E0,-1.746566239E0,-1.040661202E0,3.998204123E0
4.989579250E0,1.525854606E0,-1.072537810E0,-2.207656031E0,2.890037159E0
4.999605625E0,-5.039699822E-1,-1.375060469E-1,-3.025700796E0,3.070465594E0
5.009631625E0,-2.295281820E0,1.244969861E0,-4.067984528E0,4.833918359E0
5.019657625E0,-3.134874160E0,2.585820610E0,-5.021568922E0,6.459880700E0
5.029684625E0,-2.822698040E0,3.393297703E0,-4.517171727E0,6.315610338E0
5.039710625E0,-1.846824353E0,3.709991089E0,-3.130337305E0,5.193631264E0
5.049737625E0,-1.025865043E0,3.548424919E0,-1.853528770E0,4.132709449E0
5.059763625E0,-2.075076555E0,3.560111164E0,-2.724515980E0,4.939971815E0
5.069790625E0,-3.256011511E0,3.408481752E0,-4.061719236E0,6.222292341E0
5.079816625E0,-3.896744432E0,2.873441640E0,-4.977650485E0,6.943938967E0
5.089843625E0,-3.578141346E0,2.107984977E0,-4.522872763E0,6.140282907E0
5.099869625E0,-2.500188137E0,1.381553802E0,-3.717036399E0,4.687855716E0
5.109896625E0,-1.072217675E0,5.072237384E-1,-3.364048176E0,3.567036136E0
5.119922625E0,1.255685176E-1,9.087099373E-2,-3.524083837E0,3.527490876E0
5.129948625E0,1.382212198E0,6.752247691E-2,-4.409315157E0,4.621377500E0
5.139975625E0,2.346327135E0,3.072770298E-1,-4.346717790E0,4.949103529E0
5.150001625E0,2.262351324E0,7.395435566E-1,-3.272779571E0,4.046757259E0
5.160028625E0,1.453615326E0,1.278097261E0,-2.281699322E0,2.992103261E0
5.170054625E0,1.001028190E0,1.790186468E0,-1.875856656E0,2.779507730E0
5.180081625E0,1.311080966E0,1.932960271E0,-1.824145634E0,2.963574869E0
5.190107625E0,1.937604276E0,1.649190218E0,-1.726048652E0,3.074635369E0
5.200134625E0,2.597218003E0,1.033203591E0,-1.525698777E0,3.184463498E0
5.210160625E0,2.860193603E0,3.385467696E-1,-1.372737370E0,3.190568797E0
5.220187625E0,3.228193383E0,-1.548342705E-1,-1.335200000E0,3.496850756E0
5.230213625E0,3.549461045E0,-5.472461754E-1,-1.697049678E0,3.972169394E0
5.240239625E0,3.981780782E0,-6.091676044E-1,-2.980987431E0,5.011182438E0
5.250266625E0,3.901368703E0,-4.583772683E-1,-6.041080087E0,7.205930620E0
5.260292625E0,1.865710859E0,-7.856909519E-1,-1.081096848E1,1.099887388E1
5.270319625E0,-1.369139432E0,-1.112301216E0,-1.518939162E1,1.529148046E1
5.280345625E0,-3.531918229E0,-1.420541282E0,-1.492329302E1,1.540120315E1
5.290372625E0,-3.653677724E0,-2.404390864E0,-1.131347819E1,1.212951957E1
5.300398625E0,-3.884485160E0,-4.120759742E0,-8.506822861E0,1.021938946E1
5.310425625E0,-4.830437183E0,-5.923640515E0,-8.698597502E0,1.157964761E1
5.320451625E0,-5.592675830E0,-7.047615112E0,-1.094678877E1,1.416965370E1
5.330478625E0,-1.576454071E0,-8.317053816E0,-1.179247976E1,1.451623816E1
5.340504625E0,3.877788051E0,-8.696918181E0,-6.446722487E0,1.149929810E1
5.350530625E0,5.390021861E0,-1.145315297E1,-1.409578337E0,1.273632442E1
5.360557625E0,9.618969710E0,-1.906659261E1,1.961536199E0,2.144544605E1
5.370583625E0,1.579006088E1,-2.629611460E1,-9.409900761E-1,3.068708406E1
5.380610625E0,1.659469740E1,-2.760985532E1,-1.726299556E1,3.654721752E1
5.390636625E0,9.452296582E0,-2.626010277E1,-3.308997810E1,4.328839982E1
5.400663625E0,2.525718250E0,-2.794853541E1,-2.426844757E1,3.710063923E1
5.410689625E0,-2.824772340E0,-2.811165869E1,-8.885060531E0,2.961737655E1
5.420716625E0,-6.696678092E0,-2.706963341E1,1.914752334E0,2.795132961E1
5.430742625E0,-8.236584435E0,-2.589217257E1,8.490103333E0,2.846625684E1
5.440769625E0,-1.023954699E1,-2.396903270E1,1.283839812E1,2.905490178E1
5.450795625E0,-1.191428544E1,-2.120582102E1,1.609796824E1,2.916816114E1
5.460821625E0,-1.084983843E1,-1.751320259E1,1.775984166E1,2.720005946E1
5.470848625E0,-5.920051494E0,-1.306298499E1,1.699224257E1,2.223566717E1
5.480874625E0,4.522858218E-1,-9.542865275E0,1.617367916E1,1.878453454E1
5.490901625E0,8.075288406E0,-7.236336336E0,1.194863550E1,1.613520179E1
5.500927625E0,1.522448661E1,-5.917303303E0,6.787616914E0,1.768816594E1
5.510954625E0,1.830057696E1,-5.691061081E0,4.776285242E0,1.975125803E1
5.520980625E0,1.730062239E1,-7.278987097E0,4.771753650E0,1.936659033E1
5.531007625E0,1.694227344E1,-7.743468858E0,7.122748325E0,1.994330672E1
5.541033625E0,1.564307709E1,-6.846948026E0,9.508757297E0,1.954489763E1
5.551060625E0,1.466840354E1,-5.698781160E0,1.112730284E1,1.927316885E1
5.561086625E0,1.414836504E1,-4.922088488E0,1.284902134E1,1.973576798E1
5.571112625E0,1.355483289E1,-4.403264458E0,1.795682617E1,2.292531000E1
5.581139625E0,1.444755771E1,-5.232134174E0,2.631948242E1,3.047658620E1
5.591165625E0,1.637874803E1,-4.542033211E0,3.390977177E1,3.793107004E1
5.601192625E0,1.339698380E1,1.235716174E1,3.220083645E1,3.700097958E1
5.611218625E0,9.382046379E0,2.893807141E1,3.543295975E1,4.670042192E1
5.621245625E0,4.720759790E0,1.856041319E1,4.389084726E1,4.788716931E1
5.631271625E0,-2.398004827E0,1.025891530E1,4.274279559E1,4.402206657E1
5.641298625E0,-6.641540018E0,3.348366528E0,3.680654321E1,3.755054241E1
5.651324625E0,-8.538879637E0,-2.972659534E0,2.572388269E1,2.726659698E1
5.661351625E0,-1.082186535E1,-5.215586554E0,5.542510813E0,1.323006193E1
5.671377625E0,-5.362971472E0,-2.525273569E0,-3.395367617E0,6.831324239E0
5.681403625E0,1.478301540E0,-7.770391193E-1,-4.009546870E-1,1.717535996E0
5.691430625E0,3.526930262E0,-3.476470837E-1,6.910275711E0,7.766080476E0
5.701456625E0,2.889898628E0,1.297983057E0,1.160007946E1,1.202489574E1
5.711483625E0,1.545275402E0,2.844014065E0,1.295307722E1,1.335134830E1
5.721509625E0,1.430183633E-1,4.068068143E0,1.213000326E1,1.279478846E1
5.731536625E0,-4.884619237E-1,5.712380614E0,1.017603921E1,1.167996838E1
5.741562625E0,-3.575315825E-1,7.467287906E0,7.489185144E0,1.058187656E1
5.751589625E0,-3.298560530E-4,9.145345243E0,3.924870417E0,9.951982089E0
5.761615625E0,4.767451268E-1,9.959648960E0,1.538997100E0,1.008912312E1
5.771642625E0,1.031468429E0,9.406302969E0,1.746279725E0,9.622471384E0
5.781668625E0,1.585006063E0,7.935750452E0,2.553631980E0,8.485836184E0
5.791695625E0,2.212172420E0,7.871942126E0,-2.366026697E0,8.512300628E0
5.801721625E0,1.391768420E1,5.198134954E0,-2.780954475E1,3.152924547E1
5.811747625E0,1.428469989E1,-4.516228455E1,-5.759607522E1,7.457206231E1
5.821774625E0,-3.264851332E0,-3.068017915E1,-5.968098065E0,3.142532166E1
5.831800625E0,-3.856598911E0,-1.013982740E1,2.989316965E1,3.180080261E1
5.841827625E0,-8.071460819E0,-4.110476595E1,2.212835728E1,4.737525155E1
5.851853625E0,-1.219970441E1,-5.020389889E1,3.393466453E1,6.181282803E1
5.861880625E0,-7.828057019E0,-5.038340374E1,2.674014281E1,5.757430925E1
5.871906625E0,2.373533206E0,-2.496921063E1,1.615593286E1,2.983469970E1
5.881933625E0,1.242822471E0,-1.524381634E1,1.277000090E1,1.992464472E1
5.891959625E0,-4.099643692E-2,-1.393416282E1,8.298473704E0,1.621811457E1
5.901986625E0,-1.603989925E0,-1.235141276E1,8.571012425E0,1.511927362E1
5.912012625E0,-1.774153110E0,-1.122304281E1,9.328123941E0,1.470095934E1
5.922038625E0,-8.401288220E-1,-8.806821277E0,1.177324826E1,1.472668639E1
5.932065625E0,6.632157576E-1,-5.535236877E0,1.315942195E1,1.429157404E1
5.942091625E0,2.391949158E0,-3.592183142E0,6.088819095E0,7.463170805E0
5.952118625E0,2.379530111E0,-2.145145202E0,2.999457908E-1,3.217728852E0
5.962144625E0,6.389145539E0,6.190317403E0,-2.310056681E1,2.475434098E1
5.972171625E0,1.246849975E1,1.732541809E1,-4.597821437E1,5.069151601E1
5.982197625E0,1.109380999E1,1.036733087E1,-1.966506332E1,2.484489656E1
5.992224625E0,1.020774749E1,5.402929589E0,-7.416201367E0,1.372551637E1
6.002250958E0,1.042123986E1,3.853614492E0,-4.600743057E0,1.202578153E1
6.012277958E0,8.373251991E0,1.857466870E0,-3.742565927E0,9.357795242E0
6.022303958E0,5.380749931E0,-1.815554613E-1,-1.276957054E0,5.533177344E0
6.032329958E0,4.516477078E-2,-9.377624130E-1,-5.049211049E-1,1.066012909E0
6.042356958E0,-5.956198981E0,-5.442512316E-1,1.792930274E-1,5.983699666E0
6.052382958E0,-9.760338428E0,1.053287022E0,-1.210284178E0,9.891329919E0
6.062409958E0,-1.240908385E1,3.470692618E0,-5.377300074E0,1.396232163E1
6.072435958E0,-1.054060024E1,5.828946612E0,-7.949134144E0,1.443154897E1
6.082462958E0,-5.066758543E-1,6.081960896E0,-6.396556301E0,8.840978524E0
6.092488958E0,6.610242212E0,4.578496740E0,-3.947659940E0,8.957787310E0
6.102515958E0,9.841808853E0,3.254967783E0,-2.860364342E0,1.075349715E1
6.112541958E0,9.610056800E0,2.379729062E0,-7.933800405E-1,9.932056886E0
6.122568958E0,5.191907085E0,2.234344477E0,1.716099614E0,5.907045988E0
6.132594958E0,-9.586591923E-1,2.368388972E0,3.525482199E0,4.354000288E0
6.142621958E0,-4.865133684E0,2.102679799E0,3.575939869E0,6.393601023E0
6.152647958E0,-6.862009869E0,1.041963889E0,6.879032868E-1,6.974674123E0
6.162673958E0,-7.363810315E0,-3.800374424E-1,-3.091664113E0,7.995531115E0
6.172700958E0,-5.868243994E0,-2.095936790E0,-2.525919979E0,6.723801777E0
6.182726958E0,-3.574353227E0,-4.127268278E0,-6.091863155E-1,5.493764865E0
6.192753958E0,-2.387213498E0,-6.923078774E0,-1.559618475E0,7.487337163E0
6.202779958E0,-2.366842968E0,-9.941660585E0,-7.367364253E0,1.259827833E1
6.212806958E0,-1.921333229E0,-1.133413172E1,-1.547268337E1,1.927583965E1
6.222832958E0,-6.254405518E-1,-1.109631026E1,-1.965712280E1,2.258144712E1
6.232859958E0,2.153580396E0,-9.045853699E0,-1.959736660E1,2.169152266E1
6.242885958E0,5.139809563E0,-4.829238212E0,-1.922461245E1,2.047742434E1
6.252912958E0,7.260012297E0,-1.619743640E0,-1.705964577E1,1.861082647E1
6.262938958E0,7.645665405E0,-1.432532752E-1,-1.239174919E1,1.456132443E1
6.272965958E0,6.386923597E0,1.657913679E-1,-5.629796294E0,8.515567282E0
6.282991958E0,4.490626538E0,-4.371466130E-1,1.787648191E0,4.853092820E0
6.293017958E0,6.279622512E0,-1.055106676E0,2.523420879E0,6.849420554E0
6.303044958E0,1.614829757E1,-5.787656499E0,5.060141834E0,1.788489635E1
6.313070958E0,2.414091044E1,-1.009153876E1,4.287817032E0,2.651429965E1
6.323097958E0,2.770953164E1,-1.149864197E1,1.569156161E0,3.004162382E1
6.333123958E0,2.736801448E1,-1.454111550E1,-6.542441407E0,3.167421343E1
6.343150958E0,2.172597763E1,-1.829571558E1,-1.268741599E1,3.110822780E1
6.353176958E0,1.443811563E1,-2.071287267E1,-1.023743614E1,2.724495139E1
6.363203958E0,7.967931772E0,-2.654204382E1,-6.280965033E0,2.841511127E1
6.373229958E0,3.059877187E0,-3.402965840E1,-5.894055358E0,3.467160780E1
6.383256958E0,-2.599927602E0,-4.062404062E1,-5.945559388E0,4.113905658E1
6.393282958E0,-5.766952093E0,-4.184049537E1,-6.101788219E0,4.267454286E1
6.403309958E0,-2.722792806E0,-3.596239004E1,-6.284535343E0,3.660877604E1
6.413335958E0,9.069008088E-1,-2.778298904E1,-2.689361935E0,2.792757807E1
6.423361958E0,2.608582066E0,-2.207347999E1,5.577746719E0,2.291624921E1
6.433388958E0,4.609777005E0,-1.723434420E1,1.239058911E1,2.172094295E1
6.443414958E0,6.501059493E0,-1.225972491E1,1.440281950E1,2.000014597E1
6.453441958E0,6.567242957E0,-7.693015573E0,1.569239718E1,1.866982855E1
6.463467958E0,8.495454705E0,-4.333912095E0,1.606226982E1,1.868025847E1
6.473494958E0,1.361664381E1,-1.761948071E0,1.466629854E1,2.009024048E1
6.483520958E0,1.793218015E1,-9.306346571E-1,1.326038699E1,2.232189573E1
6.493547958E0,1.895096977E1,-1.154068608E0,1.567303939E1,2.461940887E1
6.503573958E0,1.922330618E1,-1.181689831E0,2.029845477E1,2.798140735E1
6.513600958E0,2.101493515E1,-1.947285365E0,2.665824904E1,3.400120089E1
6.523626958E0,1.998937329E1,-1.211305979E0,3.541966084E1,4.068899951E1
6.533653958E0,1.633731817E1,9.031229228E0,4.093665616E1,4.499200911E1
6.543679958E0,1.192067411E1,1.692390967E1,4.756229058E1,5.187188714E1
6.553705958E0,8.816911232E0,1.005847158E1,6.110842282E1,6.255517655E1
6.563732958E0,4.758835981E0,-6.731250340E-1,6.036457747E1,6.055560940E1
6.573758958E0,-2.630499769E0,-7.418315136E0,5.254759858E1,5.313380323E1
6.583785958E0,-6.402147408E0,-1.047555815E1,3.410920158E1,3.625137849E1
6.593811958E0,-1.607696037E1,-6.234458034E0,-3.626487002E0,1.762068471E1
6.603838958E0,-1.208763902E1,-2.171444516E0,-1.094642741E1,1.645145773E1
6.613864958E0,-7.955207062E0,-1.955645421E0,1.438138477E0,8.317337957E0
6.623891958E0,-4.959506575E0,-1.462961077E0,1.005452705E1,1.130621399E1
6.633917958E0,-2.102501751E0,-6.786847128E-1,1.484266577E1,1.500619384E1
6.643944958E0,-5.243050633E-1,1.617515266E-2,1.532520607E1,1.533418073E1
6.653970958E0,1.144278176E0,1.864364830E0,1.376690205E1,1.393961337E1
6.663997958E0,1.719365577E0,4.266050187E0,1.181649778E1,1.268010339E1
6.674023958E0,1.256329978E0,6.421966546E0,9.322476701E0,1.138984597E1
6.684049958E0,1.945381804E-1,8.609207608E0,5.772608689E0,1.036722296E1
6.694076958E0,5.687308922E-2,9.682396213E0,4.245101368E0,1.057227112E1
6.704102958E0,5.435337782E-2,9.949018722E0,-2.486319711E0,1.025513108E1
6.714129958E0,1.704054058E-1,8.958079391E0,-5.531450220E0,1.052963275E1
6.724155958E0,-1.803997591E-1,8.399784901E0,-1.285582574E0,8.499508987E0
6.734182958E0,-1.280419483E0,7.581257156E0,2.703385605E0,8.150044653E0
6.744208958E0,-1.675619633E0,6.514779400E0,6.225097811E0,9.165254745E0
6.754235958E0,-1.934999195E0,3.870112996E0,8.662883878E0,9.683364785E0
6.764261958E0,5.097099161E0,-6.056208004E0,-6.230502393E0,1.007359098E1
6.774288958E0,2.309749585E1,-2.827943870E1,-4.405318468E1,5.721803954E1
6.784314958E0,2.279590349E1,-4.907243927E1,1.830507814E1,5.712121671E1
6.794341958E0,2.297124979E1,-7.025512871E1,2.615672868E1,7.840686119E1
6.804367958E0,-7.376381244E0,-6.096826740E1,1.026639857E1,6.226507504E1
6.814393958E0,-5.744093572E0,-3.789566665E1,9.592021648E0,3.951054342E1
6.824420958E0,-4.035596800E0,-2.228000131E1,8.230875213E0,2.409215239E1
6.834446958E0,3.726803880E0,-2.217824806E1,1.489041647E1,2.697199023E1
6.844473958E0,7.782676193E0,-1.944443618E1,1.203219104E1,2.415429089E1
6.854499958E0,5.284149835E0,-1.226983943E1,7.041367362E0,1.510139243E1
6.864526958E0,4.960576615E0,-7.284210414E0,8.141735580E0,1.199812068E1
6.874552958E0,6.052847024E0,-2.782656600E0,7.930496728E0,1.035726379E1
6.884579958E0,6.060650718E0,6.516756928E-1,4.664035074E0,7.675245371E0
6.894605958E0,5.981203430E0,4.058274057E0,-2.764394576E0,7.738621335E0
6.904632958E0,5.351720259E0,1.044517602E1,-1.981861588E1,2.303302297E1
6.914658958E0,3.416340702E0,1.440452805E1,-2.646073478E1,3.032049302E1
6.924685958E0,3.910121400E0,1.112449852E1,-1.511802869E1,1.917285342E1
6.934711958E0,3.475562472E0,7.286544623E0,-8.959327771E0,1.205996771E1
6.944738958E0,7.147788441E-1,4.429086932E0,-6.906961509E0,8.236129985E0
6.954764958E0,-4.752919476E0,1.987045262E0,-3.362539594E0,6.151850530E0
6.964790958E0,-1.060928164E1,1.316686546E0,-3.552341968E0,1.126541849E1
6.974817958E0,-1.587427599E1,2.080072709E0,-6.171041472E0,1.715812034E1
6.984843958E0,-1.807790680E1,3.145455281E0,-7.828960998E0,1.994986801E1
6.994870958E0,-1.546475572E1,4.322737774E0,-6.920244044E0,1.748526548E1
7.004896875E0,-5.506491380E0,5.551395657E0,-5.270360931E0,9.429535800E0
7.014923875E0,5.192951982E0,5.436955706E0,-3.419320151E0,8.259478672E0
7.024949875E0,9.325261145E0,4.650756631E0,-1.862023167E0,1.058570559E1
7.034976875E0,1.202020893E1,4.101106666E0,5.005320387E-1,1.271043000E1
7.045002875E0,1.272159414E1,4.046491333E0,2.319311391E0,1.354962194E1
7.055029875E0,8.949131981E0,4.565746302E0,3.426979419E0,1.061495127E1
7.065055875E0,3.275078989E0,5.054625571E0,3.220902197E0,6.830050732E0
7.075082875E0,-3.387619472E-1,4.897223203E0,1.902636611E0,5.264748886E0
7.085108875E0,-1.893193942E0,3.810964317E0,4.300630036E-1,4.276983343E0
7.095135875E0,-3.127677699E0,2.663778028E0,-1.529600332E0,4.383806377E0
7.105161875E0,-3.662676589E0,1.279707584E0,-3.345728264E0,5.123158100E0
7.115187875E0,-3.172797446E0,-5.045615011E-1,-4.216167006E0,5.300687707E0
7.125214875E0,-2.382762013E0,-2.823081910E0,-5.515126548E0,6.638069533E0
7.135240875E0,-1.686927855E0,-5.172576774E0,-9.796719804E0,1.120611418E1
7.145267875E0,-8.578192806E-1,-7.077808964E0,-1.534129410E1,1.691704875E1
7.155293875E0,1.292480827E0,-8.449241236E0,-1.844423486E1,2.032855095E1
7.165320875E0,4.352534600E0,-8.803548006E0,-1.921794194E1,2.158185134E1
7.175346875E0,6.320841874E0,-7.807840270E0,-1.934100829E1,2.179426561E1
7.185373875E0,6.969968766E0,-5.159765525E0,-1.737320505E1,1.941730925E1
7.195399875E0,6.515356520E0,-2.511577928E0,-1.414670209E1,1.577615525E1
7.205426875E0,5.490571750E0,4.497912169E-2,-9.367724209E0,1.085829904E1
7.215452875E0,3.279357689E0,1.018913580E0,-3.605019534E0,4.978808851E0
7.225479875E0,3.975642375E0,-4.208954465E-1,-7.735901392E-1,4.072017555E0
7.235505875E0,1.045667632E1,-3.062455224E0,2.408364339E-1,1.089856476E1
7.245532875E0,1.996279419E1,-7.383838198E0,1.965006083E0,2.137511327E1
7.255558875E0,3.061775895E1,-1.092679714E1,4.782805764E0,3.285905187E1
7.265585875E0,3.395657756E1,-1.492675107E1,5.232532954E-1,3.709623769E1
7.275611875E0,3.217558818E1,-1.777194188E1,-5.754241415E0,3.720512985E1
7.285637875E0,2.348529489E1,-2.097305272E1,-1.181809992E1,3.363176329E1
7.295664875E0,1.304389149E1,-2.434544838E1,-1.163299344E1,2.996949280E1
7.305690875E0,9.751314420E0,-2.972797879E1,-8.195898923E0,3.234213374E1
7.315717875E0,6.921105339E0,-3.698923830E1,-5.806447695E0,3.807650566E1
7.325743875E0,2.312685472E0,-4.117008636E1,-4.821501760E0,4.151591748E1
7.335770875E0,-3.877130824E-1,-3.904771080E1,-4.058397433E0,3.925996218E1
7.345796875E0,8.159625721E-1,-3.228267642E1,8.481093943E-2,3.229309810E1
7.355823875E0,9.651829308E-1,-2.657748964E1,5.997417174E0,2.726286020E1
7.365849875E0,2.223327153E0,-2.100368043E1,1.080059551E1,2.372236579E1
7.375876875E0,3.973416924E0,-1.606947944E1,1.313959170E1,2.113445248E1
7.385902875E0,6.207981842E0,-1.191478246E1,1.616861547E1,2.102201717E1
7.395929875E0,1.005133564E1,-8.590788878E0,1.924407666E1,2.334877916E1
7.405955875E0,1.594738373E1,-5.175134346E0,1.943733181E1,2.566926044E1
7.415982875E0,2.005853416E1,-2.717882899E0,1.732117886E1,2.664122589E1
7.426008875E0,1.860530109E1,-4.362672283E-1,1.409789655E1,2.334733914E1
7.436034875E0,1.904938660E1,6.576416069E-1,1.743158833E1,2.582967080E1
7.446061875E0,2.377372167E1,5.972914709E-1,2.702576993E1,3.599915054E1
7.456087875E0,2.237410406E1,7.404614525E0,3.969286451E1,4.616223935E1
7.466114875E0,2.131400620E1,1.701316040E1,4.844908866E1,5.559720029E1
7.476140875E0,1.567847730E1,1.998568487E1,6.141005962E1,6.645628392E1
7.486167875E0,1.202242970E1,9.227610304E0,6.839613981E1,7.005511793E1
7.496193875E0,5.482485051E0,-3.822502043E0,6.120976676E1,6.157357153E1
7.506220875E0,-3.792641189E0,-9.437864485E0,4.782750157E1,4.889710953E1
7.516246875E0,-1.048319812E1,-9.615573063E0,2.579036319E1,2.945334483E1
7.526273875E0,-1.647398514E1,-2.314887680E0,-1.051270902E1,1.967912453E1
7.536299875E0,-1.425415988E1,1.475189067E0,-1.401505671E1,2.004442744E1
7.546326875E0,-1.090682422E1,2.040896071E-1,-6.594115591E-1,1.092864542E1
7.556352875E0,-4.365623592E0,1.508742437E-1,8.917997897E0,9.930363481E0
7.566379875E0,-1.140374429E0,3.221043992E-1,1.439821072E1,1.444689160E1
7.576405875E0,-3.486664544E-2,8.445048782E-1,1.579779909E1,1.582039381E1
7.586432875E0,1.167947120E0,2.484969881E0,1.508048606E1,1.532841269E1
7.596458875E0,1.675971050E0,4.510908775E0,1.342749691E1,1.426376003E1
7.606485875E0,1.315072422E0,6.193667273E0,1.166678099E1,1.327421216E1
7.616511875E0,1.516238275E0,7.680328869E0,8.377753762E0,1.146617583E1
7.626537875E0,1.525221060E0,8.554301083E0,5.490460069E0,1.027849785E1
7.636564875E0,1.313336676E0,8.376459188E0,4.377976420E0,9.542358162E0
7.646590875E0,9.344297925E-1,7.687394060E0,3.758437609E0,8.607847567E0
7.656617875E0,7.551138148E-1,7.094365940E0,4.070257633E0,8.213843325E0
7.666643875E0,-8.436947465E-2,6.301200492E0,6.276756792E0,8.894375845E0
7.676670875E0,-1.002080616E0,4.497143260E0,9.580895566E0,1.063118163E1
7.686696875E0,4.513535344E0,-2.364526302E0,4.061530371E0,6.516058233E0
7.696723875E0,3.839000429E1,-2.337826979E1,-4.652486823E1,6.469079758E1
7.706749875E0,2.019694945E1,-3.765722655E1,-7.368039021E0,4.336209724E1
7.716776875E0,3.782880959E1,-6.520948680E1,3.231845203E1,8.202303545E1
7.726802875E0,5.462453660E0,-6.709468058E1,1.329395235E1,6.861678899E1
7.736829875E0,-6.112778646E-1,-4.494858519E1,1.291309162E1,4.677068426E1
7.746855875E0,-6.170063818E-1,-2.554710967E1,7.924294587E0,2.675499867E1
7.756882875E0,3.236695819E0,-2.122604537E1,1.175218192E1,2.447723394E1
7.766908875E0,6.832745140E0,-2.046403389E1,9.979069902E0,2.377067364E1
7.776935875E0,4.850823793E0,-1.468468102E1,6.585866339E0,1.680904469E1
7.786961875E0,3.716703984E0,-9.013770611E0,7.272027740E0,1.216323709E1
7.796987875E0,2.830512259E0,-3.987666004E0,6.958924545E0,8.505287217E0
7.807014875E0,1.405053762E0,-3.666034645E-1,5.422556938E0,5.613617187E0
7.817040875E0,-4.650553733E-2,2.091351988E0,1.786647148E0,2.751004168E0
7.827067875E0,-1.544454014E0,5.690210896E0,-8.184095149E0,1.008678599E1
7.837093875E0,-7.263089687E0,1.345870584E1,-3.227668186E1,3.571657075E1
7.847120875E0,-5.754644288E0,1.404439336E1,-2.797218623E1,3.182458355E1
7.857146875E0,-7.016749415E-1,9.978526111E0,-1.463430375E1,1.772642596E1
7.867173875E0,9.187765038E-1,6.245435597E0,-7.721278675E0,9.973352517E0
7.877199875E0,-8.331849611E-1,3.278244379E0,-3.449982658E0,4.831507397E0
7.887226875E0,-5.618624604E0,1.855020395E0,-3.967883997E0,7.124194447E0
7.897252875E0,-1.186700837E1,2.248374871E0,-8.936780323E0,1.502488335E1
7.907279875E0,-1.419874231E1,3.229213722E0,-1.315391621E1,1.962288501E1
7.917305875E0,-7.049407284E0,4.078475602E0,-1.154676923E1,1.412996765E1
7.927332875E0,2.366645333E0,4.110997231E0,-6.512224751E0,8.056697808E0
7.937358875E0,7.565862606E0,3.039023092E0,-9.800763738E-1,8.212094010E0
7.947385875E0,1.020223356E1,1.653929971E0,3.598210159E0,1.094386451E1
7.957411875E0,1.116684171E1,6.071468067E-1,6.876284092E0,1.312822395E1
7.967438875E0,8.626676749E0,3.210250032E-1,9.191737052E0,1.260994206E1
7.977464875E0,3.423821338E0,1.328440619E-1,9.837870169E0,1.041748000E1
7.987490875E0,-5.102806628E-1,2.242272717E-1,7.001484089E0,7.023634648E0
7.997517958E0,-2.890914582E0,2.424460262E-1,8.166779789E-1,3.013823173E0
8.007543958E0,-6.140564615E0,3.911377966E-2,-6.022459044E0,8.601050902E0
8.017570958E0,-6.278363022E0,-2.214960372E-1,-7.001516833E0,9.406813525E0
8.027596958E0,-2.528956730E0,-8.938281888E-1,-4.853794471E0,5.545617345E0
8.037623958E0,1.743783549E0,-2.107845814E0,-5.397944253E0,6.051578075E0
8.047649958E0,5.362040595E0,-4.309879162E0,-1.473796319E1,1.626450419E1
8.057676958E0,7.488005176E0,-6.477258986E0,-2.928244668E1,3.091094934E1
8.067702958E0,8.117069685E0,-8.019971407E0,-3.241995267E1,3.436946454E1
8.077729958E0,7.252772275E0,-8.899160507E0,-2.933367999E1,3.150019912E1
8.087755958E0,5.944493440E0,-8.591305187E0,-2.573433751E1,2.777415443E1
8.097782958E0,4.306399484E0,-7.022056932E0,-2.139128067E1,2.292250529E1
8.107808958E0,2.572321728E0,-4.499451156E0,-1.453486366E1,1.543127219E1
8.117835958E0,1.404748537E0,-3.269893970E0,-5.393906751E0,6.462178817E0
8.127861958E0,1.370083611E0,-4.756776007E0,5.480371575E-1,4.980400768E0
8.137888958E0,8.677421225E0,-8.270255626E0,4.174965770E0,1.269350647E1
8.147914958E0,1.911571507E1,-1.257638321E1,6.698015935E0,2.384196709E1
8.157941958E0,2.774506400E1,-1.593776974E1,1.004848220E1,3.353763669E1
8.167967958E0,3.528909719E1,-1.750538370E1,1.174780235E1,4.110680843E1
8.177993958E0,3.916486562E1,-1.909276124E1,7.572895637E0,4.422407692E1
8.188020958E0,3.592904220E1,-2.068225665E1,1.479478877E0,4.148301666E1
8.198046958E0,2.445870661E1,-2.245739414E1,-3.735902732E0,3.341436592E1
8.208073958E0,1.281964960E1,-2.448587745E1,-1.109244408E1,2.978160382E1
8.218099958E0,7.294137232E0,-2.821015387E1,-1.633324734E1,3.340347569E1
8.228126958E0,4.244376313E0,-3.257825551E1,-1.349878616E1,3.551865271E1
8.238152958E0,5.493324620E-1,-3.434752474E1,-6.487615575E0,3.495916729E1
8.248179958E0,-8.570065176E-1,-3.126584328E1,2.628192458E0,3.138781311E1
8.258205958E0,-1.865227879E0,-2.625288497E1,8.198386329E0,2.756640315E1
8.268232958E0,-2.303917865E0,-2.136569091E1,1.029290751E1,2.382739454E1
8.278258958E0,-1.581467181E-1,-1.679245725E1,1.463616199E1,2.227619511E1
8.288285958E0,4.443828347E0,-1.292623031E1,1.887425898E1,2.330392011E1
8.298311958E0,1.094553279E1,-9.188264975E0,2.034212646E1,2.486022948E1
8.308338958E0,1.563955121E1,-5.797280431E0,1.843587100E1,2.486132262E1
8.318364958E0,1.764946611E1,-4.005212329E0,1.483751554E1,2.340293244E1
8.328391958E0,2.104674401E1,-3.288601845E0,1.435658439E1,2.568836022E1
8.338417958E0,2.907195394E1,-1.331307508E0,2.410882326E1,3.779135145E1
8.348444958E0,2.661527201E1,1.144182691E1,3.177307755E1,4.299786697E1
8.358470958E0,2.026666931E1,3.227751918E1,3.438556204E1,5.133169592E1
8.368496958E0,2.275113720E1,2.793744909E1,4.820042763E1,6.017804026E1
8.378523958E0,2.043806523E1,9.424030557E0,5.858128896E1,6.275583063E1
8.388549958E0,1.238399345E1,-6.663441349E0,5.996343040E1,6.159040291E1
8.398576958E0,4.762340510E0,-1.562284338E1,5.422052440E1,5.662701112E1
8.408602958E0,5.796289328E-1,-1.792648029E1,4.322101363E1,4.679477197E1
8.418629958E0,-1.786308156E0,-1.646106630E1,3.072386252E1,3.490148033E1
8.428655958E0,-7.880655062E0,-1.289973658E1,4.561460878E0,1.578970720E1
8.438682958E0,-1.638806381E1,-2.098802510E-1,-3.138020079E1,3.540239662E1
8.448708958E0,-9.740125188E0,7.684273401E-1,-1.188575688E1,1.538608904E1
8.458735958E0,-4.914799933E0,1.421858659E-1,1.036023703E0,5.024820426E0
8.468761958E0,-1.452253510E0,9.262436906E-1,7.916334772E0,8.101563050E0
8.478788958E0,-4.625063527E-1,2.150068850E0,1.093439150E1,1.115336836E1
8.488814958E0,-1.271952422E0,4.079006822E0,1.041657612E1,1.125882843E1
8.498841958E0,-1.413537779E0,6.111601017E0,8.506231123E0,1.056909286E1
8.508867958E0,-1.613574681E0,7.332251138E0,6.413481066E0,9.874121196E0
8.518894958E0,-1.617199809E0,7.873396329E0,6.146643380E0,1.011864269E1
8.528920958E0,-1.434052151E0,7.773397247E0,8.265319406E0,1.143668288E1
8.538947958E0,-4.096454036E-1,7.162286612E0,6.382936381E0,9.602501534E0
8.548973958E0,3.733783409E-1,6.349538839E0,5.519845251E0,8.421683113E0
8.559000958E0,5.847154257E-1,5.738221214E0,6.558704853E0,8.734167629E0
8.569026958E0,1.727420993E0,5.256155705E0,9.901079739E0,1.134206930E1
8.579053958E0,6.494491315E0,1.670447770E0,1.220272274E1,1.392390949E1
8.589079958E0,1.353637791E1,-1.004725428E1,3.995801235E0,1.732475896E1
8.599106958E0,1.690773861E1,-2.249044728E1,5.541946557E0,2.867760477E1
8.609132958E0,2.024423939E1,-3.424060723E1,7.024549016E0,4.039297836E1
8.619158958E0,2.501516741E1,-5.200601076E1,1.152874694E1,5.884977282E1
8.629185958E0,2.595935007E1,-6.197043338E1,3.739191967E1,7.689199000E1
8.639211958E0,1.441089333E1,-5.273769858E1,3.178635891E0,5.476351362E1
8.649238958E0,2.738770908E0,-3.590058264E1,-1.486282463E1,3.895197371E1
8.659264958E0,-6.682219682E0,-2.141567993E1,-2.703638614E1,3.513188839E1
8.669291958E0,-2.675919771E-1,-1.229109639E1,-1.941375701E1,2.297904735E1
8.679317958E0,6.300561976E0,-8.032017256E0,-5.820119070E0,1.175092202E1
8.689344958E0,6.287770023E0,-3.492723758E0,-5.199753463E-1,7.211487050E0
8.699370958E0,5.559327990E0,-6.134278858E-1,3.480342278E0,6.587503613E0
8.709397958E0,6.272191286E0,2.280922812E0,4.449841624E0,8.021476353E0
8.719423958E0,7.098822688E0,5.567155657E0,3.747315620E0,9.768770651E0
8.729450958E0,6.924427727E0,7.644638634E0,7.611659753E-1,1.034251289E1
8.739476958E0,6.086005415E0,9.069571175E0,-4.585319272E0,1.184574759E1
8.749503958E0,-1.930210033E0,1.234593626E1,-2.234860318E1,2.560484167E1
8.759529958E0,-9.275745753E0,1.346048456E1,-2.796759967E1,3.239460966E1
8.769556958E0,-9.910644615E0,1.007577934E1,-1.734237151E1,2.237185856E1
8.779582958E0,-7.739257693E0,6.927762394E0,-8.694200395E0,1.354544654E1
8.789609958E0,-5.640152882E0,4.103003502E0,-3.383626408E0,7.752089392E0
8.799635958E0,-3.283929627E0,2.634975813E0,2.323504868E0,4.808946475E0
8.809662958E0,-1.498527059E0,1.847304994E0,6.704465414E0,7.113928280E0
8.819688958E0,-6.419418329E-1,1.433715643E0,8.255897788E0,8.404015596E0
8.829715958E0,3.619718850E-2,2.261984265E0,7.354096336E0,7.694193653E0
8.839741958E0,2.367939906E0,3.130044944E0,4.521087608E0,5.987032145E0
8.849768958E0,5.473787903E0,2.985765483E0,1.172420825E0,6.344424333E0
8.859794958E0,6.758056900E0,1.557007694E0,-1.214132523E0,7.040576951E0
8.869821958E0,4.669832880E0,1.643342417E-1,-2.201973706E0,5.165562223E0
8.879847958E0,1.149302104E0,-6.362238407E-1,-2.712157890E0,3.013548825E0
8.889873958E0,-1.425701157E0,-1.291176898E0,-3.679904533E0,4.152283581E0
8.899900958E0,-2.153747334E0,-1.563934890E0,-4.049317000E0,4.845770123E0
8.909926958E0,-1.349642915E0,-1.516775926E0,-3.403076586E0,3.962710620E0
8.919953958E0,1.087739986E-1,-1.844520550E0,-3.893294283E0,4.309504404E0
8.929979958E0,1.987011056E0,-3.418175266E0,-7.471218989E0,8.452884021E0
8.940006958E0,3.182826006E0,-5.383491690E0,-1.445858790E1,1.575319422E1
8.950032958E0,3.890139125E0,-7.393306010E0,-2.211247157E1,2.363801081E1
8.960059958E0,4.964535180E0,-8.246541658E0,-2.643635422E1,2.813419421E1
8.970085958E0,6.414655187E0,-7.089038542E0,-2.732776225E1,2.895183687E1
8.980112958E0,6.738721912E0,-3.501704496E0,-2.588387655E1,2.697493971E1
8.990138958E0,5.328943015E0,3.568497241E-2,-2.283230591E1,2.344596128E1
9.000166500E0,3.049232331E0,1.474921557E0,-1.678897582E1,1.712725665E1
9.010192500E0,6.805469048E-1,7.717371565E-1,-6.801247358E0,6.878639979E0
9.020219500E0,1.712658528E0,-1.870638893E0,4.260457472E-1,2.571770612E0
9.030245500E0,6.244390115E0,-5.086277719E0,2.602369692E0,8.463743672E0
9.040272500E0,1.174444371E1,-9.506769828E0,5.541857679E0,1.609418582E1
9.050298500E0,1.589314145E1,-1.363426966E1,8.586881769E0,2.263227325E1
9.060325500E0,2.009705328E1,-1.678348879E1,1.133348502E1,2.853112211E1
9.070351500E0,2.915361381E1,-2.081979486E1,1.000221201E1,3.719464076E1
9.080378500E0,3.433047659E1,-2.488733792E1,7.679203280E0,4.309212660E1
9.090404500E0,3.147269672E1,-2.903613155E1,7.397727674E-1,4.282726746E1
9.100431500E0,1.879026607E1,-3.275473150E1,-1.284354016E1,3.988612614E1
9.110457500E0,7.716810817E0,-3.419051296E1,-2.872582917E1,4.531791707E1
9.120484500E0,3.552993348E0,-3.453456313E1,-2.486456185E1,4.270253211E1
9.130510500E0,2.506458691E0,-3.366078563E1,-8.189051834E0,3.473314547E1
9.140537500E0,6.261520118E-1,-2.854264292E1,5.299830898E0,2.903726466E1
9.150563500E0,-1.878977607E0,-2.389446901E1,1.113389616E1,2.642801260E1
9.160589500E0,-1.680242441E0,-1.923194836E1,1.444610526E1,2.411184377E1
9.170616500E0,1.396220958E0,-1.423436823E1,1.826306473E1,2.319711631E1
9.180642500E0,4.852188533E0,-9.663025557E0,2.064725756E1,2.330723152E1
9.190669500E0,9.064939595E0,-6.094537087E0,2.170751212E1,2.430087642E1
9.200695500E0,1.373230524E1,-4.194850397E0,2.379900503E1,2.779506462E1
9.210722500E0,1.867093141E1,-2.906790065E0,2.059408064E1,2.794940546E1
9.220748500E0,1.911060811E1,-1.656039500E0,1.289531608E1,2.311378347E1
9.230775500E0,2.197948015E1,-2.514000137E0,1.481660824E1,2.662610794E1
9.240801500E0,2.935083572E1,-1.266654260E0,2.738993920E1,4.016571598E1
9.250828500E0,1.926140430E1,1.955634487E1,3.485742299E1,4.436769385E1
9.260854500E0,1.469815300E1,2.934527852E1,3.845092059E1,5.055348027E1
9.270881500E0,1.755468859E1,1.779998981E1,4.844607150E1,5.451631474E1
9.280907500E0,1.373916754E1,4.611613031E0,5.536236400E1,5.722781707E1
9.290934500E0,6.314946127E0,-6.903402309E0,5.225081263E1,5.308185121E1
9.300960500E0,-8.335925120E-1,-1.346602538E1,4.471026203E1,4.670156579E1
9.310987500E0,-2.308226386E0,-1.553364060E1,3.445397213E1,3.786420598E1
9.321013500E0,-6.829712189E0,-1.331767567E1,9.318931534E0,1.763088026E1
9.331040500E0,-1.384188557E1,-4.698056513E0,-2.486408237E1,2.884254017E1
9.341066500E0,-5.966067327E0,-1.450781912E0,-1.330740211E1,1.465556818E1
9.351093500E0,-3.907671416E0,-9.108105496E-1,6.776396692E-2,4.012986881E0
9.361119500E0,-1.594566406E0,-9.181619614E-2,8.880180445E0,9.022675710E0
9.371146500E0,-4.067108323E-1,1.079952664E0,1.252161936E1,1.257468341E1
9.381172500E0,-3.744827338E-1,2.763588245E0,1.251006994E1,1.281715675E1
9.391199500E0,-2.020744191E-1,4.420366979E0,1.140363056E1,1.223205904E1
9.401225500E0,5.227243417E-1,5.447426316E0,1.100698819E1,1.229233433E1
9.411252500E0,5.403553779E-1,6.050888792E0,1.088884052E1,1.246884466E1
9.421278500E0,3.284740636E-1,6.157081245E0,1.050969887E1,1.218488059E1
9.431305500E0,1.280639631E-1,6.221449149E0,9.576979101E0,1.142109271E1
9.441331500E0,2.226233804E-1,6.150282687E0,8.567097715E0,1.054849286E1
9.451358500E0,-2.812136507E-1,5.812189661E0,7.590068325E0,9.563982798E0
9.461384500E0,-2.560241380E-1,5.841806978E0,7.067474595E0,9.172865108E0
9.471410500E0,4.458063394E-2,5.597944756E0,8.216692207E0,9.942484787E0
9.481437500E0,-2.590810624E-1,3.154161201E0,8.320363340E0,8.901926870E0
9.491463500E0,2.721725689E0,-3.626501620E0,2.386208947E0,5.123797211E0
9.501490500E0,1.837168027E1,-2.391867648E1,-4.087407224E1,5.079676665E1
9.511516500E0,1.985436108E1,-4.392801217E1,-5.681084561E0,4.854009300E1
9.521543500E0,1.840378967E1,-6.808260275E1,2.644917834E-1,7.052666324E1
9.531569500E0,4.340037638E0,-5.861643306E1,-5.055364659E0,5.899388836E1
9.541596500E0,9.219875607E0,-3.724625851E1,7.483349622E0,3.909335494E1
9.551622500E0,7.563886247E0,-2.437980428E1,8.410038579E0,2.687593684E1
9.561649500E0,1.371932442E1,-2.077507769E1,1.613361404E1,2.966676959E1
9.571675500E0,1.905918419E1,-2.031514506E1,2.261399895E1,3.587966791E1
9.581702500E0,1.356153848E1,-1.357196290E1,1.463803076E1,2.413266349E1
9.591728500E0,7.499539393E0,-7.557806897E0,7.146944103E0,1.282350756E1
9.601755500E0,6.242169342E0,-1.845284781E0,6.069582925E0,8.899977017E0
9.611781500E0,6.543181080E0,2.469580302E0,5.796506259E0,9.083585764E0
9.621808500E0,5.839312556E0,4.048883429E0,2.486607978E0,7.528230030E0
9.631834500E0,-3.227264845E0,6.470434701E0,-2.172392642E1,2.289564900E1
9.641861500E0,-2.003867000E1,1.356811075E1,-4.819546452E1,5.392999837E1
9.651887500E0,-1.722800699E1,1.197729387E1,-2.534506030E1,3.290337179E1
9.661914500E0,-1.268411232E1,8.952119908E0,-1.246638656E1,1.991074961E1
9.671940500E0,-9.386869748E0,6.999135262E0,-4.833704607E0,1.266751429E1
9.681967500E0,-8.315900161E0,6.691750644E0,-3.151146376E-1,1.067862441E1
9.691993500E0,-8.907247206E0,6.364448655E0,1.849226097E0,1.110247255E1
9.702020500E0,-1.077652370E1,6.190192273E0,-6.984186271E-1,1.244747894E1
9.712046500E0,-8.424657202E0,6.397157979E0,-3.155712467E0,1.103888583E1
9.722073500E0,-1.420697987E0,5.343989655E0,-3.301951038E0,6.440457194E0
9.732099500E0,6.144082299E0,4.574280898E0,-5.125796126E0,9.216701089E0
9.742126500E0,1.302091661E1,4.002087577E0,-7.721349426E0,1.565823143E1
9.752152500E0,1.680496444E1,3.769683559E0,-8.733195477E0,1.931025757E1
9.762179500E0,1.340177734E1,3.504477831E0,-6.474076931E0,1.529060735E1
9.772205500E0,4.981803178E0,2.164446276E0,-9.660790166E-1,5.516928425E0
9.782232500E0,-1.977504945E0,1.094613973E0,4.746214474E0,5.256924708E0
9.792258500E0,-5.586964855E0,1.322162463E0,7.907444665E0,9.771897001E0
9.802285500E0,-5.885859316E0,1.533919378E0,8.388019134E0,1.036123128E1
9.812311500E0,-5.012106373E0,8.636957324E-1,6.438948029E0,8.205317321E0
9.822338500E0,-3.783724186E0,-8.217220795E-1,1.018939308E0,4.003752390E0
9.832364500E0,-2.290946109E0,-3.043001538E0,-8.552813551E0,9.362633822E0
9.842391500E0,-9.543492097E-1,-5.399863309E0,-1.654269811E1,1.742785606E1
9.852417500E0,1.045224881E0,-7.729646040E0,-2.019062744E1,2.164489222E1
9.862443500E0,3.706137773E0,-8.810902049E0,-2.163181407E1,2.364958418E1
9.872470500E0,5.216492872E0,-7.265767711E0,-2.243342757E1,2.415081471E1
9.882496500E0,5.398385133E0,-5.590628720E0,-2.234708759E1,2.365988198E1
9.892523500E0,4.092183230E0,-3.864454061E0,-2.111886357E1,2.185603731E1
9.902549500E0,2.058617520E0,-2.097907301E0,-1.833561698E1,1.856970574E1
9.912576500E0,-1.705749750E-2,-3.845596790E-1,-1.326177746E1,1.326736291E1
9.922602500E0,2.336491826E-1,-4.741454548E-1,-6.454549570E0,6.476157503E0
9.932629500E0,2.468540959E0,-3.429349880E0,-3.594059806E-1,4.240673028E0
9.942655500E0,5.976667160E0,-6.670388426E0,3.727676869E0,9.701041539E0
9.952682500E0,1.128276276E1,-9.344952813E0,6.741497000E0,1.612689246E1
9.962708500E0,1.548349721E1,-1.245785547E1,9.434354986E0,2.199872503E1
9.972735500E0,2.227281625E1,-1.516733593E1,9.798764575E0,2.867302234E1
9.982761500E0,3.109927950E1,-1.680998486E1,9.713418031E0,3.666185028E1
9.992788500E0,3.330924401E1,-1.804256857E1,8.097587932E0,3.873771995E1
1.000281375E1,3.098535469E1,-2.038894628E1,5.926609731E0,3.756229543E1
1.001284075E1,2.427655415E1,-2.339861577E1,-5.255550519E-1,3.372124715E1
1.002286675E1,1.417934593E1,-2.546983053E1,-2.133739039E1,3.612548057E1
1.003289375E1,6.695040287E0,-2.713297045E1,-3.141994080E1,4.205037847E1
1.004291975E1,5.311174496E0,-2.860405038E1,-1.732951816E1,3.386314328E1
1.005294675E1,2.954225602E0,-2.739542623E1,-6.298720104E-1,2.756145072E1
1.006297275E1,-1.411395067E-1,-2.387529014E1,8.130225336E0,2.522201347E1
1.007299975E1,-1.338154013E0,-1.967615432E1,1.226417581E1,2.322394698E1
1.008302575E1,-2.892372000E-1,-1.568489988E1,1.554185827E1,2.208277838E1
1.009305275E1,1.408094606E0,-1.164825467E1,1.773830285E1,2.126762694E1
1.010307875E1,4.375701561E0,-7.653418229E0,1.817604413E1,2.020124142E1
1.011310575E1,7.726183319E0,-4.313403863E0,1.749801854E1,1.960816194E1
1.012313175E1,1.069949365E1,-2.254989388E0,1.686554277E1,2.010001677E1
1.013315875E1,1.362770557E1,-1.003177846E0,1.510909298E1,2.037168171E1
1.014318475E1,1.521003112E1,-6.641931197E-1,1.646907465E1,2.242803199E1
1.015321175E1,1.691598085E1,-1.492257966E0,2.246871201E1,2.816416626E1
1.016323775E1,1.715917006E1,1.156401647E-1,2.787273211E1,3.273132574E1
1.017326475E1,1.368981470E1,1.489967495E1,2.943152261E1,3.571590491E1
1.018329075E1,9.902386007E0,2.786677028E1,3.322827177E1,4.448294257E1
1.019331775E1,1.319061918E1,1.556759421E1,4.471029010E1,4.914623551E1
1.020334375E1,1.031351193E1,3.540693145E0,4.949530523E1,5.068224814E1
1.021337075E1,9.699548435E-1,-3.778990572E0,4.923038894E1,4.938474236E1
1.022339675E1,-4.805511965E0,-1.066299650E1,4.356457731E1,4.510725923E1
1.023342375E1,-8.368850791E0,-1.462509087E1,2.932486940E1,3.382127898E1
1.024344975E1,-1.811556988E1,-1.367561766E1,-6.222181220E0,2.353533364E1
1.025347675E1,-1.117549676E1,-9.483652861E0,-1.420513683E1,2.041120555E1
1.026350275E1,-1.963306443E0,-7.325685300E0,-4.576959507E0,8.858261434E0
1.027352975E1,1.363168840E0,-4.418426288E0,3.872578767E0,6.031383461E0
1.028355575E1,2.452761371E0,-1.622777468E0,1.116280012E1,1.154372347E1
1.029358275E1,1.835571240E0,9.216147423E-2,1.497613314E1,1.508848499E1
1.030360875E1,7.873359199E-1,1.668318214E0,1.515220567E1,1.526409251E1
1.031363475E1,-2.149172984E-1,3.864896403E0,1.298735827E1,1.355194040E1
1.032366175E1,-7.150612646E-1,6.242501464E0,9.131080960E0,1.108407762E1
1.033368775E1,-1.072094737E0,8.182393025E0,5.215512294E0,9.762300509E0
1.034371475E1,-1.102992741E0,8.579693202E0,5.029924593E0,1.000639145E1
1.035374075E1,-1.101719217E0,8.310810159E0,6.572396693E0,1.065268741E1
1.036376775E1,-1.041437055E0,7.746043972E0,7.562909762E0,1.087581686E1
1.037379375E1,-6.868238908E-1,7.245628731E0,7.816286573E0,1.068013102E1
1.038382075E1,-1.868384206E-1,6.571298586E0,7.071674650E0,9.655333037E0
1.039384675E1,-4.711408630E-1,5.754102836E0,5.662128473E0,8.086493184E0
1.040387375E1,-1.177116432E0,5.082188176E0,5.863480268E0,7.848225315E0
1.041389975E1,-1.264912667E0,3.080635972E0,7.998428510E0,8.664016429E0
1.042392675E1,3.090724758E0,-2.851896404E0,1.034855897E1,1.117043264E1
1.043395275E1,8.302096054E0,-1.739730844E1,3.590444180E0,1.960822351E1
1.044397975E1,1.079705561E1,-2.805108855E1,3.659950032E0,3.027928687E1
1.045400575E1,2.645746267E1,-4.806098791E1,6.658405727E0,5.526472887E1
1.046403275E1,4.218585999E1,-6.938185407E1,1.354174916E1,8.232173120E1
1.047405875E1,1.010303555E1,-5.534275477E1,-1.107777225E0,5.626827706E1
1.048408575E1,-3.681195598E0,-3.594957295E1,-1.861622954E1,4.065079333E1
1.049411175E1,-5.883733853E0,-1.768943533E1,-3.073292103E1,3.594505364E1
1.050413875E1,-2.301670780E0,-9.985276136E0,-2.126462997E1,2.360482823E1
1.051416475E1,6.947173980E0,-1.178363175E1,-3.595944071E-1,1.368380472E1
1.052419175E1,1.341538615E1,-1.135137048E1,8.848403167E0,1.967537639E1
1.053421775E1,1.607425545E1,-8.041309651E0,1.416183352E1,2.288234860E1
1.054424475E1,1.475240347E1,-2.904526607E0,1.464789384E1,2.099119999E1
1.055427075E1,1.073086981E1,1.827598708E0,9.745276000E0,1.461034182E1
1.056429775E1,7.064632849E0,5.109029235E0,6.839260107E0,1.108091584E1
1.057432375E1,4.182901611E0,6.764008196E0,6.162263632E0,1.006091277E1
1.058435075E1,2.046750596E0,7.998699237E0,4.962399777E0,9.632953287E0
1.059437675E1,7.119862139E-2,8.928321741E0,1.502493517E0,9.054141876E0
1.060440375E1,-2.149270413E0,1.015131133E1,-6.725024225E0,1.236504897E1
1.061442975E1,-1.256869062E1,1.459727450E1,-2.725063982E1,3.337139159E1
1.062445675E1,-1.546770272E1,1.499380694E1,-2.093214560E1,3.003695712E1
1.063448275E1,-1.364799775E1,1.294835968E1,-1.141107757E1,2.200319414E1
1.064450975E1,-1.119240223E1,1.106822725E1,-5.533565158E0,1.668519900E1
1.065453575E1,-7.376467198E0,9.275836970E0,1.164481622E0,1.190837677E1
1.066456275E1,-5.537722528E0,7.745875572E0,4.998599305E0,1.075411336E1
1.067458875E1,-3.777218281E0,6.170353839E0,4.688193430E0,8.620893346E0
1.068461575E1,-5.128967071E-1,4.589418170E0,1.300278089E0,4.797556178E0
1.069464175E1,2.322145683E0,3.266670985E0,-4.364856437E0,5.925830880E0
1.070466875E1,4.572515624E0,2.625492799E0,-9.434015263E0,1.080748609E1
1.071469475E1,5.044656068E0,2.753417598E0,-9.435485253E0,1.104799734E1
1.072472175E1,3.486398824E0,2.595637500E0,-6.229575609E0,7.596046542E0
1.073474775E1,1.041687316E-1,2.557860394E0,-2.450132609E0,3.543536471E0
1.074477475E1,-3.208483588E0,2.425135031E0,1.155074621E0,4.184476578E0
1.075480075E1,-4.759272768E0,1.610494514E0,3.575441394E0,6.166696929E0
1.076482775E1,-4.467400228E0,5.258249009E-1,4.203292022E0,6.156445439E0
1.077485375E1,-2.296407701E0,-1.607415370E0,4.300710143E0,5.133554347E0
1.078488075E1,1.919832980E0,-5.346902153E0,3.643497137E0,6.749088286E0
1.079490675E1,4.609858574E0,-1.007039756E1,-4.747228381E0,1.204989130E1
1.080493375E1,3.280336513E0,-1.342885580E1,-2.853068888E1,3.170323301E1
1.081495975E1,3.601793041E0,-1.141017944E1,-3.766078400E1,3.951581657E1
1.082498675E1,5.126398973E0,-5.496649346E0,-3.684113534E1,3.760003156E1
1.083501275E1,3.971553417E0,-2.713640159E-1,-2.974099001E1,3.000622205E1
1.084503975E1,2.154606582E0,2.342200463E0,-1.472459879E1,1.506459565E1
1.085506575E1,5.236693248E-1,1.696447415E0,-2.584069954E0,3.135216247E0
1.086509275E1,-6.216642737E-2,9.439674783E-1,3.718646722E0,3.837091699E0
1.087511875E1,8.542375687E-1,8.718976218E-1,5.846931478E0,5.972983760E0
1.088514575E1,4.090943328E0,4.898417205E-1,6.235143328E0,7.473471385E0
1.089517175E1,9.785393747E0,-3.491898715E-1,6.581846963E0,1.179815976E1
1.090519875E1,1.749841615E1,-1.473898879E0,6.929870900E0,1.887829591E1
1.091522475E1,2.638275631E1,-2.417520787E0,6.460383922E0,2.726959474E1
1.092525175E1,3.375621687E1,-3.622665846E0,6.536667282E0,3.457360126E1
1.093527775E1,3.639257905E1,-5.102635889E0,3.975779784E0,3.696300215E1
1.094530375E1,3.768520431E1,-5.798866196E0,1.763959367E0,3.816953007E1
1.095533075E1,3.539525223E1,-6.343858854E0,3.979135501E-1,3.596146216E1
1.096535675E1,3.046118455E1,-7.851440034E0,7.384261537E-1,3.146544371E1
1.097538375E1,2.485872399E1,-9.001618343E0,1.549435257E0,2.648369386E1
1.098540975E1,2.208130591E1,-9.901658614E0,2.634854191E0,2.434274780E1
1.099543675E1,1.759279372E1,-1.160018822E1,4.192825506E0,2.148605463E1
1.100546300E1,1.226655095E1,-1.349006212E1,6.548164077E0,1.937339673E1
1.101549000E1,7.846855232E0,-1.567808553E1,8.899293823E0,1.966145807E1
1.102551600E1,1.819562294E0,-1.787152114E1,8.378582312E0,1.982177379E1
1.103554300E1,-6.826594453E0,-1.835757094E1,5.931178161E0,2.046415591E1
1.104556900E1,-1.432092456E1,-1.690671652E1,4.014562904E0,2.251760776E1
1.105559600E1,-1.570055054E1,-1.423594698E1,6.852482416E0,2.227388580E1
1.106562200E1,-1.323709169E1,-1.143609196E1,1.104354031E1,2.068730476E1
1.107564900E1,-9.880677634E0,-8.783669811E0,1.411658426E1,1.934059453E1
1.108567500E1,-7.532650421E0,-6.690029808E0,1.596186494E1,1.887533983E1
1.109570200E1,-5.315682115E0,-4.437213392E0,1.684777074E1,1.821517823E1
1.110572800E1,-3.397646569E0,-2.796032690E0,1.670778255E1,1.727749400E1
1.111575500E1,-1.729413140E0,-1.496478487E0,1.660096328E1,1.675775341E1
1.112578100E1,-3.888301930E-1,-3.600557524E-1,1.671500737E1,1.672340577E1
1.113580800E1,8.146557194E-1,9.654443014E-1,1.693126664E1,1.697832550E1
1.114583400E1,1.666166147E0,2.463689232E0,1.666492948E1,1.692825297E1
1.115586100E1,2.055140766E0,3.841073384E0,1.610428674E1,1.668309024E1
1.116588700E1,2.393688413E0,5.087419680E0,1.544320522E1,1.643484623E1
1.117591400E1,2.315954066E0,5.853832362E0,1.410862269E1,1.544940875E1
1.118594000E1,1.891891475E0,6.381747057E0,1.299710441E1,1.460242007E1
1.119596700E1,1.130089396E0,6.857209305E0,1.226505640E1,1.409716390E1
1.120599300E1,2.944685577E-1,7.210660627E0,1.119592109E1,1.332024727E1
1.121602000E1,-5.738093452E-1,7.356866747E0,9.748752170E0,1.222664772E1
1.122604600E1,-1.201850154E0,7.380435119E0,8.334798946E0,1.119750596E1
1.123607300E1,-1.846326462E0,7.282051038E0,7.038480592E0,1.029453242E1
1.124609900E1,-2.421675526E0,6.923596253E0,5.669959649E0,9.270875894E0
1.125612600E1,-2.608024242E0,6.340713637E0,4.523022159E0,8.213657488E0
1.126615200E1,-2.999209109E0,5.481885127E0,3.618492104E0,7.220789772E0
1.127617900E1,-3.918997181E0,4.184758687E0,2.829368252E0,6.393439518E0
1.128620500E1,-5.241486211E0,2.033113720E0,8.963479002E-1,5.692992943E0
1.129623200E1,-8.337006270E0,-1.839569712E0,-3.456672750E0,9.210769608E0
1.130625800E1,-8.687596550E0,-3.559538137E0,-7.271163230E-1,9.416652468E0
1.131628500E1,-4.770084854E0,-4.964239311E0,3.089440709E0,7.545993994E0
1.132631100E1,-2.772674233E0,-7.854738448E0,4.892057773E0,9.660065618E0
1.133633800E1,-4.963879707E-1,-1.216214307E1,6.489986036E0,1.379434825E1
1.134636400E1,2.209880019E0,-1.735336778E1,8.037004931E0,1.925139972E1
1.135639100E1,2.454414378E0,-2.324279449E1,1.068349800E1,2.569803057E1
1.136641700E1,1.767669425E0,-2.669051398E1,1.045479352E1,2.871952122E1
1.137644400E1,1.310153744E0,-2.466849301E1,6.487689250E0,2.554097026E1
1.138647000E1,2.100744370E0,-1.816868014E1,4.685707194E-1,1.829572692E1
1.139649700E1,1.586573847E0,-1.133642032E1,-3.961397973E0,1.211298131E1
1.140652300E1,1.829975308E0,-3.930403052E0,-8.109820892E0,9.195981333E0
1.141655000E1,2.768766247E0,2.411930264E0,-1.384550032E1,1.432415279E1
1.142657600E1,4.743266015E0,7.244371580E0,-1.908658190E1,2.095893845E1
1.143660300E1,6.715105008E0,9.210998365E0,-1.791532146E1,2.123426168E1
1.144662900E1,7.240628192E0,7.885751495E0,-1.075802778E1,1.517718469E1
1.145665600E1,7.757555970E0,5.604890079E0,-7.792535768E0,1.234172116E1
1.146668200E1,8.358020579E0,3.730749874E0,-5.822381358E0,1.084781671E1
1.147670900E1,8.072349595E0,2.727003386E0,-4.718679643E0,9.739882598E0
1.148673500E1,6.038812537E0,2.694563618E0,-3.734622777E0,7.594428039E0
1.149676200E1,3.191243073E0,2.964548276E0,-2.485382987E0,5.014948397E0
1.150678800E1,1.071477710E0,2.920116454E0,-1.399888331E0,3.410986943E0
1.151681500E1,-9.413140118E-2,2.839638886E0,-5.291326708E-1,2.890050364E0
1.152684100E1,-9.170088905E-1,2.822775516E0,2.575938231E-1,2.979147780E0
1.153686800E1,-1.751240796E0,2.734528168E0,5.741810820E-1,3.297601028E0
1.154689400E1,-2.208288407E0,1.839032938E0,6.157989317E-1,2.939011426E0
1.155692100E1,-1.832237596E0,-8.610668242E-2,4.688680503E-1,1.893236968E0
1.156694700E1,-1.066979155E0,-2.649193318E0,2.895152351E-1,2.870625162E0
1.157697400E1,-3.875055063E-1,-5.444172925E0,-5.821917674E-1,5.488909419E0
1.158700000E1,9.917199343E-2,-7.220716084E0,-2.628079607E0,7.684749721E0
1.159702700E1,-1.099177140E-1,-6.858609129E0,-4.950949175E0,8.459580298E0
1.160705300E1,-9.810902810E-1,-5.129806731E0,-6.846045216E0,8.610794989E0
1.161708000E1,-1.371158330E0,-3.095758626E0,-8.502229289E0,9.151595463E0
1.162710600E1,-9.948674905E-1,-1.080789401E0,-9.030056276E0,9.148758572E0
1.163713300E1,-3.423954070E-2,7.626505834E-1,-8.084318261E0,8.120283862E0
1.164715900E1,1.368205486E0,2.203691034E0,-6.144721985E0,6.669771263E0
1.165718600E1,2.687252845E0,2.952733392E0,-3.715764045E0,5.454068644E0
1.166721200E1,3.675924625E0,3.066742403E0,-1.604352306E0,5.048888704E0
1.167723900E1,4.401702959E0,2.760823097E0,2.565641284E-1,5.202207057E0
1.168726500E1,4.751736876E0,2.420809845E0,1.682852492E0,5.592076194E0
1.169729200E1,4.727134132E0,2.124050202E0,2.679307648E0,5.834044552E0
1.170731800E1,4.324986613E0,1.968866268E0,3.016894889E0,5.628818558E0
1.171734500E1,3.473758021E0,1.856302689E0,2.714653189E0,4.783533882E0
1.172737100E1,2.566931180E0,1.742386065E0,2.004264727E0,3.693524330E0
1.173739800E1,2.112965636E0,1.668084326E0,1.147076654E0,2.926245708E0
1.174742400E1,1.601810229E0,1.539528612E0,2.335202515E-1,2.233937346E0
1.175745100E1,1.038204714E0,1.224658973E0,-7.631423342E-1,1.777651498E0
1.176747700E1,3.365353274E-1,8.202210993E-1,-1.748324204E0,1.960269421E0
1.177750400E1,6.192756861E-2,3.334807420E-1,-2.693829208E0,2.715098567E0
1.178753000E1,4.189059314E-1,-1.517153656E-1,-3.464744831E0,3.493273032E0
1.179755700E1,1.128115303E0,-4.175274503E-1,-3.938344740E0,4.117952477E0
1.180758300E1,1.905494145E0,-4.663055080E-1,-4.044783946E0,4.495400531E0
1.181761000E1,2.555853045E0,-5.801467037E-1,-4.048276780E0,4.822603018E0
1.182763600E1,3.006169634E0,-7.146121985E-1,-3.951952381E0,5.016538057E0
1.183766300E1,3.308433554E0,-9.410877246E-1,-3.849066528E0,5.162043377E0
1.184768900E1,3.701475204E0,-1.091271704E0,-3.915132464E0,5.497277037E0
1.185771600E1,3.904549588E0,-1.156026109E0,-4.179604951E0,5.835323590E0
1.186774200E1,3.990361278E0,-1.276919632E0,-4.920213286E0,6.462352950E0
1.187776900E1,4.180516532E0,-1.584932826E0,-6.256953442E0,7.690136339E0
1.188779500E1,4.472242599E0,-2.009592125E0,-8.297387876E0,9.637741434E0
1.189782200E1,4.940913599E0,-2.422283344E0,-1.073404368E1,1.206232886E1
1.190784800E1,4.890966098E0,-2.982396902E0,-1.216956085E1,1.345044430E1
1.191787500E1,4.939947639E0,-3.565112872E0,-1.230543494E1,1.373087184E1
1.192790100E1,5.305797397E0,-4.249959235E0,-1.030814418E1,1.234793408E1
1.193792800E1,5.487975587E0,-4.785751884E0,-6.659748248E0,9.867803396E0
1.194795400E1,5.442577804E0,-4.779826900E0,-2.497053444E0,7.661832304E0
1.195798100E1,5.160486487E0,-3.935024107E0,1.361123046E0,6.630813784E0
1.196800700E1,5.479822229E0,-3.049356292E0,4.286249979E0,7.595983434E0
1.197803400E1,6.198681260E0,-2.772877132E0,6.034069276E0,9.084188956E0
1.198806000E1,6.445143739E0,-2.560147825E0,7.335781102E0,1.009494522E1
1.199808700E1,6.317430024E0,-2.187541609E0,8.689664710E0,1.096382840E1
1.200811288E1,6.104226508E0,-1.641832082E0,9.116080513E0,1.109324649E1
1.201813988E1,4.707147179E0,-8.761947405E-1,7.925775687E0,9.259744706E0
1.202816588E1,3.386120245E0,3.579542631E-1,4.610612865E0,5.731639605E0
1.203819288E1,2.579078770E0,1.753343162E0,1.488905758E-2,3.118666579E0
1.204821888E1,2.327335379E0,2.676987473E0,-2.455131247E0,4.313979756E0
1.205824588E1,2.025299208E0,2.788703206E0,-2.215594503E0,4.097262678E0
1.206827188E1,1.073980611E0,2.714097996E0,-7.311706361E-1,3.009048485E0
1.207829888E1,-5.926971674E-2,2.646884252E0,1.570647201E0,3.078382981E0
1.208832487E1,-1.337562860E0,2.412393363E0,4.024847864E0,4.879356153E0
1.209835188E1,-2.501639416E0,2.279728811E0,5.799792979E0,6.715129323E0
1.210837788E1,-3.115927427E0,2.245351861E0,6.225201892E0,7.314625575E0
1.211840488E1,-3.482208710E0,2.151783546E0,5.571094927E0,6.913251667E0
1.212843088E1,-3.723478568E0,2.172863928E0,4.376972453E0,6.143575356E0
1.213845788E1,-3.970640666E0,2.268234354E0,3.226108266E0,5.596306722E0
1.214848388E1,-3.973091819E0,2.306865154E0,2.717962421E0,5.338015096E0
1.215851088E1,-3.471026787E0,2.240572931E0,2.675428605E0,4.922002868E0
1.216853688E1,-2.559131286E0,2.012984680E0,3.247930074E0,4.598946622E0
1.217856388E1,-1.672494003E0,1.668842710E0,4.101349033E0,4.733216250E0
1.218858988E1,-1.074705958E0,1.331205182E0,4.862111843E0,5.154341054E0
1.219861688E1,-8.599005970E-1,1.105179892E0,5.230129164E0,5.414342315E0
1.220864288E1,-9.753819367E-1,1.006839080E0,5.235478781E0,5.419901561E0
1.221866988E1,-1.363368961E0,1.051619981E0,4.906837195E0,5.200166417E0
1.222869588E1,-1.683686159E0,1.193468170E0,4.215886340E0,4.693917658E0
1.223872288E1,-2.109908127E0,1.371352165E0,3.040931916E0,3.947098425E0
1.224874887E1,-2.518530852E0,1.587806148E0,1.588243520E0,3.374410096E0
1.225877588E1,-2.877547554E0,1.797644007E0,-1.388555843E-1,3.395745099E0
1.226880188E1,-3.290807707E0,1.942486555E0,-2.264958159E0,4.442150925E0
1.227882888E1,-3.727282182E0,1.925026184E0,-4.502053751E0,6.153604331E0
1.228885488E1,-4.041487285E0,1.490504386E0,-6.492682772E0,7.791671989E0
1.229888188E1,-4.243425848E0,6.060463607E-1,-8.099350868E0,9.163702287E0
1.230890788E1,-4.196781147E0,-2.628621644E-1,-9.475749764E0,1.036686559E1
1.231893488E1,-3.218983141E0,-7.202220172E-1,-1.006897435E1,1.059550927E1
1.232896088E1,-1.065517058E0,-3.364815331E-1,-8.993839792E0,9.062985194E0
1.233898788E1,1.382197580E0,1.164026270E0,-6.528508662E0,6.773983515E0
1.234901388E1,3.049987206E0,3.036004760E0,-2.465132909E0,4.959498676E0
1.235904087E1,3.614247025E0,4.248031992E0,2.227546212E0,6.005873749E0
1.236906688E1,2.493888347E0,2.946362851E0,7.107725658E0,8.088281472E0
1.237909388E1,1.036204382E0,-6.151814657E-1,9.167129045E0,9.245994953E0
1.238911988E1,1.916838913E0,-5.712775885E0,7.397278608E0,9.540954383E0
1.239914688E1,5.727182840E0,-1.192410175E1,-4.101833182E0,1.384954372E1
1.240917287E1,7.029457169E0,-1.807384883E1,-7.154686986E0,2.067043361E1
1.241919988E1,4.651844214E0,-1.920637615E1,3.550242233E0,2.007806662E1
1.242922588E1,1.325831883E0,-1.362434927E1,5.506094939E0,1.475458589E1
1.243925288E1,-1.704982595E0,-7.119361033E0,4.842542381E0,8.777384797E0
1.244927888E1,-3.744565090E0,-1.919267262E0,3.604432181E0,5.540513143E0
1.245930588E1,-5.537971619E0,2.813372608E0,7.448958054E-1,6.256122190E0
1.246933188E1,-5.527454817E0,4.937781830E0,1.146633142E0,7.499947581E0
1.247935888E1,-4.981304995E0,4.686662629E0,3.183537904E0,7.544078448E0
1.248938488E1,-5.047539330E0,4.200549678E0,5.651563139E0,8.663858078E0
1.249941188E1,-4.994072975E0,4.032924623E0,6.515496268E0,9.146416649E0
1.250943788E1,-4.638998758E0,3.976697797E0,6.476753787E0,8.904087514E0
1.251946487E1,-3.783529181E0,3.581945252E0,6.917419839E0,8.660030143E0
1.252949088E1,-2.329388629E0,2.903567664E0,7.610511360E0,8.472109520E0
1.253951788E1,-2.336342722E-2,1.385709418E0,8.519507811E0,8.631497540E0
1.254954388E1,2.739392759E0,-1.512177676E0,9.098794974E0,9.621799415E0
1.255957088E1,4.565302791E0,-3.398106453E0,6.416322813E0,8.576614453E0
1.256959687E1,5.148654646E0,-3.985156964E0,2.157332700E0,6.858877829E0
1.257962388E1,4.612806448E0,-3.037392889E0,-3.953193744E0,6.792015876E0
1.258964988E1,3.521635608E0,-2.016552651E0,-8.302359763E0,9.241081083E0
1.259967688E1,2.697444541E0,-1.941784889E0,-7.450401732E0,8.158138364E0
1.260970288E1,2.220255611E0,-1.848106647E0,-4.772338371E0,5.578552383E0
1.261972988E1,1.713934975E0,-1.238537924E0,-2.311746848E0,3.133005390E0
1.262975588E1,1.254458722E0,-3.731926918E-1,-6.197744536E-1,1.448122869E0
1.263978288E1,5.806247136E-1,2.915907043E-1,-4.432759568E-2,6.512412246E-1
1.264980888E1,-2.660667309E-1,6.239943892E-1,-2.957205196E-1,7.400075194E-1
1.265983588E1,-1.172236930E0,9.690765917E-1,-1.864419794E-1,1.532321596E0
1.266986188E1,-2.527410142E0,1.027960977E0,-2.192705870E-3,2.728463048E0
1.267988887E1,-4.148995070E0,1.038242136E0,-8.379644021E-1,4.358244045E0
1.268991488E1,-5.944459527E0,1.279522228E0,-2.172078062E0,6.456910972E0
1.269994188E1,-6.783077720E0,2.066407181E0,-2.665908169E0,7.575437173E0
1.270996788E1,-6.632198507E0,2.853200333E0,-3.389960697E0,7.976129556E0
1.271999488E1,-6.149288660E0,3.698752155E0,-4.331699216E0,8.382012684E0
1.273002087E1,-5.360318005E0,4.423746670E0,-4.771671789E0,8.430385245E0
1.274004788E1,-5.419481302E0,4.492303519E0,-5.749187082E0,9.088713914E0
1.275007388E1,-5.847581688E0,3.961073452E0,-5.611726059E0,9.020852723E0
1.276010088E1,-5.242771429E0,3.730620065E0,-3.694053333E0,7.419582761E0
1.277012688E1,-4.029687020E0,3.842084953E0,-1.424708154E0,5.747154738E0
1.278015388E1,-2.993640513E0,4.234916103E0,5.010886936E-1,5.210325114E0
1.279017988E1,-2.448599907E0,4.874215579E0,2.361161668E0,5.943795373E0
1.280020688E1,-1.689452391E0,4.613525071E0,3.763020072E0,6.188633372E0
1.281023288E1,-7.675812480E-1,3.574272535E0,4.362197124E0,5.691517274E0
1.282025988E1,6.671521032E-1,1.597334771E0,4.970121610E0,5.262953460E0
1.283028588E1,3.756103985E0,-1.739097006E0,5.647965932E0,7.002306385E0
1.284031287E1,6.987991054E0,-5.904889079E0,5.418447515E0,1.063293504E1
1.285033888E1,8.951554483E0,-9.469026051E0,2.642957847E0,1.329578912E1
1.286036588E1,9.513975352E0,-1.144290280E1,-7.524745278E-1,1.490040165E1
1.287039188E1,9.247024230E0,-1.207515287E1,-2.512569616E0,1.541524505E1
1.288041888E1,9.084020230E0,-1.124671936E1,-2.035643810E0,1.459972485E1
1.289044487E1,7.058706111E0,-8.456916291E0,4.171883118E-1,1.102355710E1
1.290047188E1,4.019816042E0,-5.958006940E0,2.529802822E0,7.619492768E0
1.291049788E1,1.628061012E0,-4.933937870E0,2.852010717E0,5.926912408E0
1.292052488E1,-3.044095552E-1,-4.258939973E0,2.945532838E0,5.187234193E0
1.293055088E1,-2.349003114E0,-4.337242962E0,3.042936341E0,5.795597787E0
1.294057788E1,-4.194158086E0,-4.978311220E0,3.036986507E0,7.183163071E0
1.295060388E1,-5.732134262E0,-5.735538511E0,2.984106628E0,8.640524150E0
1.296063088E1,-6.781813552E0,-6.161000633E0,3.155586752E0,9.690647636E0
1.297065688E1,-6.974937730E0,-5.878143915E0,3.730544636E0,9.854912252E0
1.298068388E1,-6.465700795E0,-5.211504028E0,4.539706897E0,9.464354162E0
1.299070988E1,-5.372946821E0,-4.161641720E0,5.150425183E0,8.527291417E0
1.300073687E1,-4.291074516E0,-3.408444330E0,5.222290971E0,7.569883503E0
1.301076321E1,-3.013311131E0,-3.033576411E0,5.145607077E0,6.690284150E0
1.302079021E1,-1.927787824E0,-2.159833993E0,4.967672796E0,5.749697538E0
1.303081621E1,-1.436641590E0,-1.286781546E0,4.033958118E0,4.471304497E0
1.304084321E1,-1.391854257E0,-4.708429474E-1,2.962254413E0,3.306645213E0
1.305087021E1,-1.541616068E0,2.871304482E-1,1.995177569E0,2.537667734E0
1.306089621E1,-1.964773802E0,8.603055167E-1,1.059459416E0,2.392261677E0
1.307092321E1,-2.887263873E0,1.184720151E0,-2.000086892E-1,3.127276448E0
1.308094921E1,-4.353863087E0,9.117294395E-1,-1.042901198E0,4.568918610E0
1.309097621E1,-6.515579299E0,-6.640934247E-1,-1.660923241E0,6.756660394E0
1.310100221E1,-7.829317093E0,-9.077205884E-1,-2.227723090E0,8.190538015E0
1.311102921E1,-7.769643334E0,4.065060335E-1,-2.195996683E0,8.084244314E0
1.312105521E1,-7.106224678E0,2.075790793E0,-2.225764858E0,7.730547574E0
1.313108221E1,-5.661747819E0,3.267870249E0,-2.346083014E0,6.945391986E0
1.314110821E1,-3.944537234E0,3.568945137E0,-2.747699606E0,5.987202728E0
1.315113521E1,-1.503347211E0,5.359683582E0,-3.138408802E0,6.390295044E0
1.316116121E1,3.095877032E0,1.229728626E1,-5.995449586E0,1.402687134E1
1.317118821E1,6.263400582E0,1.719011001E1,-4.747908120E0,1.890165867E1
1.318121421E1,2.990730938E0,2.889061891E0,-3.878532402E0,5.686313722E0
1.319124121E1,3.255710672E0,-2.396029930E0,-2.546500424E0,4.777580540E0
1.320126721E1,2.574230259E0,-3.044946322E0,-6.426452529E-1,4.038731540E0
1.321129421E1,2.478587353E0,-3.979738934E0,-1.811813564E0,5.026369031E0
1.322132021E1,1.374448850E0,-4.654072003E0,-6.955263019E-1,4.902372149E0
1.323134721E1,4.581945428E-1,-4.564122530E0,-5.080008334E-1,4.615107968E0
1.324137321E1,1.055876754E0,-2.895479211E0,-4.740179489E-1,3.118231645E0
1.325140021E1,1.519418868E0,-1.359533188E0,7.592024803E-2,2.040276469E0
1.326142621E1,1.559471710E0,-3.953934002E-1,6.752446496E-1,1.744776001E0
1.327145321E1,1.336634907E0,1.745773941E-1,1.340257257E0,1.900883914E0
1.328147921E1,1.033487765E0,3.809110165E-2,2.740331529E0,2.928986989E0
1.329150621E1,5.805285269E-1,-4.711171818E-1,3.610754483E0,3.687344940E0
1.330153221E1,4.768345892E-2,-1.462414947E0,4.313141908E0,4.554571803E0
1.331155921E1,4.636605200E-1,-1.607196100E0,5.151049665E0,5.415844628E0
1.332158521E1,6.708601150E-1,-8.317523932E-1,5.177386694E0,5.286510978E0
1.333161221E1,-2.948093042E-1,-2.469808343E0,4.545012075E0,5.181119622E0
1.334163821E1,-1.298834119E0,-2.974375107E0,3.289829468E0,4.621347776E0
1.335166521E1,-3.149364145E0,-3.880642077E0,2.331570809E0,5.514897994E0
1.336169121E1,-5.390863860E0,-8.990662415E0,1.407915389E0,1.057712861E1
1.337171821E1,-4.503628991E0,-1.136305088E1,5.870627538E-1,1.223708471E1
1.338174421E1,-2.658793569E0,-6.791404740E0,6.715000927E-2,7.293618492E0
1.339177121E1,-1.376493914E0,-2.957776616E0,-1.238567160E0,3.489588316E0
1.340179721E1,-1.216889192E0,-8.445648122E-1,-1.376756746E0,2.022268075E0
1.341182421E1,-5.703214811E-1,1.672876704E0,-2.340036993E0,2.932499989E0
1.342185021E1,-1.807036681E-1,3.353262402E0,-3.029663454E0,4.522818059E0
1.343187721E1,-1.300033383E-1,4.391886946E0,-3.873934736E0,5.857724998E0
1.344190321E1,-4.149847886E-1,4.743750165E0,-5.180333106E0,7.036421611E0
1.345193021E1,-2.384126168E-1,4.966889854E0,-6.664528347E0,8.315213376E0
1.346195621E1,5.730192402E-1,5.494407524E0,-6.815410484E0,8.773065893E0
1.347198321E1,7.561163199E-1,5.494004066E0,-5.675106953E0,7.934899589E0
1.348200921E1,6.814007445E-1,5.017449558E0,-4.735173469E0,6.932602312E0
1.349203621E1,5.315980031E-1,4.531403266E0,-4.097935136E0,6.132640897E0
1.350206221E1,8.304201052E-2,4.220147790E0,-3.675894220E0,5.597208381E0
1.351208921E1,-2.031484978E-1,3.955772951E0,-3.663794577E0,5.395627828E0
1.352211521E1,-3.529414451E-1,3.966565742E0,-3.659902085E0,5.408613013E0
1.353214221E1,8.021103720E-1,4.893825386E0,-2.832708181E0,5.711142057E0
1.354216821E1,1.186988871E0,4.397348830E0,-2.099816417E0,5.015460926E0
1.355219521E1,2.228775004E0,4.945945128E0,1.347677593E-1,5.426598711E0
1.356222121E1,2.785044895E0,6.283479921E0,9.731795830E-1,6.941590126E0
1.357224821E1,-1.691108030E0,4.976487474E0,4.416183881E0,6.864980263E0
1.358227421E1,-3.548421703E0,2.069355932E0,5.554463106E0,6.908371078E0
1.359230121E1,-3.138326941E0,-3.735514185E0,5.672310230E0,7.481862439E0
1.360232821E1,-9.780763337E-1,-7.547859614E0,6.104237033E0,9.756460825E0
1.361235421E1,2.131735783E0,-1.010405180E1,6.680358514E0,1.229891662E1
1.362238121E1,2.606237625E0,-9.394479314E0,1.001033847E1,1.397338873E1
1.363240721E1,3.235028485E0,-1.138242622E1,9.500384084E0,1.517505630E1
1.364243421E1,2.560795404E0,-1.038926962E1,8.970405321E0,1.396290686E1
1.365246021E1,1.513830391E0,-1.003865186E1,7.413577137E0,1.257089255E1
1.366248721E1,9.779526651E-2,-9.942441773E0,5.163284379E0,1.120362521E1
1.367251321E1,-1.421325978E0,-6.812702054E0,3.306002866E0,7.704721394E0
1.368254021E1,-2.861357784E0,-3.827156426E0,5.389635944E-1,4.808843565E0
1.369256621E1,-3.329161056E0,-7.909002364E-1,-1.104523834E0,3.595665365E0
1.370259321E1,-4.279630346E0,9.758073217E-1,-3.045769610E0,5.342672397E0
1.371261921E1,-3.898829842E0,3.314642712E0,-3.153368318E0,6.010945199E0
1.372264621E1,-5.205008941E0,3.199011099E0,-4.183261215E0,7.404421954E0
1.373267221E1,-5.602585691E0,2.487425419E0,-5.932620084E0,8.530664259E0
1.374269921E1,-4.708542033E0,1.735122069E0,-7.838362736E0,9.307037501E0
1.375272521E1,-1.228599996E0,1.406399791E0,-8.964837602E0,9.157277519E0
1.376275221E1,1.280829957E0,2.263303397E0,-9.186970986E0,9.547958083E0
1.377277821E1,2.175902141E0,3.171484746E0,-9.409462804E0,1.016517860E1
1.378280521E1,2.549676339E0,2.095263775E0,-7.934929503E0,8.593839999E0
1.379283121E1,3.018620695E0,-1.020344394E0,-6.305146778E0,7.064562936E0
1.380285821E1,2.826844009E0,-2.747871514E0,-4.430792565E0,5.930747647E0
1.381288421E1,1.666431318E0,-4.395628579E0,-2.393676426E0,5.275246987E0
1.382291121E1,3.633255154E-2,-5.777343180E0,-6.826320219E-1,5.817645636E0
1.383293721E1,-2.104285736E0,-6.229907731E0,4.936067426E-1,6.594195661E0
1.384296421E1,-3.807945107E0,-6.344298565E0,2.047023661E0,7.677296144E0
1.385299021E1,-3.782603274E0,-6.400589710E0,2.421716748E0,7.819229385E0
1.386301721E1,-2.509409781E0,-5.840828154E0,2.637468481E0,6.882488719E0
1.387304321E1,-2.470185488E-1,-3.815063215E0,2.610978255E0,4.629571573E0
1.388307021E1,1.184970412E0,-1.877161462E0,2.363555664E0,3.242573886E0
1.389309621E1,1.318523741E0,-3.985842258E-1,2.038159282E0,2.459973069E0
1.390312321E1,8.409842697E-1,6.011627662E-1,1.570466230E0,1.880163661E0
1.391314921E1,4.338350424E-1,-2.359351516E-3,8.058153141E-1,9.151812558E-1
1.392317621E1,4.858825707E-1,-8.527257711E-1,2.316785613E-2,9.817127191E-1
1.393320221E1,5.781033942E-1,-1.390595936E0,-6.900158858E-1,1.656527245E0
1.394322921E1,2.120343652E-1,-1.526268881E0,-6.000950646E-1,1.653653336E0
1.395325521E1,-2.087900376E-1,-9.039099580E-1,-7.479196930E-1,1.191650267E0
1.396328221E1,-5.217219096E-1,-6.480843329E-1,-5.199109904E-1,9.810782291E-1
1.397330821E1,-3.319671902E-1,-4.430464536E-1,-1.942398627E-1,5.867039285E-1
1.398333521E1,-3.786016586E-1,-5.464842832E-1,2.171539314E-1,6.993855286E-1
1.399336221E1,-5.962999293E-1,-9.110441458E-1,-5.003871739E-1,1.198316471E0
1.400338783E1,-1.181725792E0,-8.120332432E-1,8.002612632E-2,1.436063375E0
1.401341483E1,-1.602641703E0,-1.069207821E0,4.981044209E-1,1.989918041E0
1.402344083E1,-1.778928239E0,-1.668167356E0,4.368337139E-1,2.477537427E0
1.403346783E1,-1.809249853E0,-1.422042847E0,7.180649793E-1,2.410644769E0
1.404349383E1,-1.824280413E0,-9.493305445E-1,9.351206410E-1,2.259132161E0
1.405352083E1,-1.386698182E0,-6.593104023E-1,9.409408864E-1,1.800830866E0
1.406354683E1,-1.080949907E0,-2.744887680E-1,7.586131541E-1,1.348810848E0
1.407357383E1,-1.187790816E0,1.836060798E-1,-3.701967247E-2,1.202467742E0
1.408359983E1,-2.154743699E0,1.315035877E0,1.846264189E0,3.127448037E0
1.409362683E1,-3.585371135E0,4.276429580E0,2.186113573E0,5.993482183E0
1.410365283E1,-3.328597092E0,5.951638738E0,-8.136973608E-1,6.867580772E0
1.411367983E1,-3.995083782E0,5.781882958E0,-1.462167610E0,7.178356294E0
1.412370583E1,-4.669084729E0,5.460698910E0,-2.224842167E-1,7.188121036E0
1.413373283E1,-4.497013451E0,4.230034263E0,1.615936518E-1,6.175955987E0
1.414375883E1,-3.201936168E0,3.676871290E0,-4.343686008E-1,4.894941653E0
1.415378583E1,-8.316953829E-1,2.907446707E0,5.720716989E-1,3.077698749E0
1.416381183E1,1.669586475E0,1.500444653E0,6.577759759E0,6.950235723E0
1.417383883E1,2.486577573E0,3.040402451E0,4.642988021E0,6.081484428E0
1.418386483E1,3.775817873E0,2.481678191E0,8.229943752E0,9.388690079E0
1.419389183E1,5.099902900E0,2.488966160E0,1.100160057E1,1.237898127E1
1.420391783E1,5.366011439E0,2.438859615E0,1.030071237E1,1.186788904E1
1.421394483E1,4.753307438E0,-3.470848739E-1,6.766768667E0,8.276687604E0
1.422397083E1,4.825949445E0,-1.988866670E0,-2.834251846E0,5.939559092E0
1.423399783E1,5.817900052E0,-1.571207072E0,-1.767924217E0,6.280303235E0
1.424402383E1,4.962018539E0,-2.464737053E0,-1.878139993E0,5.850125345E0
1.425405083E1,2.084758375E0,-3.855694932E-1,-7.212038816E0,7.517205944E0
1.426407683E1,-1.496068597E-2,7.271503830E-1,-6.917709861E0,6.955837924E0
1.427410383E1,-9.741189381E-1,1.584592518E0,-6.203885282E0,6.476730174E0
1.428412983E1,-1.537781464E0,1.835337498E0,-6.186465257E0,6.633670774E0
1.429415683E1,-1.579379725E0,1.786445419E0,-5.175754151E0,5.698619007E0
1.430418283E1,-1.423743217E0,1.678198839E0,-3.887544715E0,4.467258668E0
1.431420983E1,-1.501724316E0,1.406811435E0,-2.535552682E0,3.265474198E0
1.432423583E1,-1.504334806E0,1.219733863E0,-9.182350516E-1,2.143345402E0
1.433426283E1,-1.053965299E0,1.233485929E0,5.373089786E-1,1.709102492E0
1.434428883E1,-6.264353094E-1,1.767544879E0,1.439493277E0,2.364059431E0
1.435431583E1,-5.763577080E-1,2.167427772E0,2.430491080E0,3.307146541E0
1.436434283E1,-7.157804722E-1,2.281359599E0,2.789145255E0,3.673727611E0
1.437436883E1,-2.238039333E-1,1.165060642E0,2.691107329E0,2.941005467E0
1.438439583E1,5.336420435E-1,2.083713770E-2,3.082822831E0,3.128738503E0
1.439442183E1,1.491886083E0,-1.021827248E0,2.587898126E0,3.157066949E0
1.440444883E1,1.663849772E0,-2.045159569E0,2.563107101E0,3.677035727E0
1.441447483E1,1.257832566E0,-3.122610794E0,3.147700027E0,4.608780359E0
1.442450183E1,6.330107957E-1,-3.483228464E0,2.671793976E0,4.435320310E0
1.443452783E1,-1.643494445E-1,-2.914773268E0,1.655117540E0,3.355939215E0
1.444455483E1,-8.679963595E-1,-1.890647480E0,7.439558655E-1,2.209397181E0
1.445458083E1,-9.369280154E-1,-1.080091828E0,-7.435875640E-1,1.611631139E0
1.446460783E1,-7.777861011E-1,-9.324361843E-1,-2.029457456E0,2.364970618E0
1.447463383E1,-4.690504834E-1,-1.477112508E0,-3.487175919E0,3.816053670E0
1.448466083E1,5.277512661E-1,-2.279162216E0,-5.204041811E0,5.705712311E0
1.449468683E1,1.477940474E0,-2.985927451E0,-6.670561504E0,7.456303478E0
1.450471383E1,1.216376976E0,-3.358243645E0,-6.712176138E0,7.603333600E0
1.451473983E1,5.707262546E-1,-3.604177535E0,-5.269040630E0,6.409259967E0
1.452476683E1,5.192421055E-1,-3.296101776E0,-4.550978574E0,5.643164472E0
1.453479283E1,4.163150302E-1,-2.695475199E0,-3.414313765E0,4.369947739E0
1.454481983E1,3.507086858E-1,-1.606654063E0,-2.043848038E0,2.623289664E0
1.455484583E1,-4.004032946E-1,-5.485781711E-1,-1.237263815E0,1.411411548E0
1.456487283E1,-1.327815551E0,2.065207332E-1,-7.959838057E-1,1.561837114E0
1.457489883E1,-2.249473563E0,9.389809728E-1,-9.659074008E-2,2.439497151E0
1.458492583E1,-2.128485900E0,-5.200028282E-1,2.611875218E-1,2.206597854E0
1.459495183E1,-2.836552141E0,-4.933442026E-1,1.769822370E0,3.379598759E0
1.460497883E1,-2.622022184E0,1.658860928E-1,-2.358585531E0,3.530643600E0
1.461500483E1,-2.795491531E0,4.063999066E0,-6.941498673E-1,4.981235323E0
1.462503183E1,-3.351881582E0,5.796593968E0,1.486582074E0,6.858974998E0
1.463505783E1,-3.990596921E0,6.390352989E0,8.245442966E0,1.116910045E1
1.464508483E1,-1.361041185E0,3.305549707E0,-1.405236195E0,3.841065052E0
1.465511183E1,1.443186963E0,6.086414720E0,4.859031529E0,7.920695686E0
1.466513783E1,8.388935977E-1,7.015501619E0,5.922513172E0,9.219390853E0
1.467516483E1,6.349107900E0,2.683698907E0,6.724709644E0,9.629908138E0
1.468519083E1,5.541006324E0,1.329409502E0,5.765412521E0,8.106174329E0
1.469521783E1,6.991197082E0,-6.684349823E-1,3.308406656E0,7.763323810E0
1.470524383E1,6.725349330E0,-1.642727290E0,1.155323128E0,7.018806742E0
1.471527083E1,6.957362169E0,-2.953971832E0,-9.646211596E-1,7.619798680E0
1.472529683E1,6.413870491E0,-4.011665316E0,-5.210438080E0,9.185850982E0
1.473532383E1,2.805340288E0,-4.524747380E0,-1.397267375E1,1.495255446E1
1.474534983E1,3.240731567E-1,-4.287886614E0,-1.378446942E1,1.443961884E1
1.475537683E1,1.394384932E0,-3.376011579E0,-6.367479851E0,7.340746772E0
1.476540283E1,1.534183672E0,-3.236568350E0,-1.894486323E0,4.051934433E0
1.477542983E1,2.683860290E-1,-2.832816939E0,8.821132922E-1,2.979094952E0
1.478545583E1,-1.059970974E0,-2.587853102E0,2.305430832E0,3.624297651E0
1.479548283E1,-2.330191451E0,-2.573268977E0,2.245035526E0,4.134209712E0
1.480550883E1,-3.180120499E0,-2.700630689E0,1.718788456E0,4.512295011E0
1.481553583E1,-3.934517153E0,-2.919246388E0,1.351882252E0,5.082323320E0
1.482556183E1,-4.748722637E0,-3.317587370E0,1.279873061E0,5.932522877E0
1.483558883E1,-5.452001762E0,-3.762943473E0,1.327317368E0,6.756170379E0
1.484561483E1,-6.075389795E0,-4.127392239E0,1.532610771E0,7.502974319E0
1.485564183E1,-6.861203538E0,-4.118293971E0,1.623635400E0,8.165332274E0
1.486566783E1,-7.321708608E0,-3.809536427E0,1.606738847E0,8.408424017E0
1.487569483E1,-7.312006323E0,-3.116912683E0,1.513889741E0,8.091504390E0
1.488572083E1,-6.980349328E0,-2.202050305E0,1.311822832E0,7.436072984E0
1.489574783E1,-6.336772029E0,-1.320350996E0,1.214608267E0,6.585839334E0
1.490577383E1,-5.170456574E0,-8.544583011E-1,1.006764747E0,5.336412224E0
1.491580083E1,-4.154623892E0,-6.683045894E-1,1.096454019E0,4.348533330E0
1.492582783E1,-3.138907569E0,-5.261570227E-1,1.197364682E0,3.400479984E0
1.493585383E1,-2.252036982E0,-4.611757457E-1,1.328430678E0,2.655010679E0
1.494588083E1,-1.478419946E0,-4.800230759E-1,1.595851332E0,2.227754287E0
1.495590683E1,-6.119122875E-1,-5.225083601E-1,1.708925958E0,1.888883152E0
1.496593383E1,2.433324641E-1,-5.394231856E-1,1.705922828E0,1.805646908E0
1.497595983E1,9.896085048E-1,-5.104432154E-1,1.670024432E0,2.007201752E0
1.498598683E1,1.780993475E0,-4.104447180E-1,1.515639228E0,2.374355680E0
1.499601283E1,2.493472610E0,-1.857946926E-1,1.178937839E0,2.764384154E0
1.500604058E1,2.970929343E0,9.249710441E-2,4.917841655E-1,3.012777545E0
1.501606658E1,3.319527476E0,6.344269913E-1,-5.710934597E-1,3.427522138E0
1.502609358E1,3.741178967E0,1.206216854E0,-2.554365513E0,4.687873968E0
1.503611958E1,4.111728718E0,1.947390030E0,-5.632042210E0,7.240064946E0
1.504614658E1,3.990717666E0,2.569439051E0,-8.035613294E0,9.332680512E0
1.505617258E1,3.639283049E0,2.273821369E0,-7.418801039E0,8.570487360E0
1.506619958E1,3.449273683E0,1.491315395E0,-5.031188761E0,6.279679203E0
1.507622558E1,3.126393358E0,8.717344844E-1,-2.780825252E0,4.274019832E0
1.508625258E1,2.436219013E0,4.213065058E-1,-1.355098513E0,2.819388982E0
1.509627858E1,1.318524325E0,1.621134692E-1,-4.175144403E-1,1.392517677E0
1.510630558E1,3.458002406E-1,-9.325139523E-3,1.492307375E-1,3.767420572E-1
1.511633158E1,-2.296219128E-1,-9.526576102E-2,5.037984395E-1,5.617959200E-1
1.512635858E1,-4.602431148E-1,-1.263723636E-1,8.154499175E-1,9.448556858E-1
1.513638458E1,-4.672328764E-1,-2.191606593E-1,9.672237553E-1,1.096293641E0
1.514641158E1,-4.657336503E-1,-3.416656744E-1,1.062194086E0,1.209090378E0
1.515643758E1,-4.451765943E-1,-5.087510312E-1,8.993000132E-1,1.125055699E0
1.516646458E1,-5.258792800E-1,-6.837786609E-1,5.871504255E-1,1.043478747E0
1.517649158E1,-7.646719658E-1,-7.814371026E-1,2.106716716E-1,1.113440485E0
1.518651758E1,-1.044202203E0,-8.533695495E-1,-1.658210425E-1,1.358710583E0
1.519654458E1,-1.358897595E0,-8.994233894E-1,-5.679985285E-1,1.725742575E0
1.520657058E1,-1.660853074E0,-9.460946953E-1,-9.563309041E-1,2.137310671E0
1.521659758E1,-1.881244572E0,-9.761476296E-1,-1.156748241E0,2.414541743E0
1.522662358E1,-2.054932020E0,-9.827567375E-1,-1.097815981E0,2.528587816E0
1.523665058E1,-2.058291246E0,-8.807181466E-1,-7.328935913E-1,2.355708030E0
1.524667658E1,-1.807986562E0,-7.028645575E-1,-2.160692364E-1,1.951799146E0
1.525670358E1,-1.410241411E0,-5.164728642E-1,3.785153391E-1,1.548805643E0
1.526672958E1,-1.189817169E0,-2.910042286E-1,9.227485174E-1,1.533562253E0
1.527675658E1,-9.524395090E-1,-1.152404344E-1,1.368675309E0,1.671434557E0
1.528678258E1,-4.534439725E-1,4.366876066E-2,1.581307552E0,1.645615986E0
1.529680958E1,2.658547693E-1,3.131289232E-1,1.658137627E0,1.708259018E0
1.530683558E1,8.270921624E-1,5.271913952E-1,1.640002488E0,1.910921341E0
1.531686258E1,9.779152429E-1,6.324956560E-1,1.988734522E0,2.304654850E0
1.532688858E1,7.385238022E-1,6.607026243E-1,2.036275894E0,2.264589340E0
1.533691558E1,5.321059799E-1,7.684024894E-1,1.911593376E0,2.127855351E0
1.534694158E1,4.164638418E-1,7.564373320E-1,1.423551428E0,1.664973945E0
1.535696858E1,2.208013880E-1,2.521851486E-1,8.072319482E-1,8.740560739E-1
1.536699558E1,1.223600042E-1,-1.664304686E-1,1.572129178E-1,2.595900095E-1
1.537702158E1,2.272748405E-1,9.409748733E-2,-6.138067853E-1,6.612616426E-1
1.538704858E1,-4.366934538E-2,6.436077046E-1,-1.221317435E0,1.381214743E0
1.539707458E1,-6.231137985E-1,1.228079009E0,-1.644965605E0,2.145311329E0
1.540710158E1,-9.390283352E-1,1.458582097E0,-2.111047749E0,2.732354030E0
1.541712758E1,-2.511782581E-1,1.811967931E0,-2.328870419E0,2.961411104E0
1.542715458E1,3.805139905E-1,1.225441330E0,-1.974381947E0,2.354714722E0
1.543718058E1,8.932241714E-1,-1.209613502E-2,-5.823902804E-1,1.066383691E0
1.544720758E1,1.326008762E0,-1.385819930E0,8.440699916E-1,2.095531022E0
1.545723358E1,1.398593758E0,-2.475810510E0,1.248449539E0,3.105531908E0
1.546726058E1,4.071071273E-1,-2.160212308E0,4.369561400E-1,2.241246103E0
1.547728658E1,-2.549672538E-1,-7.143829876E-1,-1.002185719E0,1.256872137E0
1.548731358E1,5.381841606E-1,2.510426027E-1,-1.790932426E0,1.886823663E0
1.549733958E1,9.712295365E-1,1.136684690E0,-6.461312167E-1,1.628749350E0
1.550736658E1,2.105231524E-1,1.370601967E0,4.542203365E-1,1.459173007E0
1.551739258E1,-1.050100290E0,8.820255840E-1,-6.900942385E-2,1.373113997E0
1.552741958E1,-1.914961957E0,2.282419699E-1,-1.387522640E0,2.375793082E0
1.553744558E1,-1.284567205E0,-5.981871182E-1,-1.933730788E0,2.397343424E0
1.554747258E1,3.592839199E-1,-9.363187355E-1,-1.608806423E0,1.895794244E0
1.555749858E1,1.063580461E0,-1.454429405E0,-1.912282178E0,2.627430573E0
1.556752558E1,5.122985369E-1,-8.095815057E-1,-7.809412587E-1,1.236018307E0
1.557755158E1,-3.194433314E-1,-1.256505833E0,-4.242365456E-1,1.364121547E0
1.558757858E1,-1.387500420E0,-1.224772993E0,-8.278939618E-1,2.027470028E0
1.559760558E1,-1.625783814E0,-5.234047383E-1,-1.506350487E0,2.277326792E0
1.560763158E1,-3.886796272E-1,2.954954749E-1,-1.753837983E0,1.820532092E0
1.561765858E1,6.431042594E-1,8.187639731E-1,-1.315988388E0,1.678029490E0
1.562768458E1,1.137507393E0,1.065411808E0,-6.828974855E-1,1.701579962E0
1.563771158E1,1.279412885E0,9.849108517E-1,-2.293554260E-1,1.630812873E0
1.564773758E1,1.270981200E0,9.444276541E-1,2.032240731E-1,1.596445059E0
1.565776458E1,1.190438143E0,8.046639973E-1,6.033578110E-1,1.558418355E0
1.566779058E1,1.100813191E0,5.674079597E-1,1.067385244E0,1.634947318E0
1.567781758E1,8.714713597E-1,-5.752315342E-2,6.345667398E-1,1.079558332E0
1.568784358E1,7.149688786E-1,-3.198134601E-1,-1.907113239E-2,7.834697536E-1
1.569787058E1,9.716365027E-1,8.235101581E-2,-2.247149295E-1,1.000677762E0
1.570789658E1,1.025265995E0,-1.956636232E-1,1.296263391E-1,1.051787812E0
1.571792358E1,-7.566145027E-1,-1.026130214E0,-1.092055231E-2,1.274961952E0
1.572794958E1,-1.998004113E0,-1.309013829E0,-6.431067444E-1,2.473686303E0
1.573797658E1,-2.500919039E0,-1.272911366E0,-1.021287988E0,2.986290096E0
1.574800258E1,-2.214468037E0,-1.003320225E0,-1.094172362E0,2.666033255E0
1.575802958E1,-1.689143658E0,-8.633039689E-1,-6.582198966E-1,2.007922676E0
1.576805558E1,-1.340903374E0,-1.102422929E0,-2.550390284E-1,1.754537854E0
1.577808258E1,-1.544862442E0,-1.452904451E0,9.613290310E-2,2.122916118E0
1.578810858E1,-1.910638525E0,-1.824995527E0,2.681211501E-1,2.655755486E0
1.579813558E1,-2.074211460E0,-2.123202941E0,3.540075387E-1,2.989258310E0
1.580816258E1,-2.074392139E0,-2.195430672E0,5.836228734E-1,3.076302040E0
1.581818858E1,-1.938974133E0,-1.678150892E0,7.526565224E-1,2.672508736E0
1.582821558E1,-2.022560080E0,-6.015252936E-1,6.888008344E-1,2.219691093E0
1.583824158E1,-2.097583950E0,3.204578233E-1,5.144487043E-1,2.183393944E0
1.584826858E1,-1.748399926E0,8.738254488E-1,4.295155580E-1,2.001238824E0
1.585829458E1,-1.262003385E0,8.356133097E-1,5.010104140E-1,1.594337976E0
1.586832158E1,-4.807715195E-1,3.851052243E-1,7.036353667E-1,9.351737897E-1
1.587834758E1,2.779234225E-1,-2.308317018E-1,9.758042519E-1,1.040537669E0
1.588837458E1,6.694523978E-1,-6.991258478E-1,1.295926591E0,1.617519457E0
1.589840058E1,1.296540549E0,1.036892599E-1,1.437415761E0,1.938538864E0
1.590842758E1,7.872509891E-1,8.309074706E-1,1.409749222E0,1.815919660E0
1.591845358E1,-4.484738392E-1,7.345857024E-1,1.347070871E0,1.598544610E0
1.592848058E1,-8.266425115E-1,6.045453805E-1,5.355083285E-1,1.155673885E0
1.593850658E1,2.258808643E-1,9.476295894E-1,-1.541484944E0,1.823513048E0
1.594853358E1,1.568884850E0,1.249387432E0,-2.503703483E0,3.207943229E0
1.595855958E1,2.430072127E0,1.269534014E0,-1.940133051E0,3.358732411E0
1.596858658E1,3.787152116E0,6.395082217E-1,-9.802798569E-1,3.963892091E0
1.597861358E1,4.604546671E0,-5.233702397E-1,1.090238209E-1,4.635477607E0
1.598863958E1,2.177028607E0,-1.151527846E0,6.687746324E-1,2.552004986E0
1.599866658E1,-6.392585456E-1,-1.836931449E0,7.310826355E-1,2.077847553E0
1.600869208E1,-2.189891020E0,-1.327395721E0,-1.138518230E0,2.802467813E0
1.601871908E1,-2.081331322E0,-4.127251321E-1,-2.916168414E0,3.606427640E0
1.602874508E1,-2.389653834E0,-9.304487157E-1,-3.703217674E0,4.504442407E0
1.603877208E1,-2.328728770E0,-1.232701233E0,-4.175772978E0,4.937571264E0
1.604879808E1,-8.737696078E-1,-4.397211421E-1,-3.899390590E0,4.020208326E0
1.605882508E1,-3.341236433E-1,-5.784896028E-1,-3.159315521E0,3.229173794E0
1.606885108E1,-4.421284407E-1,-1.534243898E0,-2.448321580E0,2.922954063E0
1.607887808E1,-6.625991687E-1,-1.773449982E0,-2.206034598E0,2.907017569E0
1.608890408E1,-1.019271430E0,-2.305701558E0,-2.543535885E0,3.581165833E0
1.609893108E1,-1.065058929E0,-2.927969849E0,-2.768356065E0,4.167871550E0
1.610895708E1,-1.306457719E0,-4.419655958E0,-3.220017806E0,5.622161971E0
1.611898408E1,-1.019538063E-1,-4.853090758E0,-3.210071107E0,5.819573953E0
1.612901008E1,1.042910553E0,-2.860863694E0,-2.229443926E0,3.773940078E0
1.613903708E1,9.342996919E-1,1.931627691E-1,-1.465183604E0,1.748425224E0
1.614906308E1,2.825017923E-1,8.451643272E0,1.705663065E0,8.626666086E0
1.615909008E1,1.536981565E0,1.144219178E1,3.207966110E0,1.198236669E1
1.616911708E1,2.976251186E0,1.087157604E1,2.788506739E0,1.161141707E1
1.617914308E1,2.897871307E0,7.192687456E0,4.974931530E0,9.213162035E0
1.618917008E1,3.314187506E0,5.199352344E0,5.785373161E0,8.455036738E0
1.619919608E1,1.374956388E0,-6.378704166E-1,7.974675951E0,8.117440499E0
1.620922308E1,-9.184636778E-1,-5.150077858E0,9.393825595E0,1.075224799E1
1.621924908E1,-1.425147718E-1,-4.439934102E0,8.963015610E0,1.000344811E1
1.622927608E1,2.713482285E-1,-2.867882107E0,6.032420361E0,6.684943758E0
1.623930208E1,1.568489286E0,-3.274360074E0,4.568179328E0,5.835225352E0
1.624932908E1,1.434738906E0,-4.882837299E0,2.045724410E0,5.485030918E0
1.625935508E1,-8.972102183E-1,-4.630629930E0,3.143770698E0,5.668422526E0
1.626938208E1,-2.867959290E0,-4.934889212E0,3.133360316E0,6.511241732E0
1.627940808E1,-5.236827734E0,-5.427489649E0,1.223265654E0,7.640575074E0
1.628943508E1,-8.412540602E0,-5.039752593E0,-2.708371453E-1,9.810366881E0
1.629946108E1,-1.025111278E1,-5.653858756E0,-2.386281452E0,1.194762617E1
1.630948808E1,-9.841207759E0,-6.478461758E0,-5.228587253E0,1.289022737E1
1.631951408E1,-6.304267942E0,-6.120807458E0,-7.839971305E0,1.177595976E1
1.632954108E1,-4.091011448E0,-5.969040052E0,-1.028302454E1,1.257403704E1
1.633956708E1,-2.477153323E0,-4.717788527E0,-1.173359829E1,1.288685944E1
1.634959408E1,9.298467448E-1,-2.919971443E0,-1.151001246E1,1.191097121E1
1.635962108E1,3.247812545E0,-1.242688862E0,-1.059000103E1,1.114633050E1
1.636964708E1,4.149833268E0,9.415496546E-1,-9.449871157E0,1.036376846E1
1.637967408E1,5.782472942E0,2.154119509E0,-6.569481272E0,9.013063206E0
1.638970008E1,6.481666617E0,3.110952616E0,-2.327277199E0,7.556867570E0
1.639972708E1,4.292661451E0,2.452028130E0,1.163487303E0,5.078689494E0
1.640975308E1,5.010084406E-1,1.115650501E0,3.294966831E0,3.514611204E0
1.641978008E1,-1.968017545E0,5.998430496E-1,4.145013993E0,4.627531279E0
1.642980608E1,-1.837912319E0,3.652954423E-1,7.273357397E0,7.510864816E0
1.643983308E1,-1.628252800E0,-1.304332548E-1,7.840116316E0,8.008473254E0
1.644985908E1,-1.552381669E0,-2.608162236E-1,7.329405883E0,7.496539505E0
1.645988608E1,-8.845346242E-2,3.527046329E-1,5.629135559E0,5.640867993E0
1.646991208E1,5.748681298E-1,1.073065229E0,4.858099191E0,5.008300121E0
1.647993908E1,1.152858673E0,1.125130591E0,2.266570237E0,2.780709011E0
1.648996508E1,1.343819088E0,1.078200254E0,-4.687435046E-1,1.785521213E0
1.649999208E1,9.797357735E-1,1.697850162E-1,9.822434981E-1,1.397680731E0
1.651001808E1,1.790716518E0,-6.805738020E-1,-4.045165769E0,4.475847679E0
1.652004508E1,3.281191376E0,-5.113834476E-1,-5.311848096E0,6.264460078E0
1.653007208E1,2.250400347E0,6.291422778E-1,-1.946757800E0,3.041379236E0
1.654009808E1,1.053360551E0,1.749925464E0,-2.754609261E0,3.429238948E0
1.655012508E1,1.936330314E-1,2.507696546E0,-1.406489253E-1,2.519090677E0
1.656015108E1,-3.044439076E-1,1.663621146E0,2.960851082E0,3.409832919E0
1.657017808E1,-1.175769672E0,-1.542951572E-1,4.856196507E0,4.998888459E0
1.658020408E1,-2.349264776E0,-1.768316712E0,5.003322101E0,5.803380138E0
1.659023108E1,-2.415437277E0,-2.971609958E0,4.696685633E0,6.060004862E0
1.660025708E1,-1.090128428E0,-1.620784444E0,4.165760791E0,4.600965678E0
1.661028408E1,1.310789336E-1,-1.081634324E0,2.492563660E0,2.720291914E0
1.662031008E1,2.030654089E0,8.287077481E-1,1.983141953E0,2.956884266E0
