"Time (s)","Linear Acceleration x (m/s^2)","Linear Acceleration y (m/s^2)","Linear Acceleration z (m/s^2)","Absolute acceleration (m/s^2)"
7.246250752E-4,2.714239499E-1,1.112482479E-1,-3.158870548E-1,4.310820857E-1
1.075062505E-2,3.749103114E-1,4.069662094E-2,-3.666613519E-1,5.259795657E-1
2.077762503E-2,2.933150482E-1,-1.653516573E-1,-4.636877096E-1,5.730455305E-1
3.080362501E-2,1.945316023E-1,-3.887801993E-1,-3.195912659E-1,5.395657188E-1
4.083062510E-2,4.190027028E-1,-4.826642632E-1,-6.188926935E-2,6.421513355E-1
5.085662508E-2,6.280447555E-1,-5.903907332E-1,-3.573449832E-1,9.331113919E-1
6.088362506E-2,6.913753635E-1,-6.984759298E-1,-1.111593702E0,1.483748320E0
7.090962504E-2,6.730548674E-1,-6.275369248E-1,-1.473849177E0,1.737537581E0
8.093562501E-2,8.413111290E-1,-4.403719372E-1,-1.709300764E0,1.955362105E0
9.096262511E-2,8.500997865E-1,-5.037718347E-1,-2.322660822E0,2.524125394E0
1.009886251E-1,5.881065184E-1,-5.265686667E-1,-3.085096228E0,3.184487804E0
1.110156251E-1,1.579411885E-1,-9.207356134E-1,-3.708297150E0,3.824155756E0
1.210416250E-1,-7.170928797E-1,-2.172217811E0,-4.401702082E0,4.960618272E0
1.310686250E-1,-9.599841714E-1,-3.135231425E0,-5.184048427E0,6.133971290E0
1.410946250E-1,-1.378133181E-1,-2.845725253E0,-5.583259474E0,6.268168080E0
1.511216251E-1,-8.792759308E-1,-2.455985525E0,-5.422209029E0,6.017087486E0
1.611476251E-1,-2.139025799E0,-2.102234825E0,-5.289790059E0,6.080847104E0
1.711736250E-1,-3.304111876E0,-2.575205575E0,-5.164405875E0,6.649806545E0
1.812006250E-1,-3.968282484E0,-3.626748372E0,-5.258479389E0,7.520118025E0
1.912266250E-1,-4.433671149E0,-4.627156100E0,-5.817853859E0,8.655370411E0
2.012536251E-1,-5.762164392E0,-5.276467178E0,-6.985107207E0,1.048023698E1
2.112796251E-1,-6.740250374E0,-5.641929851E0,-8.575378541E0,1.228004335E1
2.213066251E-1,-6.797281192E0,-6.024430141E0,-9.634366014E0,1.324076277E1
2.313326250E-1,-6.617211508E0,-6.246748881E0,-9.577042251E0,1.321094614E1
2.413596250E-1,-6.175295906E0,-6.867678745E0,-8.379655277E0,1.247068216E1
2.513856251E-1,-5.383371238E0,-7.708386734E0,-5.893717389E0,1.109665790E1
2.614126251E-1,-4.572915573E0,-8.313018068E0,-2.127362065E0,9.723347962E0
2.714386251E-1,-3.857794667E0,-8.853746937E0,1.841966194E0,9.831798105E0
2.814648334E-1,-3.270161773E0,-9.156630954E0,4.459509995E0,1.069696582E1
2.914918334E-1,-1.861883272E0,-9.790897731E0,5.430917287E0,1.135002865E1
3.015178334E-1,5.835696638E-2,-1.030501007E1,6.082550295E0,1.196637189E1
3.115448334E-1,1.647455349E0,-9.962329323E0,6.758048129E0,1.215044564E1
3.215708333E-1,3.687938899E0,-8.415727335E0,7.329711692E0,1.175372423E1
3.315978334E-1,6.697392038E0,-6.192797792E0,7.280810258E0,1.167116115E1
3.416238334E-1,9.660953304E0,-3.997224448E0,7.215585737E0,1.270340504E1
3.516508334E-1,1.213350224E1,-2.674366166E0,7.936018839E0,1.474294767E1
3.616768334E-1,1.402857781E1,-1.858119419E0,8.878428619E0,1.670569059E1
3.717038333E-1,1.479664584E1,-1.072385490E0,8.862463381E0,1.728102995E1
3.817298334E-1,1.416006532E1,-8.728787845E-1,8.130712994E0,1.635169291E1
3.917558334E-1,1.322097325E1,-1.315266257E0,6.520693274E0,1.480011824E1
4.017828334E-1,1.222944920E1,-1.686370323E0,5.362564505E0,1.345958286E1
4.118088334E-1,1.181000620E1,-1.118728475E0,4.289906535E0,1.261471751E1
4.218358333E-1,1.149877294E1,-1.360875124E-1,2.629780270E0,1.179644198E1
4.318618334E-1,1.105781453E1,7.786596751E-1,8.238937354E-1,1.111577141E1
4.418888334E-1,1.089369371E1,1.583473946E0,-1.342373949E0,1.108972138E1
4.519148334E-1,1.060042895E1,2.366730702E0,-3.623566318E0,1.144992319E1
4.619418334E-1,1.271020025E1,3.056504513E0,-1.403714398E1,1.918157505E1
4.719678333E-1,1.567407668E1,5.469653921E0,-2.180886776E1,2.740840212E1
4.819948333E-1,1.097737556E1,5.213360519E0,-6.700355991E0,1.387719973E1
4.920208334E-1,4.882160776E0,6.706370437E-1,1.269836315E0,5.088981445E0
5.020468334E-1,2.152903873E0,-1.690893145E0,1.075506442E0,2.941229134E0
5.120738334E-1,2.814485918E0,-1.675903807E0,-2.488440496E-1,3.285103943E0
5.220998334E-1,1.590629768E0,-1.659843260E0,-1.788144620E0,2.912497878E0
5.321268333E-1,-1.258203864E-2,-3.269798076E-1,-3.241740504E0,3.258213559E0
5.421528334E-1,1.599390067E0,-4.250434613E-1,-5.714688510E-2,1.655891390E0
5.521798334E-1,2.116527759E0,-4.446281254E-2,2.903891892E0,3.593640886E0
5.622058334E-1,7.373736548E-1,1.026537765E0,3.255365394E0,3.492120206E0
5.722328334E-1,-1.337837094E-1,1.869291694E0,-8.196670756E-1,2.045483716E0
5.822588333E-1,-1.894872093E0,2.007874213E0,-3.694327567E0,4.611957858E0
5.922858334E-1,-1.295707905E0,8.579754013E-1,-1.003299760E0,1.849754355E0
6.023118334E-1,-2.011784247E0,4.298387629E-1,1.661587192E0,2.644410939E0
6.123378334E-1,-2.296051313E0,1.543708786E0,7.617027497E-1,2.869682827E0
6.223648334E-1,-3.314827484E0,3.034514889E0,-2.743669997E0,5.265366741E0
6.323908333E-1,-3.295679022E0,3.644250258E0,-3.615730756E0,6.100456463E0
6.424178334E-1,-3.553087488E0,4.254455743E0,-1.592329554E0,5.767177627E0
6.524438334E-1,-3.353842446E0,4.359433145E0,1.254037723E-1,5.501694521E0
6.624708334E-1,-2.702140440E0,4.212251710E0,2.703460157E-3,5.004461483E0
6.724968334E-1,-2.976307027E0,3.843014660E0,-1.263502611E0,5.022310628E0
6.825238334E-1,-4.315881329E0,3.396323637E0,-1.998178945E0,5.844190704E0
6.925498333E-1,-4.743739640E0,2.524136578E0,-1.892423279E0,5.696981402E0
7.025768334E-1,-2.350917492E0,2.417939447E0,1.637954208E0,3.749151666E0
7.126028334E-1,-2.298339913E0,2.646272634E0,-2.972484702E-1,3.517596035E0
7.226288334E-1,-5.948925630E0,3.404609141E0,2.871023816E-1,6.860284785E0
7.326558334E-1,-2.969283351E0,1.413247465E0,1.984800516E0,3.841008345E0
7.426818333E-1,7.605362302E-1,9.680650234E-2,-1.664332168E0,1.832426921E0
7.527088334E-1,1.645155054E0,1.315019504E0,-1.473465600E0,2.570391473E0
7.627348334E-1,2.936003923E0,1.100089306E-1,-1.016635359E0,3.108981900E0
7.727618334E-1,3.949828672E0,-1.117440333E0,-1.513220235E0,4.374889132E0
7.827878334E-1,3.454553134E0,-3.279428440E-1,-1.248110985E0,3.687718115E0
7.928148333E-1,4.013645183E0,-8.423376077E-1,-1.360242455E0,4.320780004E0
8.028408334E-1,3.788274781E0,-1.763018550E0,-1.435445250E0,4.418117618E0
8.128678334E-1,1.671031907E0,-8.862741709E-1,-1.276788070E0,2.282108086E0
8.228938334E-1,-9.947324198E-1,3.012175602E-1,-1.410563739E0,1.752117196E0
8.329198334E-1,-4.389017717E0,2.197257927E0,-3.713735645E0,6.154937154E0
8.429468333E-1,-1.603269694E0,3.827235948E0,2.051065257E0,4.628723086E0
8.529728334E-1,3.180352049E0,2.785508872E0,3.989511970E0,5.812908445E0
8.629998334E-1,3.258594811E0,5.435928351E-1,3.036058554E0,4.486823471E0
8.730258334E-1,4.478088353E0,-6.536017656E-1,4.929039073E-1,4.552298851E0
8.830528334E-1,5.769386873E0,-2.251158146E0,-5.069740623E-1,6.213739662E0
8.930788334E-1,4.038541751E0,-1.982186810E0,-2.801868979E-1,4.507481417E0
9.031058333E-1,2.406689112E0,-1.405099955E0,-8.344163847E-1,2.909073575E0
9.131318334E-1,1.825652462E0,-1.435889053E-1,-5.951120675E-1,1.925560453E0
9.231578334E-1,1.437507270E0,1.011171867E0,-3.550616455E-1,1.793032199E0
9.331848334E-1,6.874638686E-1,1.955613554E0,5.662888026E-1,2.148886677E0
9.432108334E-1,-1.087906632E0,2.768069551E0,1.613702881E0,3.383753370E0
9.532378333E-1,-3.195479380E0,3.624962048E0,1.239199244E0,4.988692523E0
9.632638334E-1,-4.605528126E0,4.346003260E0,8.947233975E-2,6.332980259E0
9.732908334E-1,-4.928460783E0,4.604022760E0,-4.881296557E-1,6.762027938E0
9.833168334E-1,-4.312837268E0,4.651629621E0,-7.599848378E-1,6.388724472E0
9.933438334E-1,-3.216527895E0,4.849074891E0,8.837306321E-2,5.819569468E0
1.003369833E0,-2.445423407E0,4.900721592E0,6.355818164E-1,5.513722156E0
1.013396833E0,-2.013405679E0,4.818415600E0,-1.334687272E-2,5.222174783E0
1.023422833E0,-2.007406144E0,4.807845004E0,-1.524380998E-1,5.212321017E0
1.033449833E0,-2.244281235E0,4.858470781E0,3.680717003E-1,5.364421066E0
1.043475833E0,-2.901741579E0,4.663198922E0,1.450097605E-1,5.494229355E0
1.053501833E0,-3.387770330E0,4.514063932E0,-1.048680586E-1,5.644887802E0
1.063528833E0,-3.538893957E0,4.720005791E0,2.058430409E-1,5.902931176E0
1.073554833E0,-3.245580078E0,5.020506483E0,7.610846990E-1,6.026485320E0
1.083581833E0,-2.671905658E0,5.627686619E0,5.844730586E-1,6.257119567E0
1.093607833E0,-2.174832832E0,6.151504755E0,-8.234142637E-1,6.576391081E0
1.103634833E0,-2.033428446E0,5.680101644E0,-3.255931404E0,6.855616329E0
1.113660833E0,-1.241981203E0,5.448098745E0,-4.307511039E0,7.055419803E0
1.123687833E0,-4.917099059E-1,6.206961502E0,1.313131438E0,6.363368911E0
1.133713833E0,7.150041081E-1,4.913949748E0,4.297906988E0,6.567353918E0
1.143740833E0,-3.358990919E0,-2.095232317E1,1.319393222E0,2.126084346E1
1.153766833E0,-1.214312325E1,-6.357931114E1,1.061363050E0,6.473724383E1
1.163792833E0,7.293676472E-1,-5.160682836E1,4.425195025E0,5.180134228E1
1.173819833E0,1.273581223E1,-2.168689250E1,4.291735252E0,2.551354955E1
1.183845833E0,7.525380578E0,-3.754926941E0,7.215913766E0,1.108152700E1
1.193872833E0,-6.483511852E-1,3.750580121E0,6.984839405E0,7.954570511E0
1.203898833E0,-3.200454484E0,8.647389926E0,2.723469914E0,9.614444851E0
1.213925833E0,-4.443983883E0,1.073849808E1,-7.887982793E0,1.404580387E1
1.223951833E0,-5.908447695E0,1.001164240E1,-7.676960288E0,1.393120443E1
1.233978833E0,-5.843673994E0,7.573362830E0,-1.891569586E0,9.751019731E0
1.244004833E0,-4.356628528E0,5.352704930E0,-3.918102264E-1,6.912682363E0
1.254031833E0,-3.300546829E0,2.938825205E0,-5.226867733E-1,4.450112855E0
1.264057833E0,-2.234312464E0,-9.913100445E-1,-3.847052747E-1,2.474438510E0
1.274083583E0,6.277048860E-1,-4.841586946E0,-7.464141811E-1,4.938837081E0
1.284110583E0,3.250730306E0,-5.488048092E0,-3.967053692E-1,6.390875882E0
1.294136583E0,3.769401431E0,-4.006434397E0,6.230139573E-1,5.536068110E0
1.304163583E0,1.239659858E0,-7.368140763E-1,1.316401201E0,1.952578723E0
1.314189583E0,-1.710057686E0,7.883397406E-1,2.010762738E0,2.754803736E0
1.324216583E0,-2.493831336E0,8.385076815E-1,1.657441809E0,3.109566403E0
1.334242583E0,-1.039750279E0,7.283923316E-1,1.686559188E-1,1.280656414E0
1.344269583E0,2.145391662E-1,6.615054470E-1,-6.809047544E-1,9.732665590E-1
1.354295583E0,7.547360846E-1,6.196154094E-1,-1.242381299E0,1.580209196E0
1.364322583E0,1.330290239E0,5.420187646E-1,-1.509387385E0,2.083676256E0
1.374348583E0,1.848285718E0,1.900748545E-1,-1.148092096E0,2.184125456E0
1.384374583E0,1.934059548E0,-5.393267065E-1,-7.458930480E-1,2.141918782E0
1.394401583E0,1.448981554E0,-1.117245621E0,-7.370859718E-1,1.972582331E0
1.404427583E0,9.884359919E-1,-9.316175741E-1,-9.037312525E-1,1.631455544E0
1.414454583E0,6.890000783E-2,-2.464537078E-1,-7.179170448E-1,7.621624002E-1
1.424480583E0,-9.804160970E-1,3.753123075E-1,-5.667402808E-1,1.193008633E0
1.434507583E0,-1.292639579E0,6.505267149E-1,-5.594744575E-1,1.551487595E0
1.444533583E0,-1.284175150E0,5.070740497E-1,-2.999148005E-1,1.412861916E0
1.454560583E0,-1.250655840E0,3.326463443E-1,-2.616588074E-1,1.320325320E0
1.464586583E0,-1.096716193E0,9.710178673E-2,-7.597030020E-1,1.337671042E0
1.474613583E0,-3.031028852E-1,1.132079422E-2,-1.411185152E0,1.443413680E0
1.484639583E0,8.534319685E-1,-3.404248953E-2,-1.371520565E0,1.615726980E0
1.494665583E0,1.532862640E0,-1.797188509E-1,-9.399079026E-1,1.807040012E0
1.504692583E0,1.799725469E0,2.307632893E-1,-9.921556981E-1,2.068002996E0
1.514718583E0,1.751865132E0,5.393822551E-1,-1.377633975E0,2.292998043E0
1.524745583E0,1.712637916E0,5.959493887E-1,-1.790640943E0,2.548466066E0
1.534771583E0,1.558994285E0,3.220745784E-1,-1.829246015E0,2.424940452E0
1.544798583E0,1.523701076E0,2.448813915E-2,-1.616400933E0,2.221489729E0
1.554824583E0,1.399419677E0,-1.666333669E-1,-1.466860585E0,2.034163732E0
1.564851583E0,1.056599177E0,-1.729822737E-1,-1.568869502E0,1.899388376E0
1.574877583E0,5.122217191E-1,-9.215387285E-2,-1.630250502E0,1.711309476E0
1.584904583E0,5.790572578E-2,1.003826594E-1,-1.589009066E0,1.593229288E0
1.594930583E0,-2.803692579E-1,2.408643544E-1,-1.361324336E0,1.410612103E0
1.604957583E0,-3.161364385E-1,3.421480697E-1,-1.060490353E0,1.158295014E0
1.614983583E0,-2.617042878E-1,4.199195462E-1,-9.042118205E-1,1.030737879E0
1.625009583E0,-1.916877907E-1,2.973724312E-1,-1.129074392E0,1.183209007E0
1.635036583E0,-1.205596648E-1,3.848286510E-2,-1.343604934E0,1.349551697E0
1.645062583E0,-2.347794129E-2,-6.518125176E-2,-1.417738273E0,1.419430033E0
1.655089583E0,5.965342199E-2,-3.354723036E-2,-1.490460678E0,1.492031160E0
1.665115583E0,1.585181442E-1,3.827353477E-2,-1.644509668E0,1.652575237E0
1.675142583E0,2.787211289E-1,1.910109937E-1,-1.748608671E0,1.780955629E0
1.685168583E0,4.565050630E-1,3.305752605E-1,-1.552218385E0,1.651380874E0
1.695195583E0,5.032982833E-1,2.309223336E-1,-1.470427533E0,1.571238816E0
1.705221583E0,4.475407332E-1,3.525549442E-1,-1.582374669E0,1.681813691E0
1.715248583E0,3.498346367E-1,5.420854229E-1,-1.739835655E0,1.855604749E0
1.725274583E0,5.447178394E-2,7.419789219E-1,-2.125543143E0,2.251984358E0
1.735300583E0,-2.441290559E-1,1.023709466E0,-2.053923668E0,2.307852357E0
1.745327583E0,-1.108675942E-1,9.353790879E-1,-1.677429346E0,1.923796993E0
1.755353583E0,2.572149052E-1,5.564876997E-1,-1.940369424E0,2.034913160E0
1.765380583E0,6.417365956E-1,7.210260093E-2,-2.031327395E0,2.131505485E0
1.775406583E0,1.083529333E0,-3.123126519E-1,-2.102995548E0,2.386245018E0
1.785433583E0,1.357945376E0,-3.330954105E-1,-2.028873027E0,2.463999585E0
1.795459583E0,1.340254772E0,-1.002341402E-1,-1.753118921E0,2.209016905E0
1.805486583E0,1.201651275E0,1.928142750E-1,-1.684955882E0,2.078513761E0
1.815512583E0,1.131055575E0,5.217634249E-1,-1.447251070E0,1.909465749E0
1.825539583E0,1.071923560E0,6.571633047E-1,-7.136553016E-1,1.445748117E0
1.835565583E0,1.133511479E0,4.566283661E-1,-2.735508746E-1,1.252273060E0
1.845592583E0,1.168782541E0,6.965635979E-1,-5.629427335E-1,1.472466637E0
1.855618583E0,1.116691159E0,8.616035986E-1,-1.059513868E0,1.764066196E0
1.865644583E0,1.145650810E0,7.501047975E-1,-1.185544316E0,1.811267046E0
1.875671583E0,1.112430951E0,5.911435622E-1,-1.059312139E0,1.645933030E0
1.885697583E0,1.022584755E0,1.570667374E-1,-8.700212502E-1,1.351771621E0
1.895724583E0,9.362723232E-1,-4.190097195E-1,-8.861082561E-1,1.355493582E0
1.905750583E0,9.599786165E-1,-9.449275911E-1,-1.233157316E0,1.826232204E0
1.915777583E0,1.225319854E0,-1.291092113E0,-1.705455343E0,2.465138032E0
1.925803583E0,1.640022368E0,-1.339616987E0,-2.317303896E0,3.139131151E0
1.935830583E0,2.048629599E0,-1.298166075E0,-2.921833489E0,3.797266033E0
1.945856583E0,2.290207460E0,-1.291204965E0,-3.328548268E0,4.241638132E0
1.955883583E0,2.478558117E0,-1.298295298E0,-3.475682048E0,4.461971169E0
1.965909583E0,2.730943825E0,-1.393664555E0,-3.413160402E0,4.588029969E0
1.975935583E0,3.143685037E0,-1.837312102E0,-2.931301300E0,4.674505181E0
1.985962583E0,3.741133359E0,-2.897233960E0,-2.054934067E0,5.158759294E0
1.995988583E0,4.038651094E0,-4.432449666E0,-1.098517866E0,6.096232787E0
2.006015583E0,4.524402687E0,-5.732717814E0,2.616032588E-1,7.307715750E0
2.016041583E0,5.314174703E0,-6.346424612E0,1.550003022E0,8.421405316E0
2.026068583E0,4.979685901E0,-6.389075373E0,1.862414491E0,8.311807477E0
2.036094583E0,3.190517433E0,-6.001708446E0,8.098645109E-1,6.845128654E0
2.046121583E0,4.967545912E-1,-5.236723654E0,-3.266295594E-1,5.270363044E0
2.056147583E0,-2.966101297E0,-5.266705837E0,-1.109181434E0,6.145423559E0
2.066174583E0,-6.214167026E0,-5.839398510E0,-1.795501587E0,8.714256867E0
2.076200583E0,-7.717027164E0,-5.623670166E0,-2.122838075E0,9.781851352E0
2.086227583E0,-6.497653490E0,-4.187460101E0,-1.782782139E0,7.933009210E0
2.096253583E0,-2.865261677E0,-2.555146117E0,-6.522775175E-1,3.894093234E0
2.106279583E0,-7.861976132E-1,-1.490768096E0,5.091968814E-1,1.760618547E0
2.116306583E0,-4.993756056E-1,-1.086652404E0,5.674360263E-1,1.323696750E0
2.126332583E0,-4.204107124E-1,-6.883874363E-1,3.390179090E-1,8.749603260E-1
2.136359583E0,7.717783794E-2,-4.521499836E-1,6.594409414E-1,8.032797654E-1
2.146385583E0,3.450287005E-1,-5.580512452E-1,1.192375764E0,1.360965084E0
2.156412583E0,3.417171299E-1,-7.619717216E-1,1.497681844E0,1.714765992E0
2.166438583E0,-1.534861949E-1,-9.761973310E-1,1.418517560E0,1.728788972E0
2.176465583E0,-7.644899713E-1,-8.873407030E-1,1.158949717E0,1.647720512E0
2.186491583E0,-1.374463468E0,-3.612713885E-1,1.067366533E0,1.777340192E0
2.196518583E0,-1.805471089E0,2.460648680E-1,9.218462189E-1,2.042075960E0
2.206544583E0,-2.028473808E0,8.339252186E-1,6.209216043E-1,2.279403628E0
2.216570583E0,-2.153981076E0,1.182749054E0,2.513747245E-1,2.470165795E0
2.226597583E0,-2.065144767E0,9.717242110E-1,1.774372673E-1,2.289225816E0
2.236623583E0,-2.177793423E0,3.666882491E-1,3.036038089E-1,2.229219536E0
2.246650583E0,-2.774146562E0,-1.140616357E-1,4.766065844E-1,2.817100112E0
2.256676583E0,-3.357457779E0,-3.415592551E-1,9.905956610E-1,3.517167216E0
2.266703583E0,-3.536380824E0,-1.447548401E-1,1.306294874E0,3.772711173E0
2.276729750E0,-3.347979735E0,4.816696519E-1,1.567915674E0,3.728180994E0
2.286756750E0,-2.774775723E0,1.375000827E0,1.861768667E0,3.613335046E0
2.296782750E0,-2.390993139E0,1.901501666E0,2.281330802E0,3.812745337E0
2.306809750E0,-1.730966160E0,1.813871784E0,2.222780439E0,3.350690612E0
2.316835750E0,-1.246642749E0,1.499627212E0,2.280183724E0,3.000372933E0
2.326862750E0,-5.948884846E-1,6.260438383E-1,1.344293590E0,1.597794872E0
2.336888750E0,2.810610384E-3,-3.334327948E-1,7.893308437E-1,8.568713491E-1
2.346914750E0,5.830507234E-2,-1.006400539E0,1.979596786E0,2.221496109E0
2.356941750E0,3.174296965E-1,-1.389851001E0,2.954024165E0,3.280046674E0
2.366967750E0,8.313012806E-1,-1.549510978E0,3.265809983E0,3.709118620E0
2.376994750E0,1.158576080E0,-1.559682795E0,3.358770479E0,3.880238148E0
2.387020750E0,1.027144633E0,-1.468923483E0,3.384009108E0,3.829396811E0
2.397047750E0,1.025171563E0,-1.508529013E0,3.495365822E0,3.942615724E0
2.407073750E0,3.421009266E-1,-1.124476288E0,3.002034483E0,3.223924783E0
2.417100750E0,-4.039518236E-1,-3.455985117E-1,2.784284465E0,2.834582048E0
2.427126750E0,-8.116384830E-1,4.463027680E-1,2.523851526E0,2.688451174E0
2.437153750E0,-7.413979279E-1,1.118597497E0,2.139211448E0,2.525303322E0
2.447179750E0,-4.125871378E-1,1.621294321E0,1.381057958E0,2.169365001E0
2.457206750E0,-5.467190489E-2,1.954245306E0,3.156821099E-1,1.980333034E0
2.467232750E0,2.160707713E-1,2.092810283E0,8.674373657E-2,2.105722189E0
2.477258750E0,7.103845154E-1,2.173035836E0,1.249561679E0,2.605405016E0
2.487285750E0,1.122088724E0,2.462928509E0,2.647857814E0,3.786324200E0
2.497311750E0,1.061640427E0,2.950179913E0,2.779070795E0,4.189734645E0
2.507338750E0,5.228626283E-1,3.444643273E0,2.045013973E0,4.039930043E0
2.517364750E0,-5.873996631E-1,3.700780554E0,1.856147738E0,4.181638375E0
2.527391750E0,-1.453870411E0,3.795631748E0,1.904380835E0,4.488566130E0
2.537417750E0,-1.970971558E0,3.653397058E0,2.248585663E0,4.721035525E0
2.547444750E0,-2.653130833E0,3.638104250E0,2.387626312E0,5.096632727E0
2.557470750E0,-3.155365142E0,3.520743030E0,2.340224104E0,5.275282886E0
2.567497750E0,-3.244256269E0,2.987769324E0,2.215442183E0,4.935600099E0
2.577523750E0,-3.063025913E0,2.056613680E0,1.214972183E0,3.884320400E0
2.587550750E0,-2.405858807E0,1.003421382E0,-1.100293958E-1,2.609045331E0
2.597576750E0,-1.649867910E0,1.014287263E-1,-1.214337760E0,2.051089492E0
2.607602750E0,-1.153609309E0,-5.245449454E-1,-1.566739799E0,2.015101843E0
2.617629750E0,-9.573564327E-1,-6.037460661E-1,-1.607932849E0,1.966338907E0
2.627655750E0,-1.000073705E0,-7.157401264E-2,-2.159260381E0,2.380688062E0
2.637682750E0,-1.301370787E0,7.645801646E-1,-2.734854150E0,3.123711891E0
2.647708750E0,-1.771660881E0,1.557177263E0,-2.463132285E0,3.410367129E0
2.657735750E0,-1.980064563E0,2.193141487E0,-8.558344433E-1,3.076195353E0
2.667761750E0,-1.939713221E0,2.580850477E0,1.889650237E0,3.740862812E0
2.677788750E0,-1.856775875E0,2.310081707E0,4.132910549E0,5.085768747E0
2.687814750E0,-1.764625949E0,1.095595136E0,4.690249311E0,5.129587901E0
2.697841750E0,-1.388892788E0,-1.030737820E0,4.182955113E0,4.526428737E0
2.707867750E0,7.422540334E-1,-3.457477911E0,2.730280166E0,4.467608347E0
2.717894750E0,3.686866520E0,-5.416411514E0,-4.823470518E-1,6.569867358E0
2.727920750E0,5.178519884E0,-5.971312280E0,-1.873823432E0,8.123106105E0
2.737946750E0,4.490566604E0,-4.164919669E0,3.876234739E-1,6.136937040E0
2.747973750E0,3.522002521E0,-1.423532133E0,1.879817998E0,4.238473923E0
2.757999750E0,2.750757700E0,5.293215358E-1,2.482497386E0,3.742945696E0
2.768026750E0,2.059900546E0,1.107600054E0,2.266864059E0,3.257090849E0
2.778052750E0,1.342972119E0,7.813499790E-1,1.476003438E0,2.143051108E0
2.788079750E0,4.325254854E-1,7.793753743E-2,2.300132377E-1,4.960429868E-1
2.798105750E0,-1.211038030E-1,-4.958854026E-1,-1.995021741E-1,5.480598335E-1
2.808132750E0,-1.088554942E-1,-7.068295544E-1,6.212725103E-1,9.473315521E-1
2.818158750E0,1.645778514E-1,-6.492958760E-1,1.757904575E0,1.881196294E0
2.828185750E0,3.515938081E-1,-5.561006141E-1,2.273016207E0,2.366319669E0
2.838211750E0,-9.424265177E-1,-9.741695166E-2,1.897168880E0,2.120591323E0
2.848238750E0,-2.794418274E0,4.900153828E-1,1.084425784E0,3.037246755E0
2.858264750E0,-2.695574017E0,8.690254694E-1,3.766050538E-1,2.857123714E0
2.868290750E0,-1.124610920E0,8.815648234E-1,6.237435436E-1,1.559154344E0
2.878317750E0,-5.253927916E-2,4.069679636E-1,1.530562491E0,1.584615045E0
2.888343750E0,3.960404677E-1,1.439678049E-1,1.707769378E0,1.758991481E0
2.898370750E0,6.962347651E-1,2.540492409E-1,1.098118794E0,1.324820271E0
2.908396750E0,8.731736304E-1,7.191741961E-1,-3.842088461E-2,1.131865662E0
2.918423750E0,8.319269326E-1,1.129770942E0,-1.126687705E0,1.799419347E0
2.928449750E0,8.595115379E-1,1.212478053E0,-1.467169318E0,2.088408227E0
2.938476750E0,1.071965295E0,9.367455822E-1,-1.098220536E0,1.797968360E0
2.948502750E0,1.263983106E0,4.706037962E-1,-1.117125168E0,1.751310900E0
2.958529750E0,1.356993157E0,4.988902867E-2,-1.170955220E0,1.793057576E0
2.968555750E0,1.340765087E0,-2.929829264E-1,-1.352796611E0,1.927057001E0
2.978582750E0,1.037714279E0,-4.829800129E-1,-1.601589789E0,1.968555427E0
2.988608750E0,6.347292924E-1,-4.655558950E-1,-1.851835417E0,2.012192331E0
2.998634750E0,3.524202389E-1,-3.760285914E-2,-1.906969982E0,1.939625869E0
3.008661750E0,1.631052667E-1,5.739995259E-1,-1.769912417E0,1.867797834E0
3.018687750E0,9.655083284E-2,9.183566737E-1,-1.293370773E0,1.589185011E0
3.028714750E0,7.580977220E-2,1.052147985E0,-8.987638966E-1,1.385835143E0
3.038740750E0,-1.885658343E-1,9.733245939E-1,-9.924344641E-1,1.402798633E0
3.048767750E0,-4.853706836E-1,8.174442565E-1,-1.431803019E0,1.718679638E0
3.058793750E0,-4.324396775E-1,6.782401782E-1,-1.326984662E0,1.551741637E0
3.068820750E0,9.980466217E-3,4.362572515E-1,-9.091285980E-1,1.008431855E0
3.078846750E0,7.053180492E-1,3.077448070E-1,-8.552098875E-1,1.150462676E0
3.088873750E0,1.291939667E0,4.246674854E-1,-1.162462286E0,1.789069351E0
3.098899750E0,1.628251046E0,5.413135904E-1,-1.174253196E0,2.079204762E0
3.108926750E0,1.691338410E0,6.610020018E-1,-1.143313678E0,2.145860068E0
3.118952750E0,1.453720722E0,7.451387572E-1,-1.063917260E0,1.949475735E0
3.128978750E0,1.035217883E0,7.067143643E-1,-7.572916102E-1,1.464449330E0
3.139005750E0,5.134798206E-1,5.698906875E-1,-7.283816604E-1,1.057816981E0
3.149031750E0,9.611368038E-2,5.512889403E-1,-1.000915266E0,1.146729569E0
3.159058750E0,1.352336727E-2,5.572226948E-1,-1.060646474E0,1.198186528E0
3.169084750E0,3.481754527E-1,6.305280679E-1,-6.403453968E-1,9.637603528E-1
3.179111750E0,8.617707559E-1,5.053865433E-1,-3.836706099E-1,1.070171730E0
3.189137750E0,1.023928737E0,5.139661628E-1,-7.757229111E-1,1.383595790E0
3.199164750E0,1.142595128E0,5.843432504E-1,-1.061865618E0,1.665694826E0
3.209190750E0,1.211292749E0,4.002688086E-1,-8.556606348E-1,1.536099074E0
3.219217750E0,1.257201944E0,2.041672289E-1,-6.155154879E-1,1.414602524E0
3.229243750E0,1.430935877E0,-9.558852732E-2,-6.983841285E-1,1.595134804E0
3.239270750E0,1.446205442E0,-2.917690444E-1,-1.121034909E0,1.852932439E0
3.249296750E0,1.395397085E0,-3.687429607E-1,-1.887732789E0,2.376265869E0
3.259322750E0,1.467086142E0,-6.431837815E-1,-2.354454473E0,2.847715398E0
3.269349750E0,1.598266232E0,-9.271298361E-1,-2.581471743E0,3.174589902E0
3.279376208E0,1.899851290E0,-1.236371530E0,-2.906225224E0,3.685674231E0
3.289403208E0,2.434649035E0,-1.444551703E0,-3.064961926E0,4.172317959E0
3.299429208E0,2.966411784E0,-1.630350489E0,-2.891692846E0,4.451912971E0
3.309456208E0,3.305193319E0,-1.778189735E0,-2.787639597E0,4.675168033E0
3.319482208E0,3.399945987E0,-1.987758037E0,-3.218590793E0,5.086269893E0
3.329509208E0,3.404338123E0,-2.780612998E0,-2.777536193E0,5.199618640E0
3.339535208E0,3.343082984E0,-4.240664501E0,-2.059243465E0,5.779266640E0
3.349562208E0,3.538519735E0,-6.201411910E0,-1.553113740E0,7.306900429E0
3.359588208E0,3.714201669E0,-7.312692786E0,-9.370353118E-1,8.255228949E0
3.369615208E0,3.294337671E0,-7.297868341E0,-7.001783466E-1,8.037524042E0
3.379641208E0,2.226908427E0,-6.985676726E0,-1.012969593E0,7.401682772E0
3.389668208E0,4.434481573E-1,-6.904185251E0,-1.352976120E0,7.049465556E0
3.399694208E0,-2.353677085E0,-6.912094780E0,-1.481927691E0,7.450701963E0
3.409720208E0,-5.074742332E0,-6.663209800E0,-2.512363209E0,8.744332076E0
3.419747208E0,-5.698256664E0,-5.487289124E0,-2.827684546E0,8.400968446E0
3.429773208E0,-3.961800846E0,-3.859381601E0,-1.855857131E0,5.833943604E0
3.439800208E0,-2.003472283E0,-2.652609846E0,-4.377174474E-1,3.352884840E0
3.449826208E0,-1.807481070E-1,-1.697667144E0,1.109876229E0,2.036312563E0
3.459853208E0,9.887298144E-1,-9.192220616E-1,2.277436702E0,2.647503310E0
3.469879208E0,1.412314688E0,-6.108779150E-1,2.564741398E0,2.990936817E0
3.479906208E0,1.244302694E0,-1.146290495E0,2.140805399E0,2.728611157E0
3.489932208E0,8.111362072E-1,-2.087482300E0,1.263861630E0,2.571550217E0
3.499959208E0,-3.241944864E-1,-2.747466302E0,1.295997927E0,3.055042352E0
3.509985208E0,-1.442714216E0,-2.467379994E0,2.174241532E0,3.591199603E0
3.520012208E0,-2.005651102E0,-1.448818417E0,2.867983848E0,3.787749002E0
3.530038208E0,-2.143679451E0,-1.832505691E-1,3.045819311E0,3.729069272E0
3.540064208E0,-2.038888430E0,8.790353179E-1,2.955274007E0,3.696405494E0
3.550091208E0,-2.183049047E0,1.619996824E0,2.880875205E0,3.961001742E0
3.560117208E0,-2.397199081E0,2.149357536E0,2.633736788E0,4.159671949E0
3.570144208E0,-2.527104917E0,2.096563026E0,1.161202065E0,3.482847401E0
3.580170208E0,-4.026211142E0,2.165821542E0,-9.157032073E-1,4.662582061E0
3.590197208E0,-4.926310762E0,2.429919807E0,-6.673636993E-1,5.533391573E0
3.600223208E0,-4.250300420E0,3.054473190E0,2.232203811E0,5.690131280E0
3.610250208E0,-3.282990564E0,3.614606044E0,3.565719813E0,6.046301488E0
3.620276208E0,-2.883638599E0,3.787280170E0,3.469727243E0,5.890489776E0
3.630303208E0,-2.614723689E0,3.553642389E0,3.339132020E0,5.533078424E0
3.640329208E0,-2.177695044E0,2.971521665E0,2.677224870E0,4.554100319E0
3.650356208E0,-1.711864476E0,2.170833775E0,1.944517293E0,3.379962539E0
3.660382208E0,-1.425412012E0,1.463441133E0,1.306884566E0,2.425161154E0
3.670409208E0,-1.245069556E0,6.142201835E-1,1.322187606E0,1.917197094E0
3.680435208E0,-8.506998570E-1,-1.967740095E-1,1.988053322E0,2.171351254E0
3.690462208E0,-5.144582791E-1,-7.285864592E-1,2.353698135E0,2.517022142E0
3.700488208E0,-3.563326109E-1,-9.889588791E-1,2.380435114E0,2.602207510E0
3.710514208E0,3.245309206E-1,-1.497456141E0,2.961310965E0,3.334225224E0
3.720541208E0,9.543072559E-1,-1.921559955E0,2.844323383E0,3.562761640E0
3.730567208E0,1.524307871E0,-2.155131662E0,2.078130848E0,3.359573602E0
3.740594208E0,2.047733952E0,-2.275204235E0,1.572474748E0,3.441285441E0
3.750620208E0,2.490772950E0,-1.975501689E0,1.124930324E0,3.372243325E0
3.760647208E0,2.485066652E0,-1.177703492E0,7.328172120E-1,2.845973093E0
3.770673208E0,2.008333805E0,6.330195665E-2,2.734833393E-1,2.027857230E0
3.780700208E0,1.260602684E0,1.489335528E0,-4.051278448E-1,1.992829148E0
3.790726208E0,5.044344704E-1,2.356859432E0,-7.310750341E-1,2.518672512E0
3.800753208E0,-1.004676633E-1,2.687870895E0,-6.197072107E-1,2.760213892E0
3.810779208E0,-5.150798381E-1,2.547618411E0,-4.612725171E-1,2.639780132E0
3.820806208E0,-7.642718701E-1,2.157508555E0,-1.217349368E-1,2.292111265E0
3.830832208E0,-1.199192594E0,1.773371630E0,3.282015833E-1,2.165785330E0
3.840859208E0,-1.548258797E0,1.594415256E0,8.640798944E-1,2.384512398E0
3.850885208E0,-2.027833684E0,1.950433506E0,1.287018066E0,3.093980577E0
3.860911208E0,-2.185084901E0,2.167122547E0,1.876056046E0,3.604247834E0
3.870938208E0,-2.134746953E0,2.250933613E0,2.482792670E0,3.973424986E0
3.880964208E0,-1.735955589E0,1.981817851E0,2.849446713E0,3.880784762E0
3.890991208E0,-1.096937729E0,1.474533302E0,2.681215594E0,3.250605775E0
3.901017208E0,-5.194143060E-1,1.114023805E0,2.293979937E0,2.602534190E0
3.911044208E0,3.766630143E-2,9.287009829E-1,1.768052710E0,1.997477072E0
3.921070208E0,2.963873215E-1,8.590395945E-1,1.159644659E0,1.473285513E0
3.931097208E0,2.296125573E-1,7.604374123E-1,4.540012121E-1,9.149339239E-1
3.941123208E0,-4.646950386E-2,7.221299636E-1,-5.173148632E-2,7.254703618E-1
3.951150208E0,-4.365197184E-1,9.497474509E-1,-3.636871657E-1,1.106724012E0
3.961176208E0,-7.212666953E-1,1.303913888E0,-2.982521448E-1,1.519661612E0
3.971203208E0,-7.326018883E-1,1.681079178E0,8.899316043E-2,1.835933689E0
3.981229208E0,-6.137842736E-1,2.053281351E0,7.948278111E-1,2.285704857E0
3.991256208E0,-5.709563425E-1,2.353004363E0,1.721088751E0,2.970650967E0
4.001282208E0,-6.383191904E-1,2.587992851E0,2.470094272E0,3.634078163E0
4.011308208E0,-7.372147568E-1,2.511465077E0,2.969555539E0,3.958434353E0
4.021335208E0,-7.780863556E-1,1.839044048E0,2.710725030E0,3.366828118E0
4.031361208E0,-6.312379930E-1,2.442493075E-1,2.006566922E0,2.117647266E0
4.041388208E0,-7.832637727E-2,-2.230622140E0,1.372300583E0,2.620118135E0
4.051414208E0,4.290181793E-1,-5.033767968E0,9.147413403E-2,5.052845146E0
4.061441208E0,7.787896295E-1,-7.193375673E0,-1.602473596E0,7.410741426E0
4.071467208E0,8.202962360E-1,-6.961003815E0,-1.485824421E0,7.164923882E0
4.081494208E0,2.935155346E-1,-3.993551812E0,7.355846992E-1,4.071325618E0
4.091520208E0,-5.010840889E-1,-5.531425077E-1,2.486979861E0,2.596559402E0
4.101547208E0,-1.321161712E0,1.338466254E0,2.181269154E0,2.880085990E0
4.111573208E0,-2.430061895E0,1.717030199E0,5.280924511E-1,3.021965445E0
4.121600208E0,-3.383627285E0,1.658561550E0,-3.129266095E-1,3.781227722E0
4.131626208E0,-2.979965922E0,1.628892778E0,5.416778719E-1,3.439026533E0
4.141653208E0,-1.554057773E0,1.536639503E0,1.843033018E0,2.858868173E0
4.151679208E0,-2.547552191E-1,1.168487695E0,2.639994478E0,2.898246808E0
4.161705208E0,9.313897520E-1,4.129175055E-1,3.012597771E0,3.180209594E0
4.171732208E0,1.758785458E0,-5.234205258E-1,2.924593667E0,3.452614002E0
4.181758208E0,2.308637153E0,-1.163485987E0,2.295745504E0,3.457448852E0
4.191785208E0,2.571772674E0,-1.231792576E0,1.234846576E0,3.107438448E0
4.201811208E0,2.408250026E0,-1.025829082E0,3.334748948E-1,2.638787411E0
4.211838208E0,1.700239626E0,-6.202334601E-1,6.078769047E-2,1.810856006E0
4.221864208E0,7.113414122E-1,1.024549127E-2,-2.800605432E-1,7.645557420E-1
4.231891208E0,-1.542099340E-1,5.135328841E-1,-1.061666082E0,1.189382864E0
4.241917208E0,-6.232345435E-1,7.927263218E-1,-2.008290535E0,2.247235455E0
4.251944208E0,-7.042795837E-1,6.219689137E-1,-2.625335509E0,2.788412020E0
4.261970208E0,-3.126441890E-1,2.453678799E-1,-2.052205464E0,2.090334674E0
4.271997208E0,4.108410130E-1,1.753123891E-1,-6.390281653E-1,7.796677292E-1
4.282023208E0,1.060487795E0,3.185200560E-1,-1.500541717E-1,1.117410240E0
4.292050208E0,1.465772418E0,4.189448154E-1,-2.363918557E-1,1.542687477E0
4.302076208E0,1.610171455E0,5.269428885E-1,-9.539207915E-2,1.696885551E0
4.312102208E0,1.605068298E0,7.310487217E-1,2.212773148E-1,1.777537658E0
4.322129208E0,1.381829790E0,8.458693260E-1,5.804203534E-1,1.720998627E0
4.332155208E0,5.542663060E-1,9.197921652E-1,3.261892641E-1,1.122331591E0
4.342182208E0,1.216149958E-1,9.745478314E-1,-4.690748224E-1,1.088377174E0
4.352208208E0,1.313102641E-1,8.172372651E-1,-9.979763820E-1,1.296563146E0
4.362235208E0,1.787540603E-1,6.120549595E-1,-1.088380841E0,1.261402847E0
4.372261208E0,3.223534175E-1,5.300939530E-1,-1.134113669E0,1.292720054E0
4.382288208E0,4.356636860E-1,5.075745714E-1,-1.383789192E0,1.536979935E0
4.392314208E0,2.834026655E-1,5.887479579E-1,-1.726117356E0,1.845649576E0
4.402341208E0,3.671661859E-1,5.678196037E-1,-2.027793338E0,2.137563083E0
4.412367208E0,5.499349444E-1,5.187667269E-1,-1.687131631E0,1.848772701E0
4.422394208E0,7.220966345E-1,4.167135179E-1,-8.321609674E-1,1.177949736E0
4.432420208E0,1.036039198E0,3.070665300E-1,-2.592265119E-1,1.111245003E0
4.442447208E0,1.182416859E0,3.884691274E-1,-5.161483437E-1,1.347377826E0
4.452473208E0,1.276413702E0,5.830077463E-1,-8.794570483E-1,1.656072061E0
4.462500208E0,1.219244085E0,5.889081717E-1,-1.262806354E0,1.851499085E0
4.472526208E0,8.240925407E-1,5.177411252E-1,-1.687478371E0,1.948016335E0
4.482552208E0,2.843722070E-1,3.728003436E-1,-1.884015129E0,1.941484137E0
4.492579208E0,-1.921058849E-1,2.816849363E-1,-1.940936604E0,1.970656230E0
4.502605208E0,-2.959368666E-1,3.795486152E-1,-1.789892645E0,1.853470113E0
4.512632208E0,8.148964785E-2,5.043089014E-1,-1.609130066E0,1.688273556E0
4.522658208E0,7.792694666E-1,6.526317126E-1,-1.371770387E0,1.707320429E0
4.532685208E0,1.499959042E0,7.204851419E-1,-9.388991117E-1,1.910630134E0
4.542711208E0,2.017040747E0,7.831450742E-1,-6.608110902E-1,2.262397154E0
4.552738208E0,2.250549304E0,9.128035730E-1,-4.725918496E-1,2.474171698E0
4.562764208E0,2.189081035E0,7.786298543E-1,-4.067931318E-1,2.358775292E0
4.572791208E0,2.080443130E0,5.205015957E-1,-1.084730570E0,2.403290648E0
4.582817208E0,1.649555084E0,4.564079261E-1,-2.094636369E0,2.704966116E0
4.592844208E0,1.273672088E0,5.497201324E-2,-2.284084402E0,2.615779820E0
4.602870208E0,1.186502748E0,-5.527887511E-1,-2.020105127E0,2.407112149E0
4.612897208E0,1.086322767E0,-8.651657224E-1,-1.773757838E0,2.252737391E0
4.622923208E0,1.228232498E0,-1.151199818E0,-1.639793158E0,2.350050572E0
4.632949208E0,1.282964191E0,-1.232825779E0,-2.107374236E0,2.758057774E0
4.642976208E0,1.372730938E0,-1.207661701E0,-2.615242045E0,3.190976021E0
4.653002208E0,1.588181685E0,-1.304072347E0,-2.643082685E0,3.347956367E0
4.663029208E0,2.080983120E0,-1.849950859E0,-2.235549003E0,3.570782586E0
4.673055208E0,2.748643931E0,-2.607166455E0,-1.558652808E0,4.096554523E0
4.683082208E0,3.381921945E0,-3.444252094E0,-9.101734954E-1,4.912095716E0
4.693108208E0,3.529367966E0,-4.489184614E0,6.178168058E-3,5.710451375E0
4.703135208E0,3.558031309E0,-5.574883338E0,7.869095117E-1,6.660190508E0
4.713161208E0,3.502951123E0,-6.135590973E0,1.100363540E0,7.150310698E0
4.723188208E0,3.042714440E0,-6.247562814E0,1.018368035E0,7.023334374E0
4.733214208E0,1.789029742E0,-6.177696188E0,1.724703500E-1,6.433840504E0
4.743241208E0,-4.845448740E-1,-5.770792544E0,-1.329703032E0,5.941796065E0
4.753267208E0,-3.021707440E0,-5.529874980E0,-1.920789292E0,6.587842185E0
4.763294208E0,-5.041193347E0,-5.736495116E0,-1.733450350E0,7.831082728E0
4.773320208E0,-6.532694099E0,-5.333576934E0,-1.847839722E0,8.633518792E0
4.783347208E0,-5.377417603E0,-4.093278413E0,-1.342186399E0,6.890066224E0
4.793373208E0,-3.247065856E0,-2.795957846E0,-6.641077504E-1,4.336110706E0
4.803400208E0,-2.113632949E0,-2.090079634E0,-4.330823596E-1,3.003903702E0
4.813426208E0,-7.468831278E-1,-1.776337922E0,7.786722466E-2,1.928541969E0
4.823452208E0,8.008703238E-1,-1.235053568E0,1.097716359E0,1.836227599E0
4.833479208E0,1.710368466E0,-8.615024418E-1,1.777295111E0,2.612723609E0
4.843505208E0,1.522278302E0,-8.149007177E-1,1.751481847E0,2.459488376E0
4.853532208E0,7.083723423E-1,-9.658559453E-1,1.503865713E0,1.922571498E0
4.863558208E0,-3.422433794E-1,-1.392467045E0,1.512609347E0,2.084246156E0
4.873585208E0,-1.711452540E0,-1.829764516E0,1.520232069E0,2.930565393E0
4.883611208E0,-2.160648510E0,-1.851868746E0,1.117999766E0,3.057407940E0
4.893638208E0,-2.311115203E0,-1.548652607E0,8.452189694E-1,2.907571750E0
4.903664208E0,-2.600747967E0,-8.633963549E-1,9.124281818E-1,2.888229291E0
4.913691208E0,-2.753601785E0,-3.910617828E-2,9.555035231E-1,2.914933802E0
4.923717208E0,-2.517979460E0,5.085627508E-1,9.860148791E-1,2.751559916E0
4.933744208E0,-2.115925496E0,5.108647996E-1,9.387476689E-1,2.370521195E0
4.943770208E0,-2.532689593E0,6.635145503E-1,2.536159623E-1,2.630416162E0
4.953797208E0,-3.702345562E0,1.351721892E0,-3.773524010E-1,3.959407729E0
4.963823208E0,-4.207237138E0,2.210514734E0,-3.960155439E-1,4.769072031E0
4.973850208E0,-3.779404263E0,2.917691613E0,7.063424814E-1,4.826566133E0
4.983876208E0,-3.241268926E0,3.372113240E0,2.300364804E0,5.212355532E0
4.993902208E0,-2.780146390E0,3.759548580E0,2.653823143E0,5.376448340E0
5.003929208E0,-2.639278779E0,3.811896948E0,2.369195888E0,5.206672639E0
5.013955208E0,-2.579997953E0,3.368256417E0,2.170975131E0,4.765991371E0
5.023982208E0,-2.197696176E0,2.375700331E0,1.284432281E0,3.481894144E0
5.034008208E0,-1.806550485E0,9.701483864E-1,3.657481630E-1,2.082926851E0
5.044035208E0,-1.515425804E0,-4.166375041E-2,3.024026446E-1,1.545864999E0
5.054061208E0,-9.708374807E-1,-4.728462034E-1,1.312804141E0,1.699871659E0
5.064088208E0,-2.519951141E-1,-6.480065650E-1,2.066420045E0,2.180253620E0
5.074114208E0,4.780302718E-1,-6.943568587E-1,2.291786208E0,2.441910811E0
5.084141208E0,1.261194130E0,-1.001208796E0,2.631416613E0,3.085025620E0
5.094167208E0,1.802338005E0,-1.280280027E0,2.488426462E0,3.328634178E0
5.104194208E0,2.229411181E0,-1.471331951E0,2.099795075E0,3.397680279E0
5.114220208E0,2.288252151E0,-1.526805655E0,1.818238777E0,3.297457455E0
5.124247208E0,2.228438058E0,-1.533776121E0,1.702344624E0,3.196307649E0
5.134273208E0,1.923860250E0,-1.139288455E0,1.552518494E0,2.722045208E0
5.144300208E0,1.479505189E0,-4.077088058E-1,1.377984369E0,2.062523454E0
5.154326208E0,1.300530689E0,4.376997596E-1,1.257010155E0,1.860923341E0
5.164352208E0,9.674843949E-1,1.156457634E0,1.159523621E0,1.902081844E0
5.174379208E0,3.582647502E-1,1.617462056E0,1.375095260E0,2.153003509E0
5.184405208E0,-1.277158345E-1,2.020872574E0,1.691715848E0,2.638586706E0
5.194432208E0,-7.485315310E-1,2.435050154E0,2.097470222E0,3.299871215E0
5.204458208E0,-1.319787032E0,2.864601819E0,2.346029220E0,3.930856712E0
5.214485208E0,-1.535416850E0,3.137336422E0,2.593284873E0,4.350346097E0
5.224511208E0,-1.587996475E0,3.152579529E0,2.646668198E0,4.411954560E0
5.234538208E0,-1.686372662E0,3.126940657E0,2.329119949E0,4.248106680E0
5.244564208E0,-1.591665018E0,2.956822935E0,1.864109892E0,3.840716741E0
5.254591208E0,-1.142723255E0,2.445758745E0,1.265486864E0,2.981444160E0
5.264617208E0,-6.367823229E-1,1.788426456E0,5.453630796E-1,1.975191586E0
5.274644208E0,-1.647529024E-1,1.367612286E0,-1.784687161E-1,1.389013306E0
5.284670125E0,2.276676272E-1,9.656781900E-1,-6.512880224E-1,1.186820544E0
5.294697125E0,2.628086624E-1,9.246921319E-1,-1.099751044E0,1.460676655E0
5.304723125E0,1.378182882E-1,1.478838022E0,-1.236237629E0,1.932417980E0
5.314750125E0,-1.988757911E-1,2.219720006E0,-1.364601262E0,2.613205903E0
5.324776125E0,-5.685407116E-1,2.567922283E0,-1.879322885E0,3.232540471E0
5.334803125E0,-9.057190865E-1,2.504806852E0,-1.662213721E0,3.139639929E0
5.344829125E0,-9.890574047E-1,2.358865612E0,-8.560043049E-1,2.697262482E0
5.354855125E0,-8.192454913E-1,2.360950145E0,-5.725081936E-1,2.563789069E0
5.364882125E0,-9.258089501E-1,2.228072169E0,1.234236127E0,2.710122990E0
5.374908125E0,-1.259152867E0,1.590175440E0,3.552237303E0,4.090539540E0
5.384935125E0,-1.862908581E0,-1.230184007E-1,4.800647081E0,5.150900339E0
5.394961125E0,-2.593776332E0,-2.730509377E0,4.016581655E0,5.506022639E0
5.404988125E0,-3.077262713E0,-5.356253605E0,2.661869789E0,6.726406862E0
5.415014125E0,-3.310664851E0,-6.788926105E0,-5.336075449E-1,7.571971767E0
5.425041125E0,-1.740072175E0,-5.542259967E0,-3.748271055E0,6.913322835E0
5.435067125E0,1.205632279E0,-1.877879500E0,-2.079930329E0,3.050588596E0
5.445094125E0,3.381136664E0,1.011051999E0,2.177205632E0,4.146629432E0
5.455120125E0,4.317012765E0,2.101011003E0,4.388442936E0,6.504558236E0
5.465147125E0,3.461838180E0,1.635389619E0,4.689120798E0,6.053649862E0
5.475173125E0,2.340534883E0,4.404198843E-1,4.240894296E0,4.863872700E0
5.485200125E0,1.732853641E0,-9.845149952E-1,2.797816676E0,3.435088015E0
5.495226125E0,1.438223554E0,-2.034426420E0,1.195178115E0,2.763300305E0
5.505253125E0,1.202271592E0,-2.252848576E0,6.329120509E-1,2.630848029E0
5.515279125E0,9.831533249E-1,-1.615252978E0,1.267036668E0,2.276184211E0
5.525306125E0,8.004268125E-1,-1.018337629E0,1.629488171E0,2.081568233E0
5.535332125E0,6.024320506E-2,-5.162839991E-1,1.345263058E0,1.442189692E0
5.545359125E0,-1.005952423E0,4.554864049E-2,6.949076664E-1,1.223483396E0
5.555385125E0,-1.635300157E0,5.715781939E-1,3.291444468E-1,1.763304937E0
5.565411125E0,-1.753533196E0,8.735664171E-1,6.413810849E-2,1.960130264E0
5.575438125E0,-1.593347554E0,9.767288429E-1,-7.042967599E-2,1.870218169E0
5.585464125E0,-1.226740874E0,8.937328792E-1,-5.077718418E-2,1.518627655E0
5.595491125E0,-5.956583436E-1,7.478033334E-1,8.426188588E-2,9.597493179E-1
5.605517125E0,1.005994450E-1,5.739989412E-1,3.526596093E-1,6.811489065E-1
5.615544125E0,6.711830275E-1,5.601357776E-1,4.695741016E-1,9.923399531E-1
5.625570125E0,1.206723881E0,6.730373257E-1,-3.262594306E-1,1.419720741E0
5.635597125E0,1.308505706E0,6.679800689E-1,-1.138435346E0,1.858606896E0
5.645623125E0,1.179798257E0,5.964540035E-1,-1.373993352E0,1.906708954E0
5.655650125E0,1.049848494E0,4.514670289E-1,-8.553757292E-1,1.427470482E0
5.665676125E0,6.641166674E-1,3.932445484E-1,-5.965323561E-1,9.754706939E-1
5.675703125E0,6.560860283E-1,2.256387895E-1,-8.444531304E-1,1.092914832E0
5.685729125E0,5.446414601E-1,1.171249920E-1,-1.361484988E0,1.471051990E0
5.695756125E0,5.009730649E-1,2.541732019E-1,-1.943292301E0,2.022860103E0
5.705782125E0,8.160373434E-1,4.426985443E-1,-2.017177718E0,2.220564094E0
5.715809125E0,9.720265851E-1,3.956185180E-1,-1.710713452E0,2.006960440E0
5.725835125E0,5.614125171E-1,5.045386970E-1,-1.429242523E0,1.616316028E0
5.735862125E0,4.758814931E-2,8.740587527E-1,-1.791231950E0,1.993678819E0
5.745888125E0,-5.218085946E-1,1.115982623E0,-2.235754679E0,2.552704528E0
5.755914125E0,-3.586238424E-1,8.407723081E-1,-1.905606996E0,2.113491698E0
5.765941125E0,2.156616855E-1,3.846403706E-1,-9.436962406E-1,1.041643303E0
5.775967125E0,7.104970012E-1,-1.961156130E-2,2.573418081E-2,7.112333303E-1
5.785994125E0,1.145663966E0,-1.480017990E-1,3.529601562E-1,1.207903691E0
5.796020125E0,1.241800378E0,1.678378934E-1,-3.149766433E-1,1.292071214E0
5.806047125E0,1.089868226E0,7.509783715E-1,-1.436570400E0,1.953334528E0
5.816073125E0,8.118578998E-1,1.211108635E0,-2.186682653E0,2.628208211E0
5.826100125E0,7.637872821E-1,1.200428111E0,-2.096729818E0,2.533905009E0
5.836126125E0,7.688663198E-1,8.210677761E-1,-1.439465210E0,1.826846409E0
5.846153125E0,6.736637087E-1,2.375671095E-1,-1.019737599E0,1.245040439E0
5.856179125E0,4.658975916E-1,-3.657257974E-1,-1.132743081E0,1.278249903E0
5.866206125E0,2.313753466E-1,-4.762568843E-1,-1.570591945E0,1.657442074E0
5.876232125E0,2.168588298E-1,2.578271270E-2,-1.851443068E0,1.864278395E0
5.886259125E0,5.949206442E-1,5.192783582E-1,-1.867083347E0,2.027210105E0
5.896285125E0,9.244091266E-1,8.396204066E-1,-1.475858865E0,1.933301335E0
5.906312125E0,1.303328581E0,8.154047477E-1,-6.918197519E-1,1.685872137E0
5.916338125E0,1.445576136E0,6.212754339E-1,-4.344320431E-1,1.632300441E0
5.926365125E0,1.408712949E0,3.418130243E-1,-1.094750213E0,1.816531405E0
5.936391125E0,1.393595850E0,1.458219570E-1,-1.781503353E0,2.266523248E0
5.946418125E0,1.386838223E0,-2.128211081E-2,-1.712727817E0,2.203907839E0
5.956444125E0,1.370940813E0,-3.063338739E-1,-1.483431594E0,2.043009655E0
5.966470125E0,1.427474033E0,-3.868985653E-1,-1.319922979E0,1.982314124E0
5.976497125E0,1.476295360E0,-4.657950461E-1,-1.683835848E0,2.287294510E0
5.986523125E0,1.368160754E0,-5.377736861E-1,-2.606685522E0,2.992636596E0
5.996550125E0,1.388971287E0,-7.500697142E-1,-2.835107878E0,3.244947225E0
6.006576125E0,1.510607114E0,-1.045593256E0,-2.505267321E0,3.106696550E0
6.016603125E0,1.564282946E0,-1.347198486E0,-2.426074386E0,3.185555183E0
6.026629125E0,1.755956429E0,-1.700828733E0,-2.803042917E0,3.719307860E0
6.036656125E0,2.128671257E0,-2.138506858E0,-2.919810352E0,4.198779036E0
6.046682125E0,2.949458074E0,-3.131486283E0,-2.185270258E0,4.825030090E0
6.056709125E0,3.597623391E0,-4.630911766E0,-7.870594928E-1,5.916730558E0
6.066735125E0,4.175917697E0,-6.285695431E0,7.788631582E-1,7.586493490E0
6.076762125E0,4.583776191E0,-6.663925499E0,1.527067903E0,8.231090062E0
6.086788125E0,4.243574660E0,-6.008669556E0,1.308238488E0,7.471514148E0
6.096815125E0,2.576594288E0,-5.608084413E0,3.036862546E-1,6.179132160E0
6.106841125E0,-8.332843637E-1,-5.368507031E0,-1.269136988E0,5.579062579E0
6.116868125E0,-4.817200549E0,-5.818687087E0,-1.969067120E0,7.806392628E0
6.126894125E0,-7.069221743E0,-6.024351203E0,-1.675527977E0,9.437907474E0
6.136921125E0,-6.677573485E0,-4.602645156E0,-1.828612761E0,8.313732899E0
6.146947125E0,-4.217264236E0,-2.596708710E0,-1.369383261E0,5.138426245E0
6.156973125E0,-2.586987714E0,-1.746043498E0,-2.865645839E-1,3.134213233E0
6.167000125E0,-1.342297789E0,-1.845097670E0,1.017177396E0,2.498159046E0
6.177027125E0,1.356839083E-1,-1.739039118E0,1.948834731E0,2.615458657E0
6.187053125E0,1.172960085E0,-1.180931740E0,2.488272096E0,2.993648803E0
6.197079125E0,1.473218555E0,-7.240700698E-1,2.544822273E0,3.028328050E0
6.207106125E0,1.023129569E0,-8.399151063E-1,2.482346528E0,2.813235821E0
6.217132125E0,-7.613878772E-2,-1.473563833E0,2.413149262E0,2.828511419E0
6.227159125E0,-1.466379213E0,-1.914576625E0,1.980860516E0,3.120846044E0
6.237185125E0,-2.513597849E0,-1.912969810E0,1.244395080E0,3.395017931E0
6.247212125E0,-2.974293830E0,-1.937065017E0,2.755318382E-1,3.560135175E0
6.257238125E0,-3.102765929E0,-1.853061578E0,-3.465171093E-1,3.630574022E0
6.267265125E0,-2.843595404E0,-1.305429486E0,-1.246205743E-1,3.131407232E0
6.277291125E0,-2.465110105E0,-6.250626755E-1,2.905879068E-1,2.559670391E0
6.287317958E0,-2.275650670E0,5.832246780E-2,2.472717333E-1,2.289788373E0
6.297343958E0,-2.559740859E0,1.111883724E0,-2.447831400E-1,2.801513424E0
6.307370958E0,-2.875346662E0,2.151104100E0,-4.785945646E-1,3.622695134E0
6.317396958E0,-2.787330279E0,2.863141769E0,3.122004584E-1,4.008024451E0
6.327423958E0,-2.337326516E0,3.427370598E0,1.281579863E0,4.341936366E0
6.337449958E0,-1.741736293E0,3.639511675E0,1.497809751E0,4.303849974E0
6.347476958E0,-1.585280005E0,3.161774275E0,2.125316709E0,4.126366486E0
6.357502958E0,-1.715683585E0,2.682482101E0,2.385597328E0,3.978737865E0
6.367529958E0,-1.832480109E0,2.232461089E0,2.389154774E0,3.748323145E0
6.377555958E0,-1.343352773E0,1.481259354E0,1.924392200E0,2.775249770E0
6.387582958E0,-7.452123591E-1,7.049859273E-1,6.986161168E-1,1.241132989E0
6.397608958E0,-5.778483825E-1,4.043817401E-1,9.826549959E-1,1.209563634E0
6.407634958E0,-3.257735270E-1,3.005112165E-1,2.209675367E0,2.253686005E0
6.417661958E0,1.047496524E-1,2.522944915E-1,2.806463538E0,2.819727397E0
6.427687958E0,7.151900496E-1,8.696505368E-2,3.110440692E0,3.192788910E0
6.437714958E0,1.475799224E0,-3.005211568E-1,2.945105407E0,3.307860664E0
6.447740958E0,2.095536255E0,-9.318766057E-1,2.564861265E0,3.440665563E0
6.457767958E0,2.405562353E0,-1.641908680E0,2.103314806E0,3.592565591E0
6.467793958E0,2.597247823E0,-2.155734510E0,1.608462607E0,3.738989100E0
6.477820958E0,2.617901359E0,-2.396543316E0,1.715279542E0,3.941955263E0
6.487846958E0,2.094397949E0,-2.150709413E0,1.737488437E0,3.468561635E0
6.497873958E0,1.179453125E0,-1.244739481E0,1.303150241E0,2.153761036E0
6.507899958E0,4.514307761E-1,-5.019834638E-3,5.276518634E-1,6.944288540E-1
6.517926958E0,3.115041281E-1,1.007569397E0,1.613033375E-1,1.066887847E0
6.527952958E0,4.286031731E-1,1.659221701E0,1.669602263E-1,1.721799364E0
6.537979958E0,3.846837862E-1,2.000310255E0,2.983918932E-1,2.058703586E0
6.548005958E0,-8.028102838E-2,2.139909021E0,5.824104533E-1,2.219202018E0
6.558032958E0,-6.072949605E-1,2.367316593E0,9.587737978E-1,2.625308023E0
6.568058958E0,-9.688199721E-1,2.665204749E0,1.360466403E0,3.145281756E0
6.578085958E0,-1.131922425E0,3.051854222E0,2.342664732E0,4.010379111E0
6.588111958E0,-1.159203633E0,3.483002762E0,3.349906685E0,4.969601201E0
6.598138958E0,-1.267928222E0,3.729210302E0,3.705233209E0,5.407717132E0
6.608164958E0,-1.233242978E0,3.635129187E0,3.430862263E0,5.148385019E0
6.618191958E0,-9.167830418E-1,3.179595419E0,2.804218500E0,4.337506146E0
6.628217958E0,-4.471583618E-1,2.479680782E0,2.111505586E0,3.287434139E0
6.638244958E0,-1.459263298E-1,2.051063502E0,1.404534821E0,2.490155427E0
6.648270958E0,3.306907430E-2,1.551480321E0,1.123081727E0,1.915593202E0
6.658296958E0,-1.380609477E-1,1.085397007E0,6.891352952E-1,1.293079635E0
6.668323958E0,-5.974903493E-1,9.206885433E-1,3.251581076E-1,1.144722633E0
6.678349958E0,-7.606974672E-1,1.046879643E0,3.185963622E-1,1.332711997E0
6.688376958E0,-8.851655388E-1,1.347732922E0,2.358179149E-1,1.629574223E0
6.698402958E0,-1.243419764E0,1.815247049E0,2.497079757E-1,2.214400287E0
6.708429958E0,-1.402809746E0,2.305493397E0,3.716475651E-1,2.724205738E0
6.718455958E0,-1.380781092E0,2.571000842E0,8.994163728E-1,3.053776607E0
6.728482958E0,-1.324262637E0,2.555283526E0,1.856415102E0,3.424824442E0
6.738508958E0,-1.421680904E0,2.046277556E0,2.710793735E0,3.681960226E0
6.748535958E0,-1.995132692E0,2.234431601E-1,3.130641360E0,3.719058568E0
6.758561958E0,-2.458080290E0,-3.096822819E0,2.348061712E0,4.598463231E0
6.768588958E0,-2.119664498E0,-7.243108581E0,-4.745553446E-1,7.561798879E0
6.778614958E0,-8.394095414E-1,-1.067540429E1,-3.868010337E0,1.138553332E1
6.788641958E0,6.120983751E-1,-1.041465940E1,-3.307400351E0,1.094434520E1
6.798667958E0,1.716109116E0,-4.987548652E0,1.809165068E-1,5.277632313E0
6.808694958E0,1.725128154E0,7.832076395E-1,2.839396226E0,3.413451667E0
6.818720958E0,1.205696672E0,4.060086109E0,2.870843722E0,5.116614833E0
6.828747958E0,6.761809351E-1,5.052586062E0,1.663977242E0,5.362337814E0
6.838773958E0,1.355573161E-1,4.333365088E0,2.015258077E0,4.780972066E0
6.848800958E0,-1.049435607E-1,2.693075502E0,2.933745729E0,3.983783730E0
6.858826958E0,-7.522362538E-2,7.942881131E-1,2.658983896E0,2.776102945E0
6.868852958E0,7.329682164E-2,-8.407635373E-1,2.124085286E0,2.285605839E0
6.878879958E0,6.616529430E-1,-2.101975794E0,1.346244221E0,2.582336221E0
6.888905958E0,1.247617773E0,-2.591264368E0,7.646509159E-1,2.975885104E0
6.898932958E0,1.292912351E0,-2.404967984E0,1.041950513E0,2.922525316E0
6.908958958E0,9.912091070E-1,-1.667111934E0,1.508772258E0,2.457265028E0
6.918985958E0,4.440238157E-1,-6.406115913E-1,1.301555121E0,1.517097918E0
6.929011958E0,-4.784639159E-1,4.167211193E-1,-1.098364194E-1,6.439318668E-1
6.939038958E0,-1.427967246E0,1.217721836E0,-1.530419819E0,2.421594877E0
6.949064958E0,-1.522111803E0,1.549191136E0,-1.490766342E0,2.634236474E0
6.959091958E0,-9.042188372E-1,1.548015845E0,-4.616107786E-1,1.851229125E0
6.969117958E0,5.478048038E-2,1.194293797E0,3.304401898E-1,1.240374659E0
6.979144958E0,9.059691281E-1,5.926503897E-1,7.101957965E-1,1.294755813E0
6.989170958E0,1.304251272E0,-1.398794317E-1,6.462471378E-1,1.462283488E0
6.999197958E0,1.254000155E0,-5.917119116E-1,3.657140664E-1,1.434010513E0
7.009223958E0,1.002476618E0,-3.039271599E-1,2.015202675E-1,1.066743412E0
7.019250958E0,6.820994867E-1,3.847766107E-1,-4.290137208E-1,8.929532589E-1
7.029276958E0,3.273735445E-1,9.498585480E-1,-6.869039977E-1,1.217062776E0
7.039303958E0,3.680493347E-3,1.202544218E0,-8.530567235E-1,1.474392050E0
7.049329958E0,-1.588837962E-1,9.742946470E-1,-9.259815891E-1,1.353490311E0
7.059356958E0,-3.948130275E-1,5.967960656E-1,-1.062882815E0,1.281312900E0
7.069382958E0,-6.387904029E-1,5.908827764E-1,-1.542498997E0,1.771016316E0
7.079409958E0,-5.723368336E-1,7.428413862E-1,-2.086832821E0,2.287849208E0
7.089435958E0,-3.843313818E-1,8.112935704E-1,-2.283037165E0,2.453195175E0
7.099462958E0,-4.727839306E-2,8.059439528E-1,-2.083039001E0,2.234017095E0
7.109488958E0,4.911852644E-1,7.156951028E-1,-1.504037182E0,1.736551263E0
7.119515958E0,9.003115815E-1,5.168541026E-1,-8.130858151E-1,1.318638559E0
7.129541958E0,1.297234906E0,2.703933781E-1,-5.373920090E-1,1.429937464E0
7.139567958E0,1.729013629E0,2.974537075E-2,-6.275483268E-1,1.839616758E0
7.149594958E0,1.866752979E0,6.442345262E-2,-7.098012556E-1,1.998182897E0
7.159620958E0,1.636376776E0,3.163127321E-1,-8.019796868E-1,1.849582146E0
7.169647958E0,1.359058979E0,5.763389969E-1,-8.292511006E-1,1.693182015E0
7.179673958E0,1.113452459E0,6.224653423E-1,-1.020611612E0,1.633673022E0
7.189700958E0,8.321198907E-1,5.561164016E-1,-1.567457253E0,1.859734176E0
7.199726958E0,5.194040003E-1,5.659847474E-1,-2.025605310E0,2.166378573E0
7.209753958E0,3.346662284E-1,4.972565746E-1,-1.864970017E0,1.958922855E0
7.219779958E0,2.063328549E-1,3.346297199E-1,-1.092750465E0,1.161315580E0
7.229806958E0,1.654603424E-1,2.758412290E-1,-4.639954193E-1,5.645859170E-1
7.239832958E0,1.457036971E-1,3.932772928E-1,-5.297138840E-1,6.756429496E-1
7.249859958E0,-1.257431301E-1,7.649883002E-1,-1.130230533E0,1.370561743E0
7.259885958E0,-3.384920251E-1,1.057012868E0,-1.467538278E0,1.839978709E0
7.269912958E0,-4.966785774E-1,1.268572732E0,-1.558493471E0,2.069992339E0
7.279938458E0,-1.418740632E-1,1.260094854E0,-1.249579221E0,1.780285235E0
7.289965458E0,3.405591620E-1,1.020999867E0,-1.155587276E0,1.579178021E0
7.299991458E0,1.089961782E0,5.445219576E-1,-1.609674150E0,2.018804527E0
7.310018458E0,1.583802267E0,-3.576157093E-3,-2.218499107E0,2.725835780E0
7.320044458E0,2.071867896E0,-5.519040674E-1,-2.099463538E0,3.000830189E0
7.330071458E0,2.739041926E0,-9.498936313E-1,-1.539111998E0,3.282303204E0
7.340097458E0,3.206890807E0,-1.389725870E0,-1.429637503E0,3.776155456E0
7.350124458E0,3.526070721E0,-1.695611263E0,-1.935751147E0,4.365249682E0
7.360150458E0,3.347136274E0,-1.489990416E0,-2.395116595E0,4.377211005E0
7.370177458E0,2.698351445E0,-9.883086687E-1,-2.677556699E0,3.927742917E0
7.380203458E0,1.732405160E0,-7.075797522E-1,-3.497002750E0,3.966223012E0
7.390229458E0,6.794034818E-1,-8.341164225E-1,-4.405586388E0,4.535033706E0
7.400256458E0,5.267497842E-1,-1.501618774E0,-3.882918691E0,4.196353397E0
7.410282458E0,1.761051254E0,-3.028924951E0,-2.096522973E0,4.083025404E0
7.420309458E0,3.408997184E0,-5.219927527E0,-2.456953239E-1,6.239332607E0
7.430335458E0,4.857020087E0,-6.960269405E0,1.302468164E0,8.586758273E0
7.440362458E0,5.884483466E0,-7.147691377E0,2.113816406E0,9.496570828E0
7.450388458E0,5.992195026E0,-6.733403869E0,1.707750375E0,9.173959899E0
7.460415458E0,3.912058582E0,-6.160934560E0,8.878230983E-1,7.351839692E0
7.470441458E0,7.630214430E-1,-5.616883303E0,6.593887550E-1,5.706695479E0
7.480468458E0,-3.198680146E0,-5.984435186E0,7.974754304E-2,6.786116625E0
7.490494458E0,-7.310635151E0,-6.092771228E0,-1.628957390E0,9.655089318E0
7.500521458E0,-8.980985273E0,-5.263488699E0,-2.541706584E0,1.071553462E1
7.510547458E0,-5.877954465E0,-4.315228779E0,-1.396475312E0,7.424398387E0
7.520574458E0,-3.089873403E0,-3.428359947E0,4.228430079E-1,4.634626822E0
7.530600458E0,-2.048613958E0,-2.643671792E0,1.403488901E0,3.627065037E0
7.540627458E0,-9.965987049E-1,-1.872397735E0,1.294470634E0,2.484901704E0
7.550653458E0,-1.871598713E-1,-1.158929252E0,5.122266161E-1,1.280828613E0
7.560680458E0,4.042224035E-2,-7.561145657E-1,1.991390620E-1,7.829428843E-1
7.570706458E0,1.716469158E-1,-6.050698757E-1,8.685414661E-1,1.072350920E0
7.580733458E0,3.590140709E-1,-5.863283801E-1,1.930102737E0,2.048894494E0
7.590759458E0,-3.567112912E-1,-8.696967298E-1,2.581331702E0,2.747160116E0
7.600786458E0,-1.615109137E0,-1.405011662E0,2.318446149E0,3.155602611E0
7.610812458E0,-2.514228471E0,-1.566243955E0,1.283414134E0,3.228252898E0
7.620839458E0,-2.696685281E0,-1.353978918E0,2.828250702E-1,3.030735955E0
7.630865458E0,-2.528891534E0,-1.077792703E0,1.114320698E-1,2.751244556E0
7.640892458E0,-2.438670458E0,-5.321083188E-1,5.488939208E-1,2.555687266E0
7.650918458E0,-2.448809530E0,1.373452485E-1,8.586028075E-1,2.598601665E0
7.660945458E0,-2.336852015E0,8.797767448E-1,7.600140738E-1,2.610077748E0
7.670971458E0,-2.255362440E0,1.372087744E0,2.801132413E-1,2.654759489E0
7.680998458E0,-2.345465256E0,1.937837434E0,3.399781680E-1,3.061373277E0
7.691024458E0,-2.507668480E0,2.241624845E0,1.221390891E0,3.578418486E0
7.701050458E0,-2.716118794E0,2.134466432E0,2.461781870E0,4.241888522E0
7.711077458E0,-2.578404002E0,2.222966965E0,2.949816216E0,4.504571570E0
7.721103458E0,-2.823012036E0,2.524111435E0,2.716377826E0,4.660390969E0
7.731130458E0,-2.685738416E0,2.538309644E0,2.273321432E0,4.338686094E0
7.741156458E0,-2.202887042E0,1.995606755E0,1.518992021E0,3.338037507E0
7.751183458E0,-1.516167377E0,1.249735926E0,1.152439281E0,2.277876138E0
7.761209458E0,-9.284637322E-1,5.840760326E-1,1.214975399E0,1.636873524E0
7.771236458E0,-6.635733879E-1,1.546477443E-1,1.972461283E0,2.086827515E0
7.781262458E0,-3.213725471E-1,-1.632180083E-1,2.944876781E0,2.966853499E0
7.791289458E0,3.761596421E-1,-3.016976166E-1,3.128276746E0,3.165222414E0
7.801315458E0,1.062204830E0,-2.789379144E-1,2.749363431E0,2.960588579E0
7.811342458E0,1.722216094E0,-1.667023641E-1,2.387492995E0,2.948548924E0
7.821368458E0,2.308581312E0,-1.179857022E-1,2.236082854E0,3.216136631E0
7.831395458E0,2.491440410E0,-1.622847927E-1,2.360442314E0,3.435884105E0
7.841421458E0,2.085465596E0,-1.461564177E-1,2.449438690E0,3.220291656E0
7.851448458E0,1.383325508E0,1.437157899E-1,2.356373529E0,2.736190764E0
7.861474458E0,7.009705713E-1,5.280047429E-1,2.257567279E0,2.422139296E0
7.871501458E0,-5.043413535E-2,9.703121084E-1,2.092719359E0,2.307276209E0
7.881527458E0,-5.192130887E-1,1.432217002E0,1.846963224E0,2.394180637E0
7.891554458E0,-8.093417698E-1,1.929291728E0,1.584622339E0,2.624543509E0
7.901580458E0,-8.519782776E-1,2.441446424E0,1.237157688E0,2.866546140E0
7.911607458E0,-8.129785187E-1,2.687688462E0,9.802743021E-1,2.974145432E0
7.921633458E0,-6.786279948E-1,2.822930467E0,8.501573816E-1,3.025266922E0
7.931660458E0,-5.578508319E-1,2.808604204E0,1.033436017E0,3.044247876E0
7.941686458E0,-6.338069672E-1,2.578091176E0,1.317307812E0,2.963708024E0
7.951713458E0,-7.944569515E-1,2.187204224E0,1.484054030E0,2.759971111E0
7.961739458E0,-8.251509599E-1,1.729965994E0,1.510531685E0,2.440361124E0
7.971766458E0,-6.854876558E-1,1.342639997E0,1.373953006E0,2.039686827E0
7.981792458E0,-4.611201972E-1,9.286413413E-1,1.336459198E0,1.691487441E0
7.991819458E0,-2.875635807E-1,6.135571092E-1,1.018066319E0,1.222948964E0
8.001845458E0,-1.480752546E-1,2.885022050E-1,5.170280573E-1,6.103096061E-1
8.011872458E0,-1.727448767E-1,1.039436138E-1,4.453268677E-2,2.064660444E-1
8.021898458E0,-4.965515466E-1,2.881648207E-1,-6.068921605E-1,8.354163613E-1
8.031924458E0,-6.713773743E-1,6.588133889E-1,-9.059175995E-1,1.305936200E0
8.041951458E0,-8.468633527E-1,1.139470888E0,-1.090194355E0,1.789998652E0
8.051977458E0,-1.148996148E0,1.618318089E0,-1.488440027E0,2.480846488E0
8.062004458E0,-1.191195796E0,2.048167961E0,-1.657195495E0,2.891407327E0
8.072030458E0,-1.201910526E0,2.429105875E0,-1.630623554E0,3.162922294E0
8.082057458E0,-1.211585183E0,2.725664374E0,-1.212713696E0,3.219916061E0
8.092083458E0,-7.453132966E-1,2.922432536E0,3.371279427E-1,3.034758489E0
8.102110458E0,-3.847090754E-1,2.700107363E0,1.922452679E0,3.336825609E0
8.112136458E0,-4.909545187E-1,1.516559579E0,2.822684884E0,3.241687717E0
8.122163458E0,-1.146159956E0,-6.197218287E-1,3.294160208E0,3.542489134E0
8.132189458E0,-1.855878620E0,-2.865209929E0,3.639029864E0,4.989614388E0
8.142216458E0,-2.251130225E0,-4.690574416E0,2.248513011E0,5.667882003E0
8.152242458E0,-1.350591187E0,-5.671006885E0,-1.054981545E0,5.924306011E0
8.162269458E0,6.371048699E-1,-4.829501921E0,-2.867275751E0,5.652544706E0
8.172295458E0,1.881828125E0,-2.191427084E0,-9.740655823E-1,3.048349309E0
8.182322458E0,2.252976191E0,5.639031386E-1,2.412541298E0,3.348767532E0
8.192348458E0,1.777433544E0,2.322466110E0,4.041427352E0,4.988612420E0
8.202375458E0,4.189371409E-1,2.547733017E0,3.576237785E0,4.410887501E0
8.212401458E0,-1.027834604E0,1.764846974E0,2.687655133E0,3.375591641E0
8.222428458E0,-1.779015216E0,7.215814948E-1,1.408741601E0,2.381203034E0
8.232454458E0,-1.433703656E0,-3.643283129E-1,3.839446250E-1,1.528284911E0
8.242481458E0,-5.380070630E-1,-1.146643667E0,6.637818412E-1,1.429982389E0
8.252507458E0,-2.447761416E-2,-1.358262003E0,1.252068965E0,1.847471655E0
8.262534458E0,2.288756619E-1,-1.090837841E0,1.298518077E0,1.711274514E0
8.272560458E0,5.192877869E-1,-7.538774210E-1,1.090343093E0,1.423670971E0
8.282587458E0,5.729041231E-1,-5.533945227E-1,1.005509350E0,1.282775773E0
8.292613458E0,6.005806028E-1,-4.732139933E-1,1.020877075E0,1.275467972E0
8.302639458E0,7.270392128E-1,-4.489404470E-1,8.462324381E-1,1.202598387E0
8.312666458E0,8.818864933E-1,-2.989874321E-1,6.998789692E-1,1.164881043E0
8.322693458E0,1.088417240E0,1.344701725E-1,8.683851993E-1,1.398866387E0
8.332719458E0,1.205064222E0,5.912049580E-1,6.265607321E-1,1.481310714E0
8.342745458E0,1.176941819E0,1.036834127E0,1.207356385E-1,1.573147846E0
8.352772458E0,1.175238964E0,1.265244496E0,-1.339649548E-1,1.732044130E0
8.362798458E0,9.835935471E-1,1.203811895E0,-1.436795554E-1,1.561173648E0
8.372825458E0,8.950132001E-1,9.730848581E-1,-1.972464645E-1,1.336730690E0
8.382851458E0,7.442303923E-1,7.565659708E-1,-5.492576176E-1,1.194970659E0
8.392878458E0,5.649201156E-1,4.939686853E-1,-6.543870467E-1,9.956717360E-1
8.402904458E0,4.273989391E-1,8.832803965E-2,-8.261495181E-1,9.343418657E-1
8.412931458E0,1.060001526E-1,7.158044457E-2,-1.304824299E0,1.311078275E0
8.422957458E0,-2.725561170E-1,1.910747284E-1,-2.026547881E0,2.053702195E0
8.432984458E0,-5.532764089E-1,3.699100649E-1,-2.311501996E0,2.405408431E0
8.443010458E0,-5.058484002E-1,5.246425939E-1,-2.239801683E0,2.355386176E0
8.453037458E0,-1.635705223E-1,5.452294707E-1,-2.022385833E0,2.100970002E0
8.463063458E0,3.994488828E-1,3.748351747E-1,-1.531276436E0,1.626305120E0
8.473090458E0,7.385104267E-1,2.171217352E-1,-1.396833892E0,1.594893232E0
8.483116458E0,1.097389208E0,3.183691978E-1,-1.368032847E0,1.782452212E0
8.493143458E0,1.711092936E0,3.125477099E-1,-1.053160722E0,2.033389440E0
8.503169458E0,1.949178839E0,2.227262914E-1,-5.032951404E-1,2.025391603E0
8.513196458E0,2.072484192E0,1.796919537E-1,-3.353892732E-1,2.107122657E0
8.523222458E0,2.065884732E0,2.366344786E-1,-6.150401093E-1,2.168444129E0
8.533249458E0,1.688860214E0,5.063022172E-1,-1.010742096E0,2.032286973E0
8.543275458E0,1.562416368E0,6.414740556E-1,-1.323669875E0,2.145864816E0
8.553302458E0,1.337167442E0,7.427525085E-1,-1.320095619E0,2.020482739E0
8.563328458E0,9.868132433E-1,7.849308139E-1,-1.115268093E0,1.683371521E0
8.573355458E0,7.288285339E-1,8.181494308E-1,-9.064951582E-1,1.422073484E0
8.583381458E0,3.056358990E-1,7.322602648E-1,-1.137722863E0,1.387094701E0
8.593408458E0,-2.128423773E-1,6.724713153E-1,-1.860330251E0,1.989559799E0
8.603434458E0,-4.887482911E-1,7.062921953E-1,-2.242462313E0,2.401324797E0
8.613461458E0,-5.961847392E-1,6.197586662E-1,-2.128107001E0,2.295294415E0
8.623487458E0,-5.776384675E-1,4.718165088E-1,-1.640532246E0,1.802116274E0
8.633514458E0,-2.962454534E-1,3.755204684E-1,-1.368340556E0,1.449528499E0
8.643540458E0,3.902256310E-2,2.662541342E-1,-1.003866355E0,1.039308272E0
8.653567458E0,2.737539192E-1,3.027851987E-1,-9.195945293E-1,1.006118374E0
8.663593458E0,7.500561194E-1,5.150169075E-1,-1.011929666E0,1.360818961E0
8.673620458E0,1.157193652E0,6.889540315E-1,-1.117119906E0,1.749774754E0
8.683646458E0,1.677553745E0,4.721866375E-1,-1.132434056E0,2.078353599E0
8.693672458E0,2.051293298E0,1.885025382E-1,-1.031488017E0,2.303758870E0
8.703699458E0,2.042414009E0,-2.793331861E-2,-1.520206195E0,2.546225074E0
8.713725458E0,1.953334894E0,-3.042668831E-1,-2.183031651E0,2.945118459E0
8.723752458E0,1.561626263E0,-5.509217352E-1,-2.576668256E0,3.062908853E0
8.733778458E0,1.278489171E0,-9.743940496E-1,-2.645004665E0,3.095162032E0
8.743805458E0,1.242654948E0,-1.264964415E0,-2.758164075E0,3.278993040E0
8.753831458E0,1.495384326E0,-1.556480275E0,-3.234333251E0,3.888407992E0
8.763858458E0,2.253922709E0,-2.236266457E0,-3.105753856E0,4.441481989E0
8.773884458E0,3.452846332E0,-3.301398768E0,-2.296886880E0,5.300667030E0
8.783911458E0,4.767917292E0,-4.681334061E0,-1.040967231E0,6.762509643E0
8.793937458E0,5.998100713E0,-5.974290267E0,6.211348084E-1,8.488531369E0
8.803964458E0,6.720972104E0,-6.544826487E0,1.699663676E0,9.533890936E0
8.813990458E0,6.138080717E0,-6.399324957E0,1.551692867E0,9.001952319E0
8.824017458E0,4.229923750E0,-6.669182730E0,6.466041103E-1,7.923910026E0
8.834043458E0,1.335245754E0,-6.626265922E0,-1.694046548E-1,6.761581119E0
8.844070458E0,-2.837209368E0,-6.441350065E0,-1.080472189E0,7.120966775E0
8.854096458E0,-7.315006530E0,-6.499745623E0,-1.673418448E0,9.927554734E0
8.864123458E0,-8.792155876E0,-5.830180959E0,-1.151386344E0,1.061219607E1
8.874149458E0,-6.759672486E0,-4.585555499E0,-2.492782053E-1,8.172064058E0
8.884176458E0,-4.463111880E0,-3.378057520E0,-2.755852671E-1,5.604158054E0
8.894202458E0,-3.601806489E0,-2.461999387E0,-3.052942389E-1,4.373517525E0
8.904229458E0,-2.115862785E0,-2.039361470E0,4.558065400E-1,2.973824159E0
8.914255458E0,-1.085000566E-1,-1.522285758E0,8.867939883E-1,1.765086334E0
8.924282458E0,1.393493232E0,-1.074790158E0,9.166966492E-1,1.984270651E0
8.934308458E0,1.940737507E0,-8.421487427E-1,8.166208224E-1,2.267718268E0
8.944335458E0,1.639103332E0,-8.264834672E-1,4.430375366E-1,1.888390032E0
8.954361458E0,6.683858657E-1,-1.080965987E0,6.039698683E-1,1.407127120E0
8.964388458E0,-2.468326805E-1,-1.577146089E0,9.109089290E-1,1.837953001E0
8.974414458E0,-9.719549567E-1,-1.682259731E0,1.137082154E0,2.251144168E0
8.984441458E0,-1.466858977E0,-1.234082345E0,1.290048970E0,2.310597507E0
8.994467458E0,-1.887971502E0,-6.375564212E-1,1.442581484E0,2.460072340E0
9.004494458E0,-2.193203760E0,1.049803251E-1,1.498129156E0,2.658111090E0
9.014520458E0,-2.199622249E0,8.624034977E-1,1.821525205E0,2.983292125E0
9.024547458E0,-2.045320075E0,1.486290883E0,2.304647305E0,3.421080823E0
9.034573458E0,-2.499113418E0,2.096186466E0,2.524545883E0,4.124669380E0
9.044600458E0,-3.072837541E0,2.490726757E0,2.080949206E0,4.469496608E0
9.054626458E0,-3.240714318E0,2.938923438E0,1.734701069E0,4.706239270E0
9.064652458E0,-3.328585690E0,3.211052855E0,1.581469520E0,4.887881849E0
9.074679458E0,-3.357412171E0,3.255123904E0,1.363160800E0,4.870960427E0
9.084705458E0,-3.398038333E0,2.924752711E0,2.676802335E-1,4.491380149E0
9.094732458E0,-3.373135918E0,2.125403248E0,-1.756125852E0,4.356531062E0
9.104758458E0,-3.614470389E0,1.392132000E0,-1.622427512E0,4.199368849E0
9.114785458E0,-3.771188632E0,1.060502486E0,6.765006316E-1,3.975447437E0
9.124811458E0,-3.366516286E0,1.062082989E0,2.694915036E0,4.441173181E0
9.134838458E0,-2.396240868E0,1.224003500E0,2.990298829E0,4.022690885E0
9.144864458E0,-9.170887781E-1,1.004696075E0,8.948005807E-1,1.628230361E0
9.154891458E0,1.039121850E-1,5.233111829E-1,-1.753229141E-1,5.615963502E-1
9.164917458E0,4.739478920E-1,1.408354515E-1,8.668942324E-1,9.979813820E-1
9.174944458E0,9.076670864E-1,9.172527194E-3,2.156691699E0,2.339927939E0
9.184970458E0,2.141875585E0,-2.777199394E-1,3.042411554E0,3.731089312E0
9.194997458E0,2.894741877E0,-5.596352559E-1,3.006504972E0,4.210913713E0
9.205023458E0,3.341040552E0,-9.916719872E-1,2.457357867E0,4.264337344E0
9.215050458E0,3.154992090E0,-1.484432053E0,2.095793094E0,4.068152197E0
9.225076458E0,2.616140177E0,-1.516722132E0,1.976579623E0,3.612686322E0
9.235103458E0,2.086350279E0,-1.010796475E0,1.949256461E0,3.028888865E0
9.245129458E0,1.234088193E0,-4.268292010E-2,1.794867310E0,2.178610603E0
9.255156458E0,4.677126405E-1,9.107055920E-1,1.961624784E0,2.212715884E0
9.265182458E0,4.546634093E-2,1.769654555E0,2.204621618E0,2.827384111E0
9.275209458E0,4.630804762E-2,2.494523939E0,2.124753915E0,3.277098307E0
9.285235250E0,1.247101463E-1,3.013488886E0,2.065824798E0,3.655721541E0
9.295262250E0,-1.055890203E-2,3.305376629E0,2.244721531E0,3.995547635E0
9.305288250E0,-4.591235192E-1,3.315685270E0,2.557993418E0,4.212824889E0
9.315315250E0,-1.029969642E0,2.990873026E0,2.423340228E0,3.984813268E0
9.325341250E0,-1.470865343E0,2.444415055E0,1.887368361E0,3.420638705E0
9.335368250E0,-1.529971484E0,1.847953450E0,1.320339009E0,2.738437473E0
9.345394250E0,-1.072638090E0,1.474762512E0,5.610681161E-1,1.907950306E0
9.355421250E0,-4.800504117E-1,1.209883643E0,-1.085734391E-1,1.306160411E0
9.365447250E0,1.287246984E-1,9.990751469E-1,-9.631279269E-1,1.393677366E0
9.375474250E0,2.867597347E-1,8.661322671E-1,-2.019935850E0,2.216428904E0
9.385500250E0,3.219607039E-1,8.020666641E-1,-2.754139144E0,2.886564057E0
9.395527250E0,8.860782892E-2,8.604429263E-1,-2.754851335E0,2.887458962E0
9.405553250E0,-2.923192674E-1,1.049131991E0,-2.416191861E0,2.650304057E0
9.415580250E0,-4.450258823E-1,1.339384267E0,-2.003881735E0,2.451028408E0
9.425606250E0,-2.003177145E-1,1.704673862E0,-1.317832892E0,2.163960188E0
9.435633250E0,9.290728658E-2,1.965229885E0,-3.958923139E-1,2.006860979E0
9.445659250E0,2.812825017E-1,1.950262182E0,2.031048045E0,2.829805397E0
9.455686250E0,1.149126980E-1,1.630123617E0,5.102796103E0,5.358081373E0
9.465712250E0,-6.767909458E-1,9.363304299E-1,5.887657335E0,5.999939129E0
9.475739250E0,-1.748833351E0,-3.934427691E-1,4.620480626E0,4.956012159E0
9.485765250E0,-2.562600732E0,-1.966943704E0,3.631401587E0,4.860336154E0
9.495792250E0,-2.344682021E0,-3.187009689E0,2.564518619E0,4.715010104E0
9.505818250E0,-6.037970831E-1,-3.954721037E0,-7.632005140E-2,4.001276565E0
9.515845250E0,1.384931446E0,-4.135253820E0,-1.559003056E0,4.631290295E0
9.525871250E0,1.343906504E0,-3.267602447E0,2.847770901E-1,3.544630930E0
9.535897250E0,4.683595618E-1,-1.538679596E0,2.405196025E0,2.893417270E0
9.545924250E0,-2.754425950E-2,2.756342375E-1,2.909437684E0,2.922594833E0
9.555950250E0,-2.368721679E-2,1.254506085E0,2.344472837E0,2.659116298E0
9.565977250E0,1.087406695E-2,1.180779712E0,1.585568419E0,1.976963880E0
9.576003250E0,-6.244322725E-1,6.652394789E-1,1.002240976E0,1.355339884E0
9.586030250E0,-9.876496144E-1,3.202286124E-1,8.111702672E-1,1.317571754E0
9.596056250E0,-8.707166304E-1,6.998532414E-3,1.038794113E0,1.355466576E0
9.606083250E0,-5.535127095E-1,-3.658444959E-1,1.314238901E0,1.472223626E0
9.616109250E0,-1.685250143E-1,-6.294960344E-1,1.518504363E0,1.652428951E0
9.626136250E0,2.578472999E-1,-6.287405741E-1,1.734888911E0,1.863233607E0
9.636162250E0,7.492045455E-1,-3.779125643E-1,1.662499065E0,1.862264347E0
9.646189250E0,1.090079165E0,-1.119958144E-1,1.271002250E0,1.678172329E0
9.656215250E0,1.306182900E0,1.725460714E-1,6.558295548E-1,1.471733101E0
9.666242250E0,1.484380890E0,4.981915444E-1,-2.002507456E-1,1.578506193E0
9.676268250E0,1.583366649E0,7.331022638E-1,-6.341246903E-1,1.856502895E0
9.686295250E0,1.580388370E0,9.691906124E-1,-3.095714772E-1,1.879572383E0
9.696321250E0,1.571287471E0,1.175104405E0,1.655931473E-1,1.969069773E0
9.706348250E0,1.434332232E0,1.168195335E0,2.963889295E-1,1.873455548E0
9.716374250E0,1.175933540E0,1.150598139E0,-1.057942941E-1,1.648601893E0
9.726401250E0,9.555725934E-1,1.047762573E0,-7.685527629E-1,1.612947222E0
9.736427250E0,4.061305692E-1,8.875178736E-1,-1.426690214E0,1.728604923E0
9.746454250E0,-2.630842124E-1,6.548852295E-1,-1.852012587E0,1.981927998E0
9.756480250E0,-6.609068383E-1,3.893988347E-1,-1.875223694E0,2.026053604E0
9.766507250E0,-6.343900077E-1,2.842278904E-1,-1.607538162E0,1.751403756E0
9.776533250E0,-1.551355483E-1,2.492714810E-1,-1.344419305E0,1.376105583E0
9.786560250E0,4.690200048E-1,1.776115143E-1,-1.187767720E0,1.289309028E0
9.796586250E0,7.528684840E-1,2.355012882E-1,-1.078054731E0,1.335841987E0
9.806613250E0,1.236586854E0,2.726790547E-1,-9.753161556E-1,1.598356192E0
9.816639250E0,1.582980733E0,2.534241736E-1,-7.986495513E-1,1.791059161E0
9.826666250E0,1.228136312E0,4.336072934E-1,-7.146921591E-1,1.485637563E0
9.836692250E0,6.211513998E-1,9.019903171E-1,-1.434860674E0,1.805059763E0
9.846719250E0,6.179618899E-2,1.234222679E0,-2.170906426E0,2.497991013E0
9.856745250E0,-1.661620083E-1,1.232043421E0,-1.754873232E0,2.150609417E0
9.866772250E0,-1.752726646E-1,8.706258523E-1,-1.363457985E0,1.627183935E0
9.876798250E0,8.681880020E-2,4.414776456E-1,-1.250218322E0,1.328715872E0
9.886825250E0,4.578989661E-1,-7.969754934E-4,-1.299628756E0,1.377935775E0
9.896851250E0,7.580738215E-1,-1.636197120E-1,-1.434178450E0,1.630434039E0
9.906878250E0,1.046377660E0,-8.538747489E-2,-1.435627098E0,1.778545021E0
9.916904250E0,1.032058633E0,3.140071750E-2,-1.286116864E0,1.649311254E0
9.926931250E0,8.087631878E-1,4.037250978E-1,-1.227572055E0,1.524475320E0
9.936957250E0,5.598513106E-1,6.966782033E-1,-1.178243190E0,1.478868156E0
9.946984250E0,8.413587838E-2,9.000063568E-1,-1.496619405E0,1.748416406E0
9.957010250E0,-4.267356455E-2,9.934910560E-1,-1.664732117E0,1.939117978E0
9.967037250E0,4.218999982E-2,7.143321168E-1,-1.551191176E0,1.708286988E0
9.977063250E0,2.316033880E-1,1.548687690E-1,-1.527113219E0,1.552320601E0
9.987090250E0,2.258522129E-1,-4.128578639E-1,-1.603932184E0,1.671543983E0
9.997116250E0,3.890854239E-1,-5.350506377E-1,-1.566713487E0,1.700663930E0
1.000714325E1,5.571975517E-1,-7.322742981E-1,-2.202115501E0,2.386630981E0
1.001716925E1,8.837756556E-1,-8.209806526E-1,-2.630428433E0,2.893824871E0
1.002719625E1,1.571153278E0,-1.092902493E0,-2.815485500E0,3.404396728E0
1.003722225E1,2.186322172E0,-1.257876420E0,-3.123011913E0,4.014406698E0
1.004724925E1,2.466197395E0,-1.077200965E0,-3.358222595E0,4.303504445E0
1.005727525E1,2.669957950E0,-1.003334844E0,-3.399608603E0,4.437645199E0
1.006730125E1,3.179780776E0,-1.298685892E0,-3.428439176E0,4.853018238E0
1.007732825E1,4.230456432E0,-2.147601618E0,-2.575513138E0,5.398353661E0
1.008735425E1,5.237935781E0,-3.482534400E0,-1.281374041E0,6.419185036E0
1.009738125E1,5.450242335E0,-5.304855995E0,-9.504561335E-2,7.606291626E0
1.010740725E1,5.545107561E0,-6.767404259E0,1.158678699E0,8.825446991E0
1.011743425E1,5.272112172E0,-7.369547018E0,1.375590519E0,9.165022602E0
1.012746025E1,3.874771180E0,-7.712235371E0,3.978422141E-1,8.640063920E0
1.013748725E1,1.571404854E0,-7.263641664E0,-3.502251211E-1,7.439923459E0
1.014751325E1,-1.624409864E0,-6.686730224E0,-7.462544060E-1,6.921557927E0
1.015754025E1,-5.377298904E0,-6.548298563E0,-6.379008222E-1,8.497203954E0
1.016756625E1,-8.124650016E0,-5.381647478E0,-1.354256660E0,9.839008007E0
1.017759325E1,-7.443223105E0,-3.680449201E0,-1.504926105E0,8.438724969E0
1.018761925E1,-4.318963396E0,-2.526375477E0,-2.669043446E-1,5.010714100E0
1.019764625E1,-2.696589971E0,-2.177018375E0,1.002446651E0,3.607756334E0
1.020767225E1,-1.660645059E0,-2.165460768E0,1.672273417E0,3.200540694E0
1.021769925E1,-5.445384760E-1,-1.753768255E0,1.600248292E0,2.435779103E0
1.022772525E1,-2.375459133E-1,-1.322256603E0,1.454728636E0,1.980158072E0
1.023775225E1,-3.740263586E-1,-1.058924323E0,1.626190634E0,1.976287533E0
1.024777825E1,-5.737855178E-1,-8.838434833E-1,2.010403719E0,2.269830883E0
1.025780525E1,-1.116418532E0,-8.938539165E-1,2.175662990E0,2.603627203E0
1.026783125E1,-1.629852160E0,-9.706430608E-1,1.790781130E0,2.608728247E0
1.027785825E1,-1.775319045E0,-1.112243913E0,8.822056051E-1,2.273132412E0
1.028788496E1,-1.853207466E0,-1.004607782E0,3.389994172E-1,2.135072671E0
1.029791196E1,-1.872879253E0,-7.827310914E-1,3.321224338E-1,2.056854387E0
1.030793796E1,-1.613944956E0,-4.372477698E-1,5.987104440E-1,1.776079426E0
1.031796496E1,-1.593308963E0,1.934732562E-1,6.922237945E-1,1.747924235E0
1.032799096E1,-1.496336984E0,8.544062608E-1,6.115930295E-1,1.828409271E0
1.033801796E1,-1.284204532E0,1.416117278E0,5.827475452E-1,1.998540499E0
1.034804396E1,-1.566753833E0,1.708413157E0,7.072967470E-1,2.423563858E0
1.035807096E1,-2.256110737E0,1.890825235E0,1.175268127E0,3.169623148E0
1.036809696E1,-2.707559640E0,1.899279140E0,2.102313909E0,3.918911102E0
1.037812396E1,-2.672578380E0,2.020482565E0,2.530187277E0,4.198436929E0
1.038814996E1,-2.743627020E0,2.229769616E0,2.752787268E0,4.480758809E0
1.039817696E1,-2.754559852E0,2.414247515E0,2.676679909E0,4.536607364E0
1.040820296E1,-2.492009636E0,2.453112788E0,2.594065769E0,4.353969636E0
1.041822996E1,-1.994247277E0,2.040974132E0,2.064122089E0,3.521817373E0
1.042825596E1,-1.498319483E0,1.433416266E0,1.212215659E0,2.401897222E0
1.043828296E1,-9.635308000E-1,1.035136095E0,1.294874239E0,1.917445601E0
1.044830896E1,-5.915459968E-1,7.890542704E-1,2.350944243E0,2.549406233E0
1.045833596E1,-1.939280965E-1,5.848858720E-1,3.364558053E0,3.420519037E0
1.046836196E1,4.566634494E-1,3.442676854E-1,3.722030506E0,3.765710136E0
1.047838896E1,1.218540592E0,1.303701049E-1,3.457391372E0,3.668159299E0
1.048841496E1,1.876909447E0,-1.862151074E-1,2.950008005E0,3.501430046E0
1.049844196E1,2.109696457E0,-4.582275796E-1,2.565678121E0,3.353132249E0
1.050846796E1,2.070669947E0,-6.609142935E-1,2.375485738E0,3.219846926E0
1.051849496E1,1.855746181E0,-6.342767179E-1,2.285356171E0,3.011470350E0
1.052852096E1,1.677972260E0,-4.349322724E-1,1.779055123E0,2.483907027E0
1.053854796E1,8.253509346E-1,-6.454098165E-2,1.040939749E0,1.330009498E0
1.054857396E1,-3.810848249E-1,5.693352020E-1,3.424600187E-1,7.659289004E-1
1.055860096E1,-1.157313520E0,1.426844580E0,1.110339475E-1,1.840540295E0
1.056862696E1,-1.830291204E0,2.340414723E0,4.604273021E-1,3.006576171E0
1.057865396E1,-2.338701197E0,2.910195483E0,1.146683721E0,3.905591452E0
1.058867996E1,-2.341472777E0,3.131523120E0,1.466859416E0,4.176195441E0
1.059870696E1,-2.025472578E0,3.002073367E0,1.683017822E0,3.993436197E0
1.060873296E1,-1.359030766E0,2.542951748E0,1.830847128E0,3.415489632E0
1.061875996E1,-2.342195785E-1,1.852607249E0,1.303442895E0,2.277273767E0
1.062878596E1,6.161000633E-1,1.217700201E0,2.932059976E-1,1.395830515E0
1.063881296E1,1.154649090E0,8.963629568E-1,-9.483248234E-1,1.742412420E0
1.064883896E1,1.764808675E0,8.155860114E-1,-1.606574833E0,2.522065204E0
1.065886596E1,2.069086814E0,1.160143719E0,-1.729858697E0,2.935892505E0
1.066889196E1,2.080627609E0,1.726079934E0,-1.421582378E0,3.054383677E0
1.067891896E1,1.960835995E0,2.003237371E0,-8.172568533E-1,2.919888102E0
1.068894496E1,2.026764082E0,1.970088336E0,-1.535358962E-1,2.830652570E0
1.069897196E1,1.940095336E0,1.867040516E0,7.169645333E-1,2.786368307E0
1.070899796E1,1.507215875E0,1.985769984E0,1.436304206E0,2.877143009E0
1.071902496E1,8.808391839E-1,2.201602993E0,2.016302098E0,3.112620689E0
1.072905096E1,1.173156112E-2,2.309843726E0,2.321481439E0,3.274872782E0
1.073907796E1,-7.683066682E-1,2.413271615E0,2.467430280E0,3.535871493E0
1.074910396E1,-1.439759033E0,2.448350231E0,2.355183913E0,3.689744732E0
1.075913096E1,-2.116679787E0,2.054687022E0,1.802821716E0,3.457200923E0
1.076915696E1,-2.962261722E0,7.524711657E-1,8.742737840E-1,3.178924664E0
1.077918296E1,-3.645677564E0,-1.834779088E0,-4.903099363E-1,4.110691309E0
1.078920996E1,-3.793695442E0,-5.373055580E0,-2.532319756E0,7.048013530E0
1.079923596E1,-3.514729461E0,-8.133060651E0,-3.226311164E0,9.429161281E0
1.080926296E1,-3.144981364E0,-7.842150562E0,-1.450749021E0,8.572917003E0
1.081928896E1,-2.557233573E0,-3.684925244E0,1.068657890E0,4.610872725E0
1.082931596E1,-1.645843856E0,8.316839808E-1,3.137872320E0,3.639607525E0
1.083934196E1,-6.558669770E-1,3.450698649E0,4.393532645E0,5.624998823E0
1.084936896E1,-3.793271519E-2,4.303020378E0,4.024415462E0,5.891803041E0
1.085939496E1,1.000854747E-1,3.667755480E0,3.208532120E0,4.874128202E0
1.086942196E1,8.561756283E-1,1.971946582E0,3.566220335E0,4.164077029E0
1.087944796E1,2.035817326E0,-2.237635875E-1,3.942038426E0,4.442329263E0
1.088947496E1,2.800219589E0,-1.890573220E0,3.333701419E0,4.746478905E0
1.089950096E1,3.098055412E0,-2.688318207E0,2.212721035E0,4.660594007E0
1.090952796E1,3.099214915E0,-2.803436435E0,9.695361829E-1,4.290033723E0
1.091955396E1,2.467361283E0,-2.474133528E0,9.476348519E-2,3.495452551E0
1.092958096E1,1.237511445E0,-1.858740978E0,-3.127875920E-1,2.254814555E0
1.093960696E1,2.108973742E-1,-1.074063933E0,-4.211199796E-1,1.172788588E0
1.094963396E1,-1.567251869E-1,-3.734985012E-1,-3.734978434E-1,5.509669261E-1
1.095965996E1,-2.881768806E-1,2.395902461E-1,-2.984968507E-1,4.791135256E-1
1.096968696E1,-8.421738857E-1,7.659694630E-1,-1.970009545E-1,1.155324824E0
1.097971296E1,-8.911787423E-1,1.101375693E0,-2.813656783E-1,1.444435742E0
1.098973996E1,-5.299563242E-1,1.110335966E0,-1.482023585E-1,1.239218949E0
1.099976596E1,1.607020245E-1,8.204204893E-1,3.569198906E-1,9.090141519E-1
1.100979296E1,9.624774972E-1,4.501595914E-1,9.321303749E-1,1.413461576E0
1.101981896E1,1.369682346E0,1.623233843E-1,1.280923805E0,1.882324203E0
1.102984596E1,1.437598194E0,2.046455312E-1,1.301625288E0,1.950076089E0
1.103987196E1,1.301941622E0,6.387492532E-1,1.080710464E0,1.808587211E0
1.104989896E1,6.837969334E-1,1.247454928E0,6.920086169E-1,1.581960166E0
1.105992496E1,1.320299833E-1,1.443952948E0,-2.203267403E-3,1.449978237E0
1.106995196E1,-4.441512119E-1,1.214529841E0,-8.170157287E-1,1.529662621E0
1.107997796E1,-1.436180829E0,1.049445986E0,-1.818279415E0,2.543637609E0
1.109000496E1,-2.048875767E0,9.061073416E-1,-2.506021319E0,3.361408228E0
1.110003096E1,-1.858963903E0,7.907400227E-1,-2.178584844E0,2.971068579E0
1.111005796E1,-1.384130085E0,7.102998769E-1,-1.664830935E0,2.278596948E0
1.112008396E1,-6.367318907E-1,4.654284257E-1,-1.540014077E0,1.730229602E0
1.113011096E1,1.473301732E-1,3.510317445E-2,-1.552334014E0,1.559704877E0
1.114013696E1,9.157544435E-1,-2.330448729E-1,-1.398323616E0,1.687668525E0
1.115016396E1,1.435106988E0,-2.262352055E-1,-1.068445490E0,1.803410713E0
1.116018996E1,1.717861234E0,-1.618070751E-1,-9.304827757E-1,1.960363983E0
1.117021696E1,1.538271314E0,-9.373671412E-3,-1.073009096E0,1.875557256E0
1.118024296E1,1.366735642E0,3.015455890E-1,-1.550982138E0,2.089124613E0
1.119026996E1,1.005192942E0,6.168414903E-1,-2.020657396E0,2.339650100E0
1.120029596E1,3.986878677E-1,8.253403366E-1,-2.362679897E0,2.534244460E0
1.121032296E1,1.665205888E-1,7.480243582E-1,-2.215837016E0,2.344611531E0
1.122034896E1,3.549117375E-1,2.181204396E-1,-1.746536857E0,1.795530523E0
1.123037596E1,6.966116913E-1,-2.064453042E-1,-1.605304087E0,1.762069443E0
1.124040196E1,9.853865227E-1,-2.162791514E-1,-1.962075020E0,2.206241522E0
1.125042896E1,1.205809815E0,5.481589258E-2,-2.200382679E0,2.509714332E0
1.126045496E1,1.132869089E0,3.745755583E-1,-1.922634088E0,2.262790547E0
1.127048196E1,1.064123228E0,3.750047439E-1,-1.455711407E0,1.841760707E0
1.128050796E1,1.064206113E0,3.504809368E-1,-1.390050537E0,1.785388482E0
1.129053521E1,9.897698148E-1,5.063302839E-1,-1.692302470E0,2.024821546E0
1.130056121E1,7.068182985E-1,7.417017639E-1,-1.892887548E0,2.152379354E0
1.131058821E1,4.085923932E-1,9.618792540E-1,-2.154537585E0,2.394617224E0
1.132061421E1,5.324086464E-1,1.146137883E0,-2.026384306E0,2.388163388E0
1.133064121E1,1.050900043E0,1.041659834E0,-1.581651369E0,2.165887153E0
1.134066721E1,1.419437035E0,7.752086484E-1,-1.202734545E0,2.015519866E0
1.135069421E1,1.353789175E0,4.842599684E-1,-1.353916060E0,1.974928238E0
1.136072021E1,1.237461744E0,-9.308182597E-2,-1.552365589E0,1.987414078E0
1.137074721E1,1.217855883E0,-5.671115059E-1,-8.281405681E-1,1.578165141E0
1.138077321E1,7.575275454E-1,-5.276965946E-1,-1.362460889E0,1.645785937E0
1.139080021E1,2.946309641E-2,-3.720396209E-1,-2.712110528E0,2.737667816E0
1.140082621E1,-6.880334605E-1,-4.351971513E-1,-3.269232650E0,3.369075352E0
1.141085321E1,-8.028064831E-1,-7.828322482E-1,-3.618170215E0,3.787938790E0
1.142087921E1,-7.474349588E-3,-1.307778313E0,-3.818606920E0,4.036347209E0
1.143090621E1,1.840003576E0,-2.241043632E0,-3.072287902E0,4.224552364E0
1.144093221E1,4.234069134E0,-3.958926939E0,-1.416195631E0,5.967080861E0
1.145095921E1,5.524967412E0,-5.650058066E0,6.421149105E-1,7.928476058E0
1.146098521E1,6.447094955E0,-6.474054712E0,1.858217360E0,9.323700420E0
1.147101221E1,7.189010727E0,-6.612851824E0,2.030759046E0,9.976756326E0
1.148103821E1,6.549857431E0,-7.275194008E0,1.649937200E0,9.927304417E0
1.149106521E1,4.195375184E0,-7.652751061E0,1.419958899E0,8.842061695E0
1.150109121E1,1.465336655E0,-6.873545256E0,1.275093839E0,7.142737584E0
1.151111821E1,-2.260282141E0,-6.872397448E0,2.442440450E-2,7.234591805E0
1.152114421E1,-7.204349143E0,-6.823824043E0,-1.961466617E0,1.011506661E1
1.153117121E1,-9.572198417E0,-5.345830359E0,-2.560915272E0,1.125891521E1
1.154119721E1,-7.531995533E0,-3.490211794E0,-1.329604361E0,8.407162591E0
1.155122421E1,-4.326579979E0,-1.997658543E0,7.519653815E-1,4.824457058E0
1.156125021E1,-3.307266449E0,-1.137860565E0,1.692542498E0,3.885542194E0
1.157127721E1,-3.293361186E0,-8.712637836E-1,1.648114623E0,3.784390346E0
1.158130321E1,-2.583657725E0,-4.805674517E-1,1.175018597E0,2.878697799E0
1.159133021E1,-1.388956085E0,-2.885431355E-1,1.093887749E0,1.791381186E0
1.160135621E1,-8.006555848E-1,-7.300897783E-1,1.470707468E0,1.826762411E0
1.161138321E1,-8.602891445E-1,-1.499071142E0,1.638198183E0,2.381387198E0
1.162140921E1,-8.820375708E-1,-1.934914411E0,1.178278273E0,2.431095173E0
1.163143621E1,-1.359805522E0,-1.792317778E0,8.849146201E-1,2.417549991E0
1.164146221E1,-1.747631163E0,-1.268744055E0,7.634604228E-1,2.290589002E0
1.165148921E1,-1.692427600E0,-2.794676721E-1,8.041915423E-1,1.894501887E0
1.166151521E1,-1.375141599E0,5.914704216E-1,7.046011806E-1,1.654483152E0
1.167154221E1,-1.294517412E0,1.087244727E0,5.324813712E-1,1.772403125E0
1.168156821E1,-1.468323266E0,1.174434314E0,1.844434376E-1,1.889256085E0
1.169159521E1,-2.162646796E0,1.613987056E0,-2.936003923E-2,2.698676971E0
1.170162121E1,-2.520186784E0,2.029503064E0,3.159027692E-1,3.251156513E0
1.171164821E1,-2.688754117E0,2.113991237E0,1.587808925E0,3.770874545E0
1.172167421E1,-2.334014361E0,2.337742546E0,2.440978646E0,4.107437157E0
1.173170121E1,-2.489740039E0,2.774069964E0,2.532920265E0,4.506656709E0
1.174172721E1,-2.657348430E0,2.856114001E0,2.467251356E0,4.615865803E0
1.175175421E1,-2.653992712E0,2.488500137E0,2.703766551E0,4.532842796E0
1.176178021E1,-2.363088179E0,1.764266930E0,2.171486470E0,3.662263922E0
1.177180721E1,-2.144548786E0,8.583174634E-1,9.193299428E-1,2.486154844E0
1.178183321E1,-1.989538515E0,2.843150139E-1,9.018628478E-1,2.202828891E0
1.179186021E1,-1.857117060E0,-1.737570298E-1,2.081429847E0,2.794892751E0
1.180188621E1,-1.228795585E0,-3.466293758E-1,2.907589379E0,3.175557669E0
1.181191321E1,-1.393859267E-1,-3.297063643E-1,2.838939851E0,2.861418215E0
1.182193921E1,1.000895093E0,-4.205861288E-1,2.457035393E0,2.686206731E0
1.183196621E1,1.873288997E0,-6.373201936E-1,2.088120232E0,2.876740308E0
1.184199221E1,2.479706217E0,-7.461380464E-1,1.949274588E0,3.241193658E0
1.185201921E1,3.114890423E0,-7.609706783E-1,1.780988505E0,3.667906593E0
1.186204521E1,3.233416116E0,-5.949957079E-1,1.613061442E0,3.662098699E0
1.187207221E1,2.743128545E0,-3.731751502E-1,1.810630088E0,3.307929144E0
1.188209821E1,2.033709551E0,5.252202988E-2,1.817536527E0,2.728034481E0
1.189212421E1,1.092807037E0,6.062533522E-1,1.676494961E0,2.091029818E0
1.190215121E1,3.849846985E-1,1.209970767E0,1.746861231E0,2.159575568E0
1.191217821E1,5.383005202E-2,1.781484057E0,1.873475962E0,2.585825844E0
1.192220421E1,-2.432256062E-1,2.322207663E0,1.646828235E0,2.857245240E0
1.193223121E1,-4.815596511E-1,2.760868705E0,1.177654083E0,3.039928427E0
1.194225721E1,-5.039432312E-1,2.787549550E0,7.973710576E-1,2.942820395E0
1.195228421E1,-7.272113402E-1,3.001969287E0,8.807280868E-2,3.090050607E0
1.196231021E1,-7.131313911E-1,3.018061409E0,-5.269452274E-1,3.145619545E0
1.197233621E1,-6.223266171E-1,2.919130613E0,-1.074011601E0,3.172083680E0
1.198236321E1,-4.539926606E-1,2.682714821E0,-1.408701255E0,3.063903943E0
1.199238921E1,-3.994304641E-1,2.391918168E0,-1.541467549E0,2.873489068E0
1.200241621E1,-3.328377675E-1,2.066936354E0,-1.612052505E0,2.642294486E0
1.201244221E1,-2.529657519E-1,1.765522327E0,-1.608605279E0,2.401805925E0
1.202246921E1,7.654590011E-3,1.584838101E0,-1.736432137E0,2.350950226E0
1.203249521E1,1.422184642E-1,1.495009081E0,-1.800984521E0,2.344957034E0
1.204252221E1,3.820716888E-3,1.527806699E0,-2.048017980E0,2.555109695E0
1.205254821E1,-1.680859615E-1,1.648672155E0,-2.166859130E0,2.727939012E0
1.206257521E1,-2.861142021E-1,1.949082214E0,-2.414078531E0,3.115855896E0
1.207260121E1,-3.921233448E-1,2.512184869E0,-1.930664362E0,3.192537927E0
1.208262821E1,-4.658484019E-1,3.253875523E0,-2.661503461E-1,3.297810889E0
1.209265421E1,-5.717217430E-1,3.782450370E0,1.594197155E0,4.144304660E0
1.210268121E1,-8.298507325E-1,3.824355610E0,3.698903598E0,5.384815308E0
1.211270721E1,-1.510713241E0,3.025706059E0,5.834079298E0,6.743414039E0
1.212273421E1,-3.232737254E0,4.797605360E-1,6.194221004E0,7.003508705E0
1.213276021E1,-5.183324541E0,-3.746019877E0,4.494786247E0,7.816816592E0
1.214278721E1,-6.110492384E0,-9.063280740E0,-7.935317758E-1,1.095951037E1
1.215281321E1,-3.321778069E0,-1.252229179E1,-5.254429607E0,1.398038024E1
1.216284021E1,1.264660067E0,-9.098026650E0,-1.979703352E0,9.396418433E0
1.217286621E1,4.012786520E0,-2.214914764E0,3.457600995E0,5.741368104E0
1.218289321E1,4.372633819E0,2.380892658E0,6.980100821E0,8.573819676E0
1.219291921E1,3.561135888E0,4.041845720E0,6.457148073E0,8.409100241E0
1.220294621E1,2.466598222E0,3.731169704E0,5.220839692E0,6.874801905E0
1.221297221E1,1.472034202E0,2.136069154E0,4.682961341E0,5.353485131E0
1.222299921E1,-2.033741272E-1,-1.022514296E-1,2.369779586E0,2.380687228E0
1.223302521E1,-1.058410645E0,-1.686458616E0,2.702222009E-1,2.009327200E0
1.224305221E1,-8.336960808E-1,-1.919715158E0,3.235976319E-1,2.117798591E0
1.225307821E1,-5.994250468E-1,-1.612769666E0,1.363934533E0,2.195598732E0
1.226310521E1,-1.135896339E0,-1.174307429E0,1.950400908E0,2.544272417E0
1.227313121E1,-1.927366240E0,-5.627681941E-1,1.757863644E0,2.668620103E0
1.228315821E1,-2.739360307E0,3.294485021E-1,1.126667240E0,2.980270168E0
1.229318383E1,-3.099930614E0,9.238770300E-1,5.311974688E-1,3.278000813E0
1.230321083E1,-2.866462988E0,1.152677994E0,3.954096993E-1,3.114743239E0
1.231323683E1,-2.329883157E0,1.281188684E0,4.435510683E-1,2.695651595E0
1.232326383E1,-1.487009798E0,1.369300961E0,3.593372027E-1,2.053121158E0
1.233328983E1,-3.050230012E-1,1.307509341E0,4.628897108E-2,1.343414447E0
1.234331683E1,9.195277248E-1,7.630049247E-1,2.802570462E-2,1.195195880E0
1.235334283E1,1.663649797E0,7.324514687E-2,2.360872157E-1,1.681913397E0
1.236336983E1,2.058600271E0,-5.108548594E-1,3.534150696E-1,2.150281371E0
1.237339583E1,2.206834789E0,-8.069894350E-1,2.491451812E-1,2.362927222E0
1.238342283E1,2.324112832E0,-6.373541075E-1,-1.642225599E-1,2.415510249E0
1.239344883E1,2.543440868E0,-1.727606642E-1,-5.129809070E-1,2.600401336E0
1.240347583E1,2.534570057E0,4.036233562E-1,-4.760124707E-1,2.610276817E0
1.241350183E1,2.161877010E0,9.417911446E-1,-4.277916527E-1,2.396599354E0
1.242352883E1,1.785197477E0,1.260807045E0,-6.672468281E-1,2.285122046E0
1.243355483E1,1.549755246E0,1.356121337E0,-1.092768007E0,2.331297562E0
1.244358183E1,1.524188295E0,1.221123746E0,-1.208534106E0,2.296703692E0
1.245360783E1,1.410536111E0,1.037168003E0,-8.792171663E-1,1.959171358E0
1.246363483E1,1.328182464E0,7.928415120E-1,-4.664405787E-1,1.615621594E0
1.247366083E1,8.013084995E-1,4.975419188E-1,-5.474824029E-1,1.090587114E0
1.248368783E1,4.299231455E-1,2.531201184E-1,-9.829339812E-1,1.102298924E0
1.249371383E1,3.035798353E-1,2.767551488E-1,-1.437536799E0,1.495080659E0
1.250374083E1,2.370378634E-1,4.813755369E-1,-1.826402952E0,1.903590581E0
1.251376683E1,6.738342281E-2,5.775166261E-1,-1.673830823E0,1.771941196E0
1.252379383E1,2.166510344E-2,5.361686254E-1,-1.267003924E0,1.375952439E0
1.253381983E1,1.330177424E-1,4.620159906E-1,-1.079570914E0,1.181789260E0
1.254384683E1,2.443085471E-1,3.990157503E-1,-1.165357827E0,1.255770321E0
1.255387283E1,2.052280052E-1,5.000041813E-1,-1.591749072E0,1.681007978E0
1.256389983E1,3.604550441E-1,5.220399982E-1,-1.707749206E0,1.821774121E0
1.257392583E1,3.447651373E-1,4.465120983E-1,-1.442974855E0,1.549326462E0
1.258395283E1,2.278285170E-1,3.895917928E-1,-1.464970327E0,1.532914106E0
1.259397883E1,2.774964295E-1,2.951592600E-1,-1.865498605E0,1.908980960E0
1.260400583E1,3.833392555E-1,2.862141895E-1,-2.193878967E0,2.245433693E0
1.261403183E1,5.114740795E-1,3.172921407E-1,-1.981689212E0,2.071079953E0
1.262405883E1,7.081716366E-1,2.659570956E-1,-1.435777372E0,1.622866878E0
1.263408483E1,8.465226062E-1,2.028293860E-1,-1.231224226E0,1.507863846E0
1.264411183E1,1.107597423E0,1.820618302E-1,-1.090205172E0,1.564757451E0
1.265413783E1,1.166080762E0,1.936504269E-1,-1.237400640E0,1.711258360E0
1.266416483E1,1.209596033E0,2.220509380E-1,-1.161953724E0,1.691911830E0
1.267419083E1,9.732127659E-1,4.463887221E-1,-1.157286769E0,1.576616201E0
1.268421783E1,6.387611669E-1,7.337168062E-1,-1.092361625E0,1.462740613E0
1.269424383E1,9.087192198E-1,1.774934006E-1,-1.348227596E0,1.635540332E0
1.270427083E1,8.701719622E-1,-2.299698222E-1,-1.643164077E0,1.873519028E0
1.271429683E1,7.426334446E-1,-3.960769397E-1,-1.990579611E0,2.161200723E0
1.272432383E1,7.253535336E-1,-4.216976845E-1,-2.120320264E0,2.280290487E0
1.273434983E1,8.592033166E-1,-3.951010394E-1,-2.232832387E0,2.424845488E0
1.274437683E1,1.060796309E0,-3.897806579E-1,-2.878654725E0,3.092550855E0
1.275440283E1,1.518864113E0,-4.977062255E-1,-3.407019364E0,3.763301825E0
1.276442983E1,2.111263950E0,-6.426084155E-1,-3.051147879E0,3.765618730E0
1.277445583E1,2.551934241E0,-6.733384573E-1,-2.860544728E0,3.892103441E0
1.278448283E1,2.843485769E0,-7.290209073E-1,-3.361652572E0,4.462912817E0
1.279450883E1,2.944726215E0,-1.038547946E0,-3.607675632E0,4.771301477E0
1.280453583E1,3.040023551E0,-1.471391593E0,-3.466174475E0,4.839535298E0
1.281456183E1,3.437896755E0,-2.151949022E0,-2.860976545E0,4.963386494E0
1.282458883E1,3.554765055E0,-3.736886526E0,-1.628289053E0,5.408511879E0
1.283461483E1,4.159398143E0,-5.894719017E0,3.330040477E-1,7.222132434E0
1.284464183E1,5.473284457E0,-6.938870934E0,2.118856705E0,9.088142073E0
1.285466783E1,6.289293807E0,-7.067438927E0,3.125474761E0,9.963558705E0
1.286469483E1,5.025602331E0,-7.112996339E0,3.437748236E0,9.363199701E0
1.287472083E1,1.382339229E0,-6.893134598E0,3.231927415E0,7.737668974E0
1.288474783E1,-3.466741947E0,-6.521808338E0,1.269701683E0,7.494292901E0
1.289477383E1,-6.951354740E0,-5.954745948E0,-6.558587909E-1,9.176626983E0
1.290480083E1,-6.560940244E0,-5.127616364E0,-9.978273511E-2,8.327565253E0
1.291482683E1,-4.337578007E0,-3.689659735E0,9.482045169E-1,5.772977025E0
1.292485383E1,-3.326389183E0,-2.591808743E0,1.627394137E0,4.520038632E0
1.293487983E1,-2.505539508E0,-2.170718585E0,2.011961563E0,3.877852077E0
1.294490683E1,-1.675524323E0,-2.236403866E0,2.048721693E0,3.464988396E0
1.295493283E1,-1.729154839E0,-2.866223252E0,1.856521375E0,3.827777920E0
1.296495983E1,-1.832048146E0,-2.720308909E0,1.702530858E0,3.695279731E0
1.297498583E1,-1.807061971E0,-2.696944605E0,1.509785580E0,3.580284299E0
1.298501283E1,-1.649641477E0,-3.186340182E0,1.355380495E0,3.835510011E0
1.299503883E1,-1.942326341E0,-3.518639202E0,1.176358632E0,4.187752749E0
1.300506583E1,-2.547141863E0,-3.094838859E0,1.305178056E0,4.215382425E0
1.301509183E1,-2.639318248E0,-1.369632499E0,1.102113612E0,3.171206144E0
1.302511883E1,-2.577474587E0,3.469217366E-1,9.016312981E-1,2.752574964E0
1.303514483E1,-2.487206733E0,1.795343127E0,6.180893592E-1,3.129135461E0
1.304517183E1,-3.079689893E0,1.837458283E0,6.951392162E-1,3.652938722E0
1.305519783E1,-3.165699511E0,1.929115142E0,1.387624966E0,3.958363509E0
1.306522483E1,-3.809099055E0,1.217571563E0,1.888043861E0,4.422264775E0
1.307525083E1,-3.233546801E0,2.393475866E0,1.860718653E0,4.432473975E0
1.308527783E1,-2.392700672E0,3.747811464E0,1.867315335E0,4.822652158E0
1.309530383E1,-3.108010297E0,3.347081895E0,2.102904332E0,5.028408480E0
1.310533083E1,-3.581351759E0,3.907467349E0,2.193687032E0,5.736431321E0
1.311535683E1,-4.368189643E0,3.572654026E0,2.620024190E0,6.221693042E0
1.312538383E1,-4.700835695E0,3.257301992E0,3.148606346E0,6.528521610E0
1.313540983E1,-4.636656656E0,3.097506359E0,3.446644190E0,6.555340323E0
1.314543683E1,-4.273934281E0,2.649127829E0,3.882243922E0,6.352653804E0
1.315546283E1,-3.087116441E0,1.924321010E0,3.970397130E0,5.384919000E0
1.316548983E1,-1.617130227E0,1.426733483E0,3.094174323E0,3.771550522E0
1.317551583E1,-4.534908964E-1,9.471407622E-1,2.586393052E0,2.791443827E0
1.318554283E1,8.191982020E-1,1.177056205E-1,2.895373084E0,3.011332861E0
1.319556883E1,2.213631300E0,-8.748539740E-1,2.606340244E0,3.529666057E0
1.320559583E1,3.511325212E0,-1.699120177E0,1.667439963E0,4.242260029E0
1.321562183E1,4.110682066E0,-2.435036121E0,1.593713298E0,5.036569272E0
1.322564883E1,4.125337235E0,-2.735834436E0,1.894271292E0,5.300137837E0
1.323567483E1,3.762268120E0,-2.531564296E0,1.740460284E0,4.857229786E0
1.324570183E1,3.094249752E0,-2.435109211E0,1.511113483E0,4.217535104E0
1.325572783E1,2.035181003E0,-1.491455728E0,1.179959933E0,2.785445628E0
1.326575483E1,1.521515679E0,7.847746933E-1,8.362304834E-1,1.905298586E0
1.327578083E1,1.000699138E0,1.151440138E0,1.140515493E0,1.904727998E0
1.328580746E1,3.823416109E-1,1.648617191E0,1.388370194E0,2.188994185E0
1.329583346E1,-6.251880252E-1,1.714632255E0,1.277912489E0,2.227977596E0
1.330586046E1,-1.410495473E0,1.309625448E0,1.105593874E0,2.219674325E0
1.331588746E1,-1.791147019E0,8.450103700E-1,1.225381104E0,2.328907259E0
1.332591346E1,-1.693798772E0,6.569978285E-1,1.308405719E0,2.238867114E0
1.333594046E1,-1.429545701E0,7.837818360E-1,1.535399308E0,2.239501265E0
1.334596646E1,-1.453994957E0,1.054000967E0,1.934501890E0,2.639567566E0
1.335599246E1,-1.491852608E0,1.378365315E0,2.436999031E0,3.172456371E0
1.336601946E1,-1.317018521E0,1.747539800E0,2.752438482E0,3.516297874E0
1.337604546E1,-1.174731791E0,2.050853587E0,3.035683455E0,3.847254769E0
1.338607246E1,-1.094894347E0,2.059060739E0,3.550719366E0,4.248074008E0
1.339609846E1,-9.567511728E-1,1.944431924E0,3.745062103E0,4.326855494E0
1.340612546E1,-7.794948037E-1,1.679334369E0,3.471396916E0,3.934256298E0
1.341615146E1,-6.998327031E-1,1.329358047E0,3.454344681E0,3.766889407E0
1.342617846E1,-5.496172944E-1,1.109358312E0,3.622515865E0,3.828234087E0
1.343620546E1,-3.441471231E-1,7.986489666E-1,3.352207564E0,3.463173829E0
1.344623146E1,-2.013282596E-1,5.412223738E-1,2.910071230E0,2.966811300E0
1.345625846E1,-4.290339667E-1,4.002582836E-1,2.417195389E0,2.487390276E0
1.346628446E1,-1.213803763E0,1.027858651E-1,1.977737956E0,2.322785382E0
1.347631146E1,-2.089657757E0,-9.331004280E-1,1.610155960E0,2.798204454E0
1.348633746E1,-2.733232425E0,-2.578325649E0,1.039250342E0,3.898507909E0
1.349636446E1,-3.121716755E0,-3.586097360E0,1.211798899E-1,4.756037672E0
1.350639046E1,-2.737506739E0,-3.318407149E0,-4.352996238E-1,4.323800981E0
1.351641746E1,-1.756042091E0,-1.929658933E0,-8.065238504E-1,2.730887794E0
1.352644346E1,-9.746969354E-1,-2.045909767E0,-1.930107269E0,2.976759137E0
1.353647046E1,1.950105258E-1,-3.490443344E0,-2.061537327E0,4.058467690E0
1.354649646E1,1.366486404E0,-2.207587034E0,-9.272421026E-1,2.756901072E0
1.355652346E1,1.742606797E0,-7.523401880E-1,-2.654211983E-1,1.916544448E0
1.356654946E1,1.365797895E0,3.511738318E-1,4.930898488E-1,1.493942619E0
1.357657646E1,8.283259249E-1,1.778924146E0,3.625262010E-1,1.995525044E0
1.358660246E1,4.154920346E-1,2.961622914E0,1.314956939E-1,2.993515497E0
1.359662946E1,-8.476891257E-3,2.765245931E0,2.841230790E-1,2.779817051E0
1.360665546E1,-7.010321863E-2,1.729192992E0,3.992500775E-1,1.776069675E0
1.361668246E1,2.516888296E-1,5.424684155E-1,6.146066844E-1,8.575317051E-1
1.362670846E1,7.293832885E-1,4.337464571E-3,9.527967739E-1,1.199933535E0
1.363673546E1,1.141245810E0,-7.182544291E-2,1.136496409E0,1.612211209E0
1.364676146E1,1.074590695E0,-1.300221956E-1,1.351597931E0,1.731608472E0
1.365678846E1,7.397427274E-1,3.803034908E-1,1.595400073E0,1.799208560E0
1.366681446E1,2.535341012E-1,2.044682436E0,1.431129420E0,2.508612609E0
1.367684146E1,-6.591506271E-1,1.635498962E0,1.102191964E0,2.079462318E0
1.368686746E1,-1.077604423E0,9.191179812E-1,5.653169223E-1,1.524989304E0
1.369689446E1,-1.300621321E0,1.890656251E-1,2.682234764E-2,1.314564973E0
1.370692046E1,-1.371254809E0,-2.437329984E-1,-7.364560805E-2,1.394693228E0
1.371694746E1,-1.257418144E0,-1.180086232E0,-1.287483796E-3,1.724443552E0
1.372697346E1,-1.235182791E0,-2.813595387E0,-2.810413040E-2,3.072911547E0
1.373700046E1,-1.029591838E0,-2.998048729E0,-3.178943308E-1,3.185814235E0
1.374702646E1,-4.515915015E-1,-2.154924670E0,-5.430694362E-1,2.267721242E0
1.375705346E1,4.124831670E-1,-1.732945150E-1,-4.120732407E-1,6.082579286E-1
1.376707946E1,1.372204543E0,1.395691785E0,-2.299874369E-1,1.970734656E0
1.377710646E1,2.030253408E0,2.170371260E0,2.439424018E-1,2.981936988E0
1.378713246E1,1.826562143E0,1.665612708E0,1.094867669E0,2.703577290E0
1.379715946E1,1.180987654E0,1.249015549E0,1.628402781E0,2.367797985E0
1.380718546E1,8.438078901E-1,9.692987859E-1,1.431075625E0,1.923416059E0
1.381721246E1,9.048910477E-1,1.757577716E0,1.625728265E0,2.559472529E0
1.382723846E1,1.240425405E0,1.397340115E0,2.235221121E0,2.913319076E0
1.383726546E1,1.230165588E0,-6.838763094E-1,3.998607899E0,4.239087084E0
1.384729146E1,-8.021731200E-2,-3.583039851E0,5.220154399E0,6.332031375E0
1.385731846E1,3.209902123E-3,-2.971669600E0,3.172258333E0,4.346729051E0
1.386734446E1,5.920031029E-1,-1.378399814E0,-4.882954828E0,5.108199445E0
1.387737146E1,2.033788781E-1,-3.629004228E-1,-6.963578929E0,6.975993921E0
1.388739746E1,-2.243601497E-1,-1.163691809E0,-3.959265493E0,4.132831880E0
1.389742446E1,8.664652660E-2,-2.325210793E0,-2.283939976E0,3.260443937E0
1.390745046E1,5.330764715E-1,-1.421009059E0,-6.941498673E-1,1.668916208E0
1.391747746E1,-5.364011984E-1,-2.515456971E0,-7.888958108E-1,2.690280026E0
1.392750346E1,-1.776024219E0,-3.416712878E0,2.886676081E-1,3.861543461E0
1.393753046E1,-2.255994962E0,-5.028798419E-1,1.010976570E0,2.522791119E0
1.394755646E1,-2.921955403E0,1.002048456E0,3.257273706E-1,3.106126656E0
1.395758346E1,-2.295837159E0,1.878490534E0,2.524370905E-1,2.977132753E0
1.396760946E1,-1.141512224E0,1.569859289E0,-5.284456595E-1,2.011656819E0
1.397763646E1,-6.049832273E-1,1.142019104E0,-2.356415848E-1,1.313673969E0
1.398766246E1,-8.175445363E-2,9.115417439E-1,2.359655571E-1,9.451306183E-1
1.399768946E1,3.437520341E-1,1.744889258E0,1.434277561E0,2.284722325E0
1.400771546E1,2.158958957E0,2.708955370E0,2.811258255E0,4.461246009E0
1.401774246E1,3.350061636E0,1.264834022E0,1.821965500E0,4.017745182E0
1.402776846E1,2.403105061E0,8.886481404E-2,1.758268272E0,2.978979390E0
1.403779546E1,1.631294961E0,-8.811637044E-2,1.320790122E0,2.100803248E0
1.404782146E1,2.145157043E-1,-6.280804235E-1,-1.127880756E-1,6.732185052E-1
1.405784846E1,-1.187103330E0,-1.597286239E0,-1.370579163E0,2.416407434E0
1.406787446E1,-1.457750916E0,-1.527676890E0,-1.602306658E0,2.650701990E0
1.407790146E1,-1.492933027E0,2.415484786E-1,-9.911439836E-1,1.808192769E0
1.408792746E1,-1.689463208E0,-4.890581936E-1,-1.244937701E0,2.154839606E0
1.409795446E1,-1.797214967E0,-7.898717111E-1,-5.774569845E-1,2.046298005E0
1.410798046E1,-2.636966205E0,-1.073338879E0,-3.692984827E-1,2.870893325E0
1.411800746E1,-3.341261576E0,-1.463496682E0,1.656878722E-1,3.651479691E0
1.412803346E1,-2.686373423E0,-2.299796455E0,4.385435128E-1,3.563423398E0
1.413806046E1,2.884438790E-1,-3.606464966E0,-8.211455441E-1,3.709995880E0
1.414808646E1,4.317077669E0,-4.164103982E0,-1.177442122E0,6.112551965E0
1.415811346E1,4.869968746E0,-3.906032442E0,-4.490252316E-1,6.259018189E0
1.416813946E1,3.624267106E0,-3.232147855E0,5.404195877E-1,4.886117594E0
1.417816646E1,2.680902768E0,-4.095646536E0,1.317681742E0,5.069304230E0
1.418819246E1,1.862533921E0,-5.779832339E0,1.751731085E0,6.320131033E0
1.419821946E1,1.626996818E0,-7.367502832E0,5.753110564E-1,7.566914790E0
1.420824546E1,2.073268596E0,-9.537899820E0,-1.962025026E0,9.955878557E0
1.421827246E1,1.457124094E0,-1.006316807E1,-2.235519183E0,1.041096096E1
1.422829846E1,6.019307980E-1,-8.823985194E0,-4.212331872E-3,8.844492814E0
1.423832546E1,-3.825190008E-2,-7.323864477E0,1.847064089E0,7.553284043E0
1.424835146E1,-6.725856283E-1,-6.800538091E0,6.567896676E-1,6.865206656E0
1.425837846E1,8.990152538E-2,-5.978724210E0,-6.411787713E-1,6.013679047E0
1.426840446E1,1.361265425E0,-6.332714061E0,3.492085826E-1,6.486775591E0
1.427843146E1,1.639570379E0,-4.819372205E0,-1.190034100E0,5.227879172E0
1.428845738E1,1.855214230E0,-2.595024712E0,-1.462954060E0,3.509445495E0
1.429848438E1,2.624997540E0,-2.727704467E0,-5.949647176E-1,3.832096914E0
1.430851038E1,3.407713428E0,-2.240447801E0,7.892542452E-1,4.153918562E0
1.431853738E1,2.144793200E0,-5.096865857E0,-2.047179636E0,5.896534905E0
1.432856338E1,-3.459672956E0,-3.149869344E0,-1.846590318E0,5.030000959E0
1.433859038E1,-8.025750210E0,-2.178674306E0,-4.589615806E0,9.498624185E0
1.434861638E1,-5.458424928E0,2.654645846E0,-8.380696081E0,1.034783137E1
1.435864338E1,-1.727731480E0,3.217813990E0,-1.581987145E0,3.980209325E0
1.436866938E1,-2.527659818E0,5.052436958E0,-5.645366260E0,7.986635310E0
1.437869638E1,4.080847818E-1,6.044634025E0,-3.690352045E0,7.093858746E0
1.438872238E1,1.321575169E1,4.351096770E0,-1.293980638E1,1.900070327E1
1.439874938E1,1.128417662E1,6.715439469E0,-1.185891348E1,1.769360331E1
1.440877538E1,9.232044833E0,8.429353686E0,-2.876760227E0,1.282810994E1
1.441880238E1,9.790929891E0,7.924822590E0,-1.138281564E0,1.264756127E1
1.442882838E1,7.339379479E0,5.819212752E0,-1.353188959E0,9.463659363E0
1.443885538E1,3.499955594E0,2.922821960E0,-2.716847357E0,5.307903252E0
1.444888138E1,2.655980766E-2,7.450229824E-1,-3.522379081E0,3.600405402E0
1.445890838E1,-1.639675044E0,-4.986061120E-1,-1.953979257E0,2.599072381E0
1.446893438E1,-1.071230958E0,-6.555225760E-1,-2.638673007E-2,1.256161563E0
1.447896138E1,9.336693621E-1,7.291735196E-1,8.092704338E-1,1.434695485E0
1.448898738E1,2.708764166E0,2.438546497E0,1.129796085E0,3.815802867E0
1.449901438E1,3.494470321E0,2.852775825E0,1.853119465E0,4.876853954E0
1.450904038E1,4.442705682E0,1.991261689E0,2.615208716E0,5.526488353E0
1.451906738E1,3.929408441E0,4.522526023E-1,3.545628195E0,5.311898193E0
1.452909338E1,1.845560769E0,-1.140243013E0,4.813411553E0,5.279695016E0
1.453912038E1,4.983874261E-1,-2.840541988E0,5.403465779E0,6.124909080E0
1.454914638E1,-1.180489690E0,-3.358009756E0,5.391647387E0,6.460622801E0
1.455917338E1,-2.932665748E0,-3.485324106E0,5.171139529E0,6.891204288E0
1.456919938E1,-3.518747376E0,-3.514668943E0,5.056728230E0,7.092600458E0
1.457922638E1,-3.603981653E0,-3.718299982E0,4.501749111E0,6.861500097E0
1.458925238E1,-3.915610181E0,-4.298618009E0,3.386730695E0,6.729046342E0
1.459927938E1,-4.329755602E0,-4.931677921E0,2.390386198E0,6.984423875E0
1.460930538E1,-4.564788528E0,-4.985299228E0,1.878628528E0,7.015678716E0
1.461933238E1,-4.646760060E0,-4.527231277E0,1.531195160E0,6.665790329E0
1.462935838E1,-4.542783117E0,-4.163031018E0,1.018586721E0,6.245416288E0
1.463938538E1,-4.534873003E0,-3.994531513E0,-7.003911853E-2,6.043695942E0
1.464941138E1,-4.603467275E0,-3.488669591E0,-1.559126140E0,5.982775341E0
1.465943838E1,-4.824064303E0,-2.992866049E0,-2.818633933E0,6.338260079E0
1.466946438E1,-4.185759146E0,-3.172041401E0,-3.523854918E0,6.324553720E0
1.467949138E1,-2.871605906E0,-3.246851848E0,-3.815061461E0,5.774327783E0
1.468951738E1,-1.734003204E0,-2.888475123E0,-3.879035262E0,5.137798188E0
1.469954438E1,-4.130812275E-1,-3.204673835E0,-3.380077733E0,4.676055599E0
1.470957138E1,1.214850268E0,-4.192525544E0,-2.297946396E0,4.932918938E0
1.471959738E1,1.459082327E0,-4.149703167E0,-1.250168620E0,4.572950819E0
1.472962438E1,7.671049923E-1,-3.017509139E0,-5.998892426E-1,3.170753630E0
1.473965038E1,2.445527780E-1,-2.359229894E0,-4.901791048E-1,2.421992425E0
1.474967738E1,-1.525035703E-1,-2.307325915E0,-5.898753011E-1,2.386412178E0
1.475970338E1,-4.239395070E-1,-2.283280994E0,-5.331801134E-1,2.382724877E0
1.476973038E1,-8.207862327E-1,-2.529456959E0,-3.061426699E-1,2.676857464E0
1.477975638E1,1.688346682E0,-3.049927565E0,2.837688839E0,4.495002850E0
1.478978338E1,3.458012931E0,-3.192855150E0,4.081761737E0,6.230004520E0
1.479980938E1,4.926904839E-1,-2.430917342E0,1.497330426E0,2.897257573E0
1.480983638E1,1.628100773E0,-2.692987794E0,1.401336687E0,3.444798963E0
1.481986238E1,2.280517600E0,-2.597277060E0,-3.859975094E-1,3.477873305E0
1.482988938E1,6.724371091E-1,-1.870416114E0,-1.570021842E0,2.532902818E0
1.483991538E1,-8.030171290E-2,-1.870268179E0,-2.514229640E0,3.134597600E0
1.484994238E1,-2.197101514E-1,-1.996105523E0,-2.342479960E0,3.085437112E0
1.485996838E1,-2.333207153E-1,-2.231342517E0,-1.647019147E0,2.783163677E0
1.486999538E1,2.245111540E-2,-2.292254716E0,-1.298320441E0,2.634496480E0
1.488002138E1,9.201808588E-1,-2.088944689E0,-1.247498782E0,2.601283517E0
1.489004838E1,2.027055420E0,-1.575335791E0,-1.525643814E0,2.986339829E0
1.490007438E1,2.672083998E0,-1.234715014E0,-2.255830656E0,3.708547695E0
1.491010138E1,2.322708623E0,-1.161328949E0,-2.980328742E0,3.952976054E0
1.492012738E1,1.239821826E0,-1.405830272E0,-3.016036518E0,3.551055222E0
1.493015438E1,2.538882963E-1,-1.650711079E0,-2.395207227E0,2.919986985E0
1.494018038E1,3.611379258E-1,-1.755304318E0,-1.184783301E0,2.148307548E0
1.495020738E1,9.133958960E-1,-1.696497116E0,-1.858666134E-1,1.935701662E0
1.496023338E1,2.943820189E-1,-1.339387191E0,-2.571090889E-1,1.395250481E0
1.497026038E1,1.163932130E-2,-1.230755864E0,-4.760744512E-2,1.231731278E0
1.498028638E1,-2.209867448E-1,-1.308598092E0,4.019259095E-2,1.327734745E0
1.499031338E1,-2.215442768E-1,-1.193662882E0,-1.217027771E-1,1.220132988E0
1.500033938E1,-6.246463537E-2,-9.915392554E-1,-1.501448035E-1,1.004786240E0
1.501036638E1,-5.378312811E-2,-9.045718628E-1,-4.082578593E-1,9.938900138E-1
1.502039238E1,3.334171535E-1,-8.552424127E-1,-4.876934534E-1,1.039447684E0
1.503041938E1,7.250791530E-1,-5.940847117E-1,-4.827765298E-1,1.054395372E0
1.504044538E1,7.802531876E-1,-5.421216756E-1,-6.102610338E-1,1.129207455E0
1.505047238E1,5.689735517E-1,-7.660314435E-1,-4.038911587E-1,1.036177177E0
1.506049838E1,2.399137433E-1,-8.039839661E-1,7.917539299E-2,8.427440684E-1
1.507052538E1,-4.237521037E-2,-7.150659424E-1,4.457607311E-1,8.436928291E-1
1.508055138E1,-3.477523336E-1,-5.806156504E-1,3.895730817E-1,7.809055033E-1
1.509057838E1,-7.417600898E-1,-4.715253174E-1,-2.653589255E-1,9.181282673E-1
1.510060438E1,-8.259751980E-1,-3.853472990E-1,-6.706089771E-1,1.131567041E0
1.511063138E1,-5.185572504E-1,-1.718935221E-1,-5.811641192E-1,7.976219269E-1
1.512065738E1,-2.561226636E-2,-1.282265157E-1,-3.832803082E-1,4.049713844E-1
1.513068438E1,3.812937167E-1,-1.900602365E-1,-1.518288016E-1,4.522828506E-1
1.514071038E1,5.658995242E-1,-2.439072454E-1,4.283260882E-2,6.177116223E-1
1.515073738E1,1.121358553E-1,-2.478383285E-1,-1.878125668E-2,2.726738394E-1
1.516076337E1,-5.396526888E-2,-2.619236863E-1,-2.520974404E-1,3.675178732E-1
1.517079038E1,1.313303639E-1,-1.476848799E-1,-2.491650617E-1,3.180278545E-1
1.518081638E1,4.583766836E-1,-2.124527335E-2,-8.780313510E-1,9.907066160E-1
1.519084338E1,6.886963154E-1,2.204306746E-1,-8.324844646E-1,1.102688841E0
1.520086938E1,4.721093081E-1,3.249859071E-1,-1.790358961E-1,6.004638962E-1
1.521089638E1,3.183851315E-1,3.051954210E-1,2.085731059E-1,4.878689142E-1
1.522092238E1,2.243765219E-1,2.110651892E-1,3.074770045E-1,4.352418247E-1
1.523094938E1,7.933502197E-2,1.584612983E-1,8.612246990E-2,1.970307301E-1