"Time (s)","Linear Acceleration x (m/s^2)","Linear Acceleration y (m/s^2)","Linear Acceleration z (m/s^2)","Absolute acceleration (m/s^2)"
5.153083359E-3,-6.541461414E-1,1.414624484E0,-2.437934586E0,2.893543615E0
1.518008334E-2,-4.832212105E-1,1.454322401E0,-2.950012098E0,3.324323655E0
2.520608332E-2,-2.754415718E-1,8.272324955E-1,-2.505896189E0,2.653242803E0
3.523208329E-2,1.251304150E-1,-2.049069017E-2,-9.635591590E-1,9.718661133E-1
4.525908327E-2,3.210016143E-1,-4.792901275E-1,1.719239277E-1,6.019293144E-1
5.528508336E-2,2.932422504E-1,-6.238230658E-1,1.114334877E0,1.310300902E0
6.531208334E-2,2.486063603E-1,-1.032980227E0,1.237107110E0,1.630732128E0
7.533808332E-2,-1.619036127E0,-8.687962586E-1,1.761341568E0,2.545271899E0
8.536408329E-2,-2.157327584E0,-2.859262142E-1,2.018995618E0,2.968528155E0
9.539108328E-2,-1.188828989E0,-9.826655209E-2,6.296077162E-1,1.348842673E0
1.054170834E-1,-6.425066739E-1,-9.567945153E-2,-4.231267440E-1,7.752455256E-1
1.154440833E-1,-5.908933014E-2,4.209819853E-2,-1.395922165E0,1.397806316E0
1.254700833E-1,5.082620578E-1,2.847944856E-2,-2.032595657E0,2.095372640E0
1.354960833E-1,6.121315581E-1,-2.168293744E-1,-1.689100388E0,1.809635362E0
1.455230833E-1,8.175253867E-1,-6.919711947E-1,-9.024890846E-1,1.400592175E0
1.555490834E-1,5.727249791E-1,-1.027817428E0,1.607089680E-1,1.187539447E0
1.655760834E-1,1.799977630E-2,-8.043441546E-1,9.278168839E-1,1.228062572E0
1.756020833E-1,-8.112134635E-3,-3.926650894E-1,1.141858891E0,1.207515385E0
1.856280833E-1,5.770412475E-2,-4.727497244E-1,1.178035029E0,1.270664628E0
1.956550833E-1,-2.084412512E-1,-4.720634075E-1,5.182995343E-1,7.313863706E-1
2.056810834E-1,-5.190354064E-1,-9.403954142E-1,-5.816295576E-1,1.221488531E0
2.157080834E-1,3.418530777E-2,-8.469322036E-1,-1.244175809E0,1.505468776E0
2.257340833E-1,7.352457069E-1,-5.252568439E-2,-1.334162119E0,1.524248588E0
2.357600833E-1,-2.509535788E-1,-4.374027210E-1,-1.238815666E0,1.337521250E0
2.457870833E-1,-8.207057603E-1,-7.535980703E-1,-9.618605429E-1,1.471952343E0
2.558130833E-1,-7.012302607E-2,-7.159262140E-1,-5.386297184E-1,8.986598668E-1
2.658400834E-1,1.685974028E0,-9.791710787E-2,2.328222694E0,2.876233144E0
2.758660833E-1,2.019730905E0,4.504795072E-1,3.706133096E0,4.244722280E0
2.858920833E-1,1.729823322E0,-1.637322709E-1,3.903796467E0,4.273022798E0
2.959190833E-1,-1.513164394E-2,-1.040128448E0,1.808235653E0,2.086099790E0
3.059450833E-1,-1.791997789E0,-1.394203522E0,-1.451323364E0,2.694698321E0
3.159720834E-1,-1.383053905E0,8.517902166E-1,-3.991359106E0,4.309214799E0
3.259980833E-1,-2.903357457E-1,2.280135923E0,-3.147660266E0,3.897573582E0
3.360240833E-1,1.280669159E0,8.245313743E-1,-1.335129833E-1,1.528983714E0
3.460510833E-1,1.431567669E0,-1.785738198E0,2.454291587E0,3.355859666E0
3.560770833E-1,-4.593683714E-1,-2.677618972E0,-2.935883471E0,4.000009302E0
3.661040834E-1,-2.247684315E-1,-1.897462264E0,-9.065844744E-1,2.114894631E0
3.761300833E-1,-4.421915907E-1,-2.420427145E0,-2.748401856E-1,2.475790398E0
3.861560833E-1,5.187526935E-1,-3.333502906E0,1.850690532E-1,3.378697461E0
3.961830833E-1,8.869591722E-1,-3.414309964E0,4.762826121E-1,3.559642431E0
4.062090833E-1,2.668464571E-2,-3.150717775E0,-2.949247867E-1,3.164603482E0
4.162360834E-1,-2.191939884E-1,-3.557182878E0,-2.772348543E0,4.515253313E0
4.262620833E-1,-2.076488366E0,-3.227924703E0,-4.961012818E0,6.272395874E0
4.362880833E-1,-7.197373999E0,-1.730829628E0,-6.933730062E0,1.014271050E1
4.463150833E-1,-6.282546705E0,-8.565653452E-1,-7.498436608E0,9.819910838E0
4.563410833E-1,-4.887194059E0,-1.967683084E-1,-5.818927408E0,7.601532721E0
4.663680834E-1,-2.618263886E0,-2.287671669E0,-4.323096208E0,5.547784086E0
4.763940834E-1,-1.571312322E0,-5.216313363E0,-3.151827577E0,6.293883109E0
4.864200833E-1,-9.420554388E-1,-6.088735480E0,-1.435539390E0,6.326210677E0
4.964470833E-1,-1.292039947E0,-6.052065836E0,3.997986925E-1,6.201347201E0
5.064730833E-1,-1.647292796E0,-5.695731837E0,5.248671269E-1,5.952345774E0
5.165000833E-1,-1.261108176E0,-5.164440374E0,2.156546688E-1,5.320558725E0
5.265260834E-1,-1.536502093E0,-3.959453773E0,1.482491362E-1,4.249716540E0
5.365520833E-1,-1.911764114E0,-2.962972159E0,-6.631759965E-1,3.588014555E0
5.465790833E-1,-2.089528241E0,-3.294938472E0,-1.809774055E0,4.300933612E0
5.566050833E-1,-2.740126292E0,-4.682413165E0,-3.180686510E0,6.288883193E0
5.666320833E-1,-3.918078291E0,-6.047574005E0,-3.135403917E0,7.858450647E0
5.766580834E-1,-3.885199397E0,-6.537476537E0,-2.127201267E0,7.896730909E0
5.866840833E-1,-2.635738875E0,-6.596166210E0,-1.319031864E0,7.224705747E0
5.967110833E-1,-5.961049247E-1,-5.889866998E0,-1.078241477E0,6.017348171E0
6.067370833E-1,1.632481799E0,-4.615000323E0,-1.123443670E0,5.022484493E0
6.167640833E-1,2.994882461E0,-3.481858461E0,-1.339704987E0,4.784084944E0
6.267900834E-1,3.389912750E0,-3.103356206E0,-1.732804817E0,4.911714642E0
6.368160833E-1,3.223390480E0,-3.355292555E0,-1.434386319E0,4.868849805E0
6.468430833E-1,2.316929381E0,-3.641175500E0,-5.551507339E-1,4.351380599E0
6.568690833E-1,2.201252745E0,-3.666229649E0,3.109873804E-1,4.287594505E0
6.668960833E-1,3.767458693E0,-3.869198784E0,2.223269266E0,5.840151579E0
6.769220834E-1,5.533268119E0,-3.313734932E0,4.561667284E0,7.899791370E0
6.869480833E-1,6.559671983E0,-2.760887708E0,4.989615642E0,8.691838799E0
6.969750833E-1,7.058707280E0,-2.218166986E0,4.424444243E0,8.620981388E0
7.070010833E-1,8.000162795E0,-1.401522043E0,3.743489495E0,8.943186366E0
7.170280833E-1,8.961924520E0,-2.886782062E-1,3.330117660E0,9.564993980E0
7.270540834E-1,9.422333111E0,5.857413197E-1,2.817949224E0,9.852121191E0
7.370800833E-1,9.416291767E0,8.766362053E-1,2.506546107E0,9.783548184E0
7.471070833E-1,9.226042081E0,8.446800023E-1,3.409407367E0,9.872051225E0
7.571330833E-1,8.945052963E0,7.856845200E-1,4.205917422E0,9.915695338E0
7.671600833E-1,8.946030618E0,9.326045841E-1,3.279858503E0,9.573854340E0
7.771860834E-1,8.416788604E0,1.481038914E0,1.836236799E0,8.741142503E0
7.872120833E-1,8.228701218E0,1.882204685E0,6.755405188E-2,8.441491679E0
7.972390833E-1,1.011035977E1,2.908678131E0,-5.858586148E0,1.204171146E1
8.072650833E-1,1.200642938E1,5.634514412E0,-1.974192380E1,2.378330621E1
8.172920833E-1,9.904689810E0,4.017122523E0,-1.095954856E1,1.530855507E1
8.273180833E-1,2.978579255E0,2.223672724E0,1.302486875E0,3.938670692E0
8.373440834E-1,1.312963623E0,5.522730267E-1,2.270933429E0,2.680674843E0
8.473710833E-1,2.209749334E0,-2.607098043E-1,2.480190074E-1,2.238855768E0
8.573970833E-1,1.454795440E0,1.064274525E0,-2.520886111E0,3.099028367E0
8.674240833E-1,1.962530226E-1,2.690250712E0,-3.477466618E0,4.400992868E0
8.774500833E-1,-2.364035136E0,3.275965719E0,-3.942873994E0,5.645074742E0
8.874770834E-1,-2.723307946E0,2.757635779E0,-2.588786318E0,4.660769878E0
8.975030833E-1,-1.812916349E0,1.405152580E0,-2.376092094E-1,2.305987337E0
9.075290833E-1,-2.029214796E0,1.008397948E0,1.057380658E0,2.500526538E0
9.175560833E-1,-3.379231641E0,1.254042401E0,7.197858149E-1,3.675584368E0
9.275820833E-1,-3.787201817E0,1.776246121E0,-8.553622806E-1,4.269612689E0
9.376074583E-1,-1.940580363E0,1.723403079E0,-1.729853435E-1,2.601133262E0
9.476344583E-1,-7.450808698E-1,1.615965169E0,2.219869256E0,2.845049814E0
9.576604583E-1,-1.107295999E0,1.284014059E0,1.836925163E0,2.499818111E0
9.676874583E-1,-1.613908119E0,1.004638773E0,-8.476400091E-1,2.081463923E0
9.777134584E-1,-1.979251508E0,1.094451420E0,-1.820858037E0,2.903581312E0
9.877404583E-1,-1.977731817E0,1.604647883E0,-1.589419541E0,3.002094676E0
9.977664583E-1,-1.255905908E0,2.149263396E0,-8.710382272E-1,2.637297934E0
1.007792458E0,-1.828688629E0,2.165267226E0,-1.201116913E0,3.078175774E0
1.017819458E0,-6.992115095E0,3.932728490E0,6.597121060E-1,8.049301022E0
1.027845458E0,-5.930137941E0,1.384653411E0,-1.226381416E0,6.211908921E0
1.037872458E0,-4.212676218E0,-2.568038642E-2,-1.458046346E0,4.457936692E0
1.047898458E0,-3.885503452E0,8.319178694E-1,-8.210177824E-2,3.974413809E0
1.057924458E0,-5.648082876E-1,-3.123278546E-1,2.915835707E0,2.986411720E0
1.067951458E0,8.266764253E-1,-2.184829085E0,3.285023641E0,4.030912101E0
1.077977458E0,2.314239662E0,-3.519614518E0,2.365397537E0,4.830993384E0
1.088004458E0,2.340907643E0,-3.204451933E0,-1.688220382E0,4.312591894E0
1.098030458E0,2.711560305E0,-2.372322394E0,-3.945564297E0,5.343028210E0
1.108056458E0,3.380881140E0,-2.351175939E0,-2.532986923E0,4.834708712E0
1.118083458E0,3.523550279E0,-1.428124536E0,-1.642394584E0,4.141546357E0
1.128109458E0,5.749806887E0,-5.883024001E-1,-1.823260074E0,6.060582171E0
1.138136458E0,5.812990145E0,4.551045817E-1,-8.478907084E-1,5.892104315E0
1.148162458E0,6.118808295E0,1.652779824E0,1.227967912E0,6.455958587E0
1.158188458E0,7.161531152E0,2.589816597E0,2.728314916E0,8.089399281E0
1.168215458E0,6.494290756E0,3.631196349E0,1.628015696E0,7.616550036E0
1.178241458E0,2.290652579E0,3.229645831E0,6.482515633E-1,4.012222766E0
1.188268458E0,-1.319150270E0,2.902047388E0,1.094218701E-1,3.189672338E0
1.198294458E0,-2.639730476E0,3.789202734E0,-4.249686170E-1,4.637545975E0
1.208320458E0,-3.357867084E0,5.301896135E0,-8.772887546E-1,6.336798051E0
1.218347458E0,-4.160386323E0,5.843959338E0,-6.910350555E-1,7.206816533E0
1.228373458E0,-4.216955795E0,6.129344977E0,5.533956921E-1,7.460417738E0
1.238400458E0,-4.219190309E0,5.978688542E0,1.980003460E0,7.580679208E0
1.248426458E0,-3.981923454E0,5.746426612E0,1.254814233E0,7.102935446E0
1.258452458E0,-3.720069642E0,5.788931192E0,-1.578749980E0,7.059964163E0
1.268479458E0,-3.345167516E0,6.150293212E0,-2.539786651E0,7.447601529E0
1.278505458E0,-2.757509480E0,6.786356839E0,3.752257687E-1,7.334800069E0
1.288532458E0,-1.827690217E0,6.866304064E0,3.130686969E0,7.764520843E0
1.298558458E0,-1.137937163E0,6.654292211E0,2.758558470E0,7.292746441E0
1.308584458E0,-1.063390865E0,5.773149557E0,1.805140137E0,6.141545966E0
1.318611458E0,-1.393750801E0,4.108264827E0,-9.712471513E-1,4.445638561E0
1.328637458E0,-1.688550165E0,3.102647231E0,-2.128100569E0,4.123885732E0
1.338664458E0,-1.348279929E0,3.962127120E0,2.019464564E-1,4.190118430E0
1.348690458E0,-1.019211423E0,4.866116601E0,2.587011688E0,5.604508200E0
1.358716458E0,-1.298950771E0,4.258807826E0,2.567861472E0,5.139905616E0
1.368743458E0,-1.513388634E0,3.159075201E0,-1.307757263E0,3.739027994E0
1.378769458E0,-1.437907658E0,3.139794592E0,-5.751579324E-1,3.500956321E0
1.388796458E0,-1.223742568E0,3.175247430E0,1.372884574E0,3.669407877E0
1.398822458E0,-9.995120801E-1,1.411607906E0,7.868053582E-1,1.900190503E0
1.408848458E0,-3.474247141E0,-3.269506183E1,-3.147100688E0,3.302940666E1
1.418875458E0,-2.814582982E0,-6.432749279E1,-1.277135687E-1,6.438916459E1
1.428901458E0,5.183875349E0,-4.721471337E1,1.889074433E0,4.753598978E1
1.438928458E0,1.080450379E1,-1.672747129E1,7.999673675E-1,1.992951444E1
1.448954458E0,6.182906642E0,-1.561005435E0,4.769803019E0,7.963422213E0
1.458980458E0,1.633650511E0,6.879884807E0,4.497471288E0,8.380267117E0
1.469007458E0,-2.138600706E0,1.095876036E1,-5.817774922E-1,1.118063087E1
1.479033458E0,-3.498806324E0,1.121375510E1,-2.581229961E0,1.202716497E1
1.489060458E0,-4.077433336E0,9.758246294E0,-9.969900298E-1,1.062275023E1
1.499086458E0,-3.751620925E0,7.775895177E0,-1.319927073E-1,8.634617968E0
1.509112458E0,-2.416831107E0,4.703935888E0,-3.927106246E-1,5.303046962E0
1.519139458E0,-1.385884981E0,-1.130241643E0,-6.379844373E-1,1.898722595E0
1.529165458E0,-1.501726217E0,-5.986299863E0,-4.678678840E-1,6.189496590E0
1.539192458E0,-2.415450287E0,-7.067770464E0,3.347286109E-1,7.476618398E0
1.549218458E0,-1.319216782E0,-3.318507721E0,6.624807626E-1,3.632038983E0
1.559244458E0,-2.822567209E-1,6.684186101E-2,4.041501904E-1,4.974676545E-1
1.569271458E0,-4.743642137E-1,1.502400547E0,3.645657098E-1,1.617138512E0
1.579297458E0,-7.002524601E-1,1.689065890E0,2.325127032E-1,1.843192677E0
1.589324458E0,-2.453173745E-1,6.710679835E-1,-3.113167249E-2,7.151797213E-1
1.599350458E0,2.597299571E-1,-6.794581532E-2,1.770110784E-1,3.215730186E-1
1.609376458E0,2.850150718E-1,-2.874882978E-1,1.406530184E-1,4.285631623E-1
1.619403458E0,2.003639806E-1,-1.756690693E-1,-2.742385072E-1,3.823769154E-1
1.629429458E0,1.012350373E-2,5.682382643E-2,-2.746875733E-1,2.806861156E-1
1.639456458E0,-2.679235142E-1,1.051604193E-1,4.168830872E-2,2.908257870E-1
1.649482458E0,-4.053699926E-1,4.467682064E-2,3.005399410E-1,5.066015252E-1
1.659508458E0,-4.685525199E-1,1.006177175E-1,3.125593313E-1,5.721527109E-1
1.669535458E0,-4.785241422E-1,2.098477989E-1,1.181622881E-1,5.357086706E-1
1.679561458E0,-4.373621560E-1,1.402577466E-1,-2.412488088E-3,4.593078609E-1
1.689588458E0,-3.739972687E-1,2.281758964E-2,-9.517922223E-2,3.865924000E-1
1.699614458E0,-4.131875738E-1,4.468500674E-2,-1.938257702E-1,4.585729497E-1
1.709641458E0,-5.182539260E-1,-8.008346558E-3,-1.872143966E-1,5.510902791E-1
1.719667458E0,-5.443014445E-1,-2.407064795E-2,-6.012574911E-2,5.481410077E-1
1.729693458E0,-5.132861316E-1,7.247156024E-2,-3.249531627E-2,5.193945760E-1
1.739720458E0,-4.682016870E-1,2.154394913E-1,-1.522468045E-1,5.374068138E-1
1.749746458E0,-4.370995429E-1,1.298853707E-1,-2.027323222E-1,4.990256651E-1
1.759773458E0,-3.687723430E-1,-1.009837532E-1,-2.503391095E-1,4.570125043E-1
1.769799458E0,-2.719516611E-1,-2.395230031E-1,-3.220014882E-1,4.847823567E-1
1.779825458E0,-2.821742021E-1,-2.016038096E-1,-3.631285373E-1,5.021241987E-1
1.789852458E0,-2.951482965E-1,1.681980819E-1,-5.320714813E-1,6.312710772E-1
1.799878458E0,-3.228024106E-1,6.411612296E-1,-7.139058548E-1,1.012398483E0
1.809905458E0,-3.836665168E-1,8.897456628E-1,-8.919693589E-1,1.316987729E0
1.819931458E0,-4.056690046E-1,8.657960522E-1,-1.045669781E0,1.416896410E0
1.829957458E0,-3.673231836E-1,5.941952240E-1,-9.970566881E-1,1.217421999E0
1.839984458E0,-2.935487907E-1,2.181964535E-1,-8.554278425E-1,9.303426135E-1
1.850010458E0,-2.021720859E-1,-4.998843133E-2,-7.571378285E-1,7.852579747E-1
1.860037458E0,-7.402604252E-2,-1.209028780E-1,-5.933701819E-1,6.100701055E-1
1.870063458E0,1.777935089E-1,-7.099338412E-2,-4.037198353E-1,4.468112552E-1
1.880089458E0,3.116050657E-1,7.421695411E-2,-1.966073273E-1,3.758461313E-1
1.890116458E0,2.473788835E-1,2.498462623E-1,7.411638200E-2,3.593225638E-1
1.900142458E0,7.088623390E-2,2.878122336E-1,1.608984544E-1,3.372670345E-1
1.910169458E0,-1.883155735E-1,1.391216326E-1,4.876047950E-2,2.391551133E-1
1.920195458E0,-4.513933539E-1,-6.750084221E-2,-1.634333320E-3,4.564153752E-1
1.930221708E0,-6.707190509E-1,-6.775519609E-2,4.039556243E-2,6.753418492E-1
1.940248708E0,-7.737003592E-1,1.649593091E-1,-2.805552542E-2,7.915876022E-1
1.950274708E0,-7.790295846E-1,3.809022456E-1,-2.573084790E-1,9.045337295E-1
1.960301708E0,-8.497717577E-1,4.438141930E-1,-3.926464514E-1,1.035979881E0
1.970327708E0,-9.627097048E-1,5.349635142E-1,-3.323645085E-1,1.150418230E0
1.980353708E0,-9.946830109E-1,7.424233103E-1,-1.446594574E-1,1.249605147E0
1.990380708E0,-8.341775259E-1,1.110502027E0,1.083377963E-1,1.393127408E0
2.000406708E0,-5.591129534E-1,1.286495617E0,2.694935647E-1,1.428392470E0
2.010433708E0,-1.608849692E-1,9.668786234E-1,1.652540819E-1,9.940056123E-1
2.020459708E0,5.169439305E-1,1.699329507E-1,4.931066595E-2,5.463879361E-1
2.030485708E0,1.200736259E0,-7.707179868E-1,-1.214320511E-1,1.431963520E0
2.040512708E0,1.956794107E0,-1.054457050E0,-3.452722371E-1,2.249474553E0
2.050538708E0,2.531173117E0,-9.080544645E-1,-6.408560050E-1,2.764434242E0
2.060565708E0,2.566687059E0,-6.971828181E-1,-1.010293688E0,2.845108025E0
2.070591708E0,2.034459457E0,-7.236058009E-1,-1.356200860E0,2.549884587E0
2.080618708E0,1.460513433E0,-7.971766376E-1,-1.380871432E0,2.162266401E0
2.090644708E0,8.457925082E-1,-5.682873809E-1,-1.334679890E0,1.679192045E0
2.100670708E0,-2.440412928E-1,-1.466768199E-1,-1.347742277E0,1.377490286E0
2.110697708E0,-9.256560454E-1,1.709503663E-1,-1.367091883E0,1.659820279E0
2.120723708E0,-1.084102141E0,3.228347164E-1,-1.207465235E0,1.654530749E0
2.130750708E0,-7.871027622E-1,3.506657088E-1,-1.048563495E0,1.357196596E0
2.140776708E0,-9.712875701E-2,1.692429793E-1,-1.044389314E0,1.062462339E0
2.150802708E0,7.669134960E-1,-1.022525990E-1,-8.598716533E-1,1.156715680E0
2.160829708E0,1.279073746E0,-2.211995834E-1,-5.262817146E-1,1.400689597E0
2.170855708E0,1.646765524E0,-1.109193420E-1,-4.177439435E-1,1.702542156E0
2.180882708E0,1.885196267E0,9.579376459E-2,-6.112868547E-1,1.984140375E0
2.190908708E0,1.975737770E0,3.506195158E-1,-9.135170064E-1,2.204764636E0
2.200934708E0,1.982485165E0,5.134001523E-1,-1.148204947E0,2.347807859E0
2.210961708E0,1.932744070E0,5.619349658E-1,-1.308427354E0,2.400677547E0
2.220987708E0,1.702855232E0,5.332783467E-1,-1.468804931E0,2.311166299E0
2.231014708E0,1.423141100E0,4.908170360E-1,-1.599900529E0,2.196796225E0
2.241040708E0,9.902446818E-1,3.718361378E-1,-1.682853369E0,1.987672535E0
2.251066708E0,5.424345382E-1,2.292962229E-1,-1.631753236E0,1.734771054E0
2.261093708E0,3.648345721E-1,1.595249069E-1,-1.437512387E0,1.491641486E0
2.271119708E0,3.808358797E-1,9.633346260E-2,-1.223998237E0,1.285491263E0
2.281146708E0,3.732821177E-1,7.313814282E-2,-9.953370219E-1,1.065544234E0
2.291172708E0,3.348197178E-1,6.342299402E-2,-9.373636329E-1,9.973852315E-1
2.301198708E0,3.615240613E-1,3.322504878E-2,-1.288515976E0,1.338684792E0
2.311225708E0,5.547882796E-1,1.241299564E-1,-1.704504293E0,1.796811945E0
2.321251708E0,7.726648173E-1,1.734447885E-1,-1.738190541E0,1.910078630E0
2.331278708E0,9.643995501E-1,1.096697921E-1,-1.390036358E0,1.695374599E0
2.341304708E0,1.114297820E0,9.969327271E-2,-1.328797883E0,1.737038340E0
2.351330708E0,1.135227417E0,-3.022367299E-2,-1.793490729E0,2.122796211E0
2.361357708E0,9.886462723E-1,5.947319984E-2,-2.064246635E0,2.289557312E0
2.371383708E0,8.046233591E-1,3.013187170E-1,-1.989727526E0,2.167308780E0
2.381410708E0,7.888215512E-1,5.729774326E-1,-1.631660412E0,1.900752029E0
2.391436708E0,8.568517857E-1,7.175591952E-1,-1.266846634E0,1.689374610E0
2.401462708E0,8.928214444E-1,7.909370738E-1,-1.076407790E0,1.606662789E0
2.411489708E0,7.714025496E-1,7.749133641E-1,-1.004750016E0,1.484949565E0
2.421515708E0,4.761337639E-1,7.666360456E-1,-1.038029005E0,1.375477518E0
2.431542708E0,3.070663473E-1,8.570217204E-1,-1.256750831E0,1.551837176E0
2.441568708E0,1.955660113E-1,8.879113913E-1,-1.303521540E0,1.589276913E0
2.451594708E0,3.062178066E-1,9.035176098E-1,-1.299884571E0,1.612393660E0
2.461621708E0,4.160932745E-1,8.557756788E-1,-1.320791291E0,1.627874461E0
2.471647708E0,5.005467298E-1,6.870010614E-1,-1.368159000E0,1.610706844E0
2.481674708E0,6.680019960E-1,4.185846269E-1,-1.131744962E0,1.379233996E0
2.491700708E0,9.548096779E-1,1.572556025E-1,-6.736062598E-1,1.179040389E0
2.501727708E0,1.121189787E0,6.853521466E-3,-5.361284257E-1,1.242798133E0
2.511753708E0,9.851651325E-1,-2.780058682E-2,-6.674386168E-1,1.190293039E0
2.521779708E0,6.464342487E-1,9.689304113E-2,-9.057696649E-1,1.116997845E0
2.531806708E0,2.341097970E-1,7.432337344E-2,-1.474827709E0,1.495141509E0
2.541832708E0,-2.198553816E-1,6.600044668E-2,-1.918686633E0,1.932369231E0
2.551859708E0,-4.265252189E-1,-8.383503914E-2,-2.184634666E0,2.227460594E0
2.561885708E0,-2.945534885E-1,-4.049062353E-1,-2.646388409E0,2.693340384E0
2.571911708E0,2.831827006E-1,-7.175434077E-1,-2.971983595E0,3.070463723E0
2.581938708E0,1.064599484E0,-1.005313541E0,-3.057449423E0,3.389988843E0
2.591964708E0,2.171081404E0,-1.540124443E0,-3.032487367E0,4.035041189E0
2.601991708E0,3.562344800E0,-2.546748930E0,-2.647339166E0,5.117092460E0
2.612017708E0,5.019885508E0,-3.759558520E0,-1.835040751E0,6.534592975E0
2.622043708E0,6.119448565E0,-4.826663682E0,-1.050125433E0,7.864292496E0
2.632070708E0,6.788256599E0,-5.428737445E0,-3.247213206E-1,8.698106796E0
2.642096708E0,6.433814759E0,-5.709350587E0,6.383589515E-1,8.625436721E0
2.652123708E0,4.969192488E0,-6.122625942E0,1.171547251E0,7.971947401E0
2.662149708E0,2.831269766E0,-6.633286089E0,6.434892985E-1,7.240901277E0
2.672175708E0,3.157585622E-1,-6.701408490E0,-2.469305483E-1,6.713386173E0
2.682202708E0,-2.584859328E0,-6.445214490E0,-1.099707775E0,7.030764166E0
2.692228708E0,-5.929490654E0,-6.377021922E0,-2.248963686E0,8.993503526E0
2.702255708E0,-8.096403871E0,-5.830215458E0,-1.605779612E0,1.010552800E1
2.712281708E0,-7.940199598E0,-4.083552740E0,-1.958782160E-1,8.930875708E0
2.722307708E0,-5.336091821E0,-2.333693349E0,5.557453957E-1,5.850543010E0
2.732334708E0,-2.256602488E0,-1.221042470E0,3.814808276E-1,2.593979014E0
2.742360708E0,-9.236253074E-1,-8.195188487E-1,6.983212709E-2,1.236758415E0
2.752387708E0,-1.986389789E-1,-1.019569053E0,5.328900915E-1,1.167454645E0
2.762413708E0,1.087068287E0,-1.283146917E0,1.303887283E0,2.127981559E0
2.772439708E0,1.767826277E0,-1.524701827E0,1.699503608E0,2.887600720E0
2.782466708E0,1.560599200E0,-1.631826326E0,1.582663522E0,2.757381157E0
2.792492708E0,8.774583238E-1,-1.352047582E0,1.359935330E0,2.108883562E0
2.802519708E0,1.148651893E-1,-4.983195984E-1,1.306504789E0,1.403022166E0
2.812545708E0,-5.181268953E-1,4.786940038E-1,1.077012027E0,1.287461974E0
2.822571708E0,-1.043562372E0,1.319732360E0,8.835195476E-1,1.900348052E0
2.832598708E0,-1.563449279E0,1.817209960E0,9.026673516E-1,2.561529627E0
2.842624708E0,-1.892432927E0,2.091961268E0,9.063336289E-1,2.962945321E0
2.852651708E0,-2.130302338E0,2.186101440E0,1.035908439E0,3.223404078E0
2.862677708E0,-2.306802881E0,1.898128408E0,1.167425841E0,3.207353127E0
2.872703708E0,-1.926996111E0,1.450987734E0,1.076607472E0,2.641545583E0
2.882730708E0,-1.964919398E0,1.130002491E0,7.539756542E-1,2.388784871E0
2.892756708E0,-2.995505190E0,1.221447097E0,1.013880882E0,3.390123714E0
2.902783708E0,-3.776407565E0,1.405604569E0,1.368430896E0,4.255535385E0
2.912809708E0,-3.790420417E0,1.653320106E0,1.174566461E0,4.298879003E0
2.922836708E0,-3.115768383E0,1.750634147E0,7.947875384E-1,3.661204687E0
2.932862500E0,-2.341165506E0,1.916558247E0,1.026502243E0,3.194989561E0
2.942888500E0,-2.082587596E0,1.855893384E0,1.777925441E0,3.307949550E0
2.952915500E0,-1.936626329E0,1.377610440E0,2.475636555E0,3.431779191E0
2.962941500E0,-1.617863760E0,9.798372227E-1,2.853644722E0,3.423573035E0
2.972968500E0,-8.473757880E-1,5.753239202E-1,2.195200146E0,2.422384573E0
2.982994500E0,3.419247061E-2,-2.389464676E-2,1.020776357E0,1.021628333E0
2.993020500E0,5.680460371E-1,-5.615934885E-1,1.026462189E0,1.300649135E0
3.003047500E0,1.071612050E0,-9.707915801E-1,1.387235395E0,2.003799071E0
3.013073500E0,1.698216490E0,-1.184640044E0,1.781055017E0,2.731202712E0
3.023100500E0,2.155471970E0,-1.265777763E0,1.647482539E0,2.993735371E0
3.033126500E0,2.315981255E0,-1.063074092E0,1.288514953E0,2.855550119E0
3.043152500E0,2.275563254E0,-8.714397848E-1,1.207452371E0,2.719473598E0
3.053179500E0,2.290358318E0,-6.475007808E-1,1.555770130E0,2.843487152E0
3.063205500E0,1.767342127E0,-4.646975237E-1,1.057002928E0,2.111089096E0
3.073232500E0,1.375489947E0,-1.815127766E-1,1.022147383E0,1.723283132E0
3.083258500E0,9.616120362E-1,1.710690647E-1,1.177478374E0,1.529842363E0
3.093284500E0,6.455861101E-1,5.461767197E-1,1.356796106E0,1.598745167E0
3.103311500E0,4.936315933E-1,8.820507270E-1,1.549489344E0,1.850027800E0
3.113337500E0,2.323778518E-1,1.239246022E0,1.616307231E0,2.049921763E0
3.123364500E0,-1.429231998E-1,1.632639089E0,1.591894813E0,2.284746492E0
3.133390500E0,-4.174691243E-1,1.945417179E0,1.641793198E0,2.579614967E0
3.143416500E0,-5.313889651E-1,2.120559999E0,1.654077613E0,2.741372228E0
3.153443500E0,-7.278429857E-1,2.148054777E0,1.596373781E0,2.773500313E0
3.163469500E0,-9.146426685E-1,2.047835255E0,1.472590857E0,2.683043845E0
3.173496500E0,-8.709687915E-1,1.965533940E0,1.237574595E0,2.480625160E0
3.183522500E0,-6.617706183E-1,1.899715342E0,1.025030645E0,2.257774691E0
3.193549500E0,-2.317752962E-1,1.764399662E0,1.063509417E0,2.073132469E0
3.203575500E0,7.269102086E-1,1.340357244E0,1.178114844E0,1.926891429E0
3.213601500E0,1.300630969E0,9.846401256E-1,9.392850280E-1,1.882395670E0
3.223628500E0,1.412543899E0,6.934879625E-1,9.519761172E-1,1.839147723E0
3.233654500E0,1.139133942E0,4.990142477E-1,1.069026850E0,1.639957244E0
3.243681500E0,5.487187967E-1,3.710777539E-1,1.143054939E0,1.321122860E0
3.253707500E0,-1.609416872E-2,3.129564303E-1,1.257728778E0,1.296179937E0
3.263733500E0,-5.369971758E-1,3.181791633E-1,1.299438429E0,1.441576976E0
3.273760500E0,-8.428065544E-1,3.594084656E-1,1.094717176E0,1.427551410E0
3.283786500E0,-1.067247396E0,4.421383810E-1,5.579053572E-1,1.282872456E0
3.293813500E0,-1.089637846E0,5.732124907E-1,-1.451366633E-1,1.239737007E0
3.303839500E0,-9.920329066E-1,5.472169393E-1,-8.548240444E-1,1.419260305E0
3.313865500E0,-1.086840246E0,3.621771222E-1,-1.655595550E0,2.013303408E0
3.323892500E0,-1.185754231E0,4.584977210E-2,-2.246122231E0,2.540311078E0
3.333918500E0,-1.307727880E0,-2.278718412E-1,-2.472872869E0,2.806631078E0
3.343945500E0,-1.553223814E0,-3.055556095E-1,-2.437636378E0,2.906533942E0
3.353971500E0,-1.902720665E0,-2.493065643E-1,-2.139684488E0,2.874151944E0
3.363997500E0,-1.983253927E0,-1.034682351E-1,-1.754282809E0,2.649813199E0
3.374024500E0,-1.924039320E0,5.072050273E-2,-1.554712369E0,2.474192884E0
3.384050500E0,-1.792536171E0,1.992292553E-1,-1.754757603E0,2.516356984E0
3.394077500E0,-1.758941286E0,1.501395410E-1,-1.874768781E0,2.575106660E0
3.404103500E0,-1.713642907E0,-5.049480021E-2,-1.565686423E0,2.321744110E0
3.414129500E0,-1.584784015E0,-2.766633475E-1,-8.737313086E-1,1.830707344E0
3.424156500E0,-1.540137015E0,-2.900868005E-1,5.067714563E-1,1.647115565E0
3.434182500E0,-1.451480654E0,1.006943160E-1,2.094808277E0,2.550520957E0
3.444209500E0,-9.123955835E-1,8.237294286E-1,3.174953022E0,3.404603144E0
3.454235500E0,1.365310237E-2,1.653527682E0,3.501614449E0,3.872420942E0
3.464261500E0,1.086276867E0,2.084592022E0,3.801940894E0,4.469930188E0
3.474288500E0,2.029871585E0,1.849722818E0,4.216149757E0,5.031676850E0
3.484314500E0,2.386613428E0,8.941930550E-1,4.253080771E0,4.958245750E0
3.494341500E0,2.297246484E0,-2.451684898E-1,2.635277822E0,3.504588163E0
3.504367500E0,2.468668721E0,-1.063678694E0,2.746320248E-2,2.688213504E0
3.514394500E0,1.922418472E0,-1.648827106E0,-1.624567885E0,3.008910836E0
3.524420500E0,2.312993328E-1,-1.605892755E0,-1.207431614E0,2.022444566E0
3.534446500E0,-1.175588700E0,-7.127872825E-1,9.457086329E-1,1.668663933E0
3.544473500E0,-1.996878232E0,1.671578622E-1,2.832639184E0,3.469770766E0
3.554499500E0,-2.468918982E0,6.656259799E-1,2.691226612E0,3.712319970E0
3.564526500E0,-2.909298812E0,1.109141380E0,1.421575069E0,3.422731345E0
3.574552500E0,-2.556463202E0,1.374696772E0,9.084212311E-1,3.041467483E0
3.584578500E0,-7.408685356E-1,1.083749846E0,1.249648364E0,1.812462676E0
3.594605500E0,1.012821878E0,3.765004617E-1,1.345322700E0,1.725530040E0
3.604631500E0,2.107726969E0,-4.591502702E-1,1.127391198E0,2.433997301E0
3.614658500E0,2.564394658E0,-1.251610544E0,8.494625131E-1,2.977286596E0
3.624684500E0,2.422002093E0,-1.626498343E0,3.677968812E-1,2.940555312E0
3.634710500E0,1.987020411E0,-1.523547002E0,-3.512762312E-1,2.528406726E0
3.644737500E0,1.263384351E0,-1.180023082E0,-9.858031368E-1,1.990075958E0
3.654763500E0,7.376035966E-1,-6.031338626E-1,-1.154778314E0,1.497111377E0
3.664790500E0,5.460113896E-1,-3.596037626E-2,-4.847680914E-1,7.310415096E-1
3.674816500E0,3.332090657E-1,3.605340546E-1,7.669933105E-1,9.106546131E-1
3.684842500E0,2.312449537E-1,4.545414948E-1,1.485175234E0,1.570295410E0
3.694869500E0,4.565471629E-1,4.174005657E-1,1.345610383E0,1.480988132E0
3.704895500E0,8.244392806E-1,4.947492886E-1,6.965331924E-1,1.187280706E0
3.714922500E0,7.856473902E-1,6.040507060E-1,-6.488012016E-2,9.931407288E-1
3.724948500E0,6.941212159E-1,6.071836442E-1,-2.002969569E-1,9.437134688E-1
3.734974500E0,7.255218603E-1,5.965662700E-1,1.102048123E-1,9.457369534E-1
3.745001500E0,9.171875229E-1,8.206093544E-1,2.696192068E-1,1.259891734E0
3.755027500E0,8.076343098E-1,1.108274238E0,-3.995963057E-1,1.428363460E0
3.765054500E0,7.462117944E-1,1.429375840E0,-1.472142375E0,2.183380523E0
3.775080500E0,6.938113135E-1,1.502743778E0,-2.097753519E0,2.672112054E0
3.785107500E0,4.191776442E-1,1.238380634E0,-2.066373267E0,2.445239246E0
3.795133500E0,2.927958886E-1,7.431296539E-1,-1.874684581E0,2.037747137E0
3.805159500E0,3.883142858E-1,1.507669473E-1,-1.325223480E0,1.389149355E0
3.815186500E0,5.560226268E-1,-1.207274616E-2,-1.081257178E0,1.215904601E0
3.825212500E0,7.175445040E-1,8.962261319E-2,-1.067559491E0,1.289412888E0
3.835238500E0,7.029329699E-1,2.323367751E-1,-1.040804971E0,1.277251003E0
3.845265500E0,7.288056567E-1,4.505501854E-1,-1.185159131E0,1.462448399E0
3.855291500E0,9.578927685E-1,7.569665051E-1,-1.617875601E0,2.026839487E0
3.865318500E0,1.262212277E0,9.155991268E-1,-1.842098779E0,2.413468356E0
3.875344500E0,1.157251101E0,1.078490276E0,-1.928178564E0,2.494041692E0
3.885371500E0,1.044986022E0,1.122722123E0,-1.941132340E0,2.473963523E0
3.895397500E0,9.407021007E-1,8.327557755E-1,-1.360068793E0,1.851537130E0
3.905423500E0,8.725171342E-1,3.715145409E-1,-5.394483286E-1,1.091014987E0
3.915450500E0,7.083023219E-1,1.136377126E-1,-5.917443636E-1,9.299285461E-1
3.925476500E0,2.351010463E-1,1.976820821E-1,-1.569640895E0,1.599413408E0
3.935503625E0,-4.955699453E-1,5.107718289E-1,-2.462004357E0,2.562799814E0
3.945529625E0,-9.823015317E-1,7.752922636E-1,-2.325711899E0,2.641009321E0
3.955555625E0,-8.509045096E-1,1.013265170E0,-1.637365686E0,2.105162981E0
3.965582625E0,-1.048050548E-1,9.159271556E-1,-1.530034488E0,1.786312455E0
3.975608625E0,1.053277009E0,4.079286611E-1,-2.058764285E0,2.348256509E0
3.985635625E0,2.149955853E0,-1.469177252E-1,-2.435513546E0,3.252018023E0
3.995661625E0,2.996970210E0,-6.717573702E-1,-2.377743933E0,3.884167171E0
4.005687625E0,3.363678339E0,-1.094050886E0,-2.155891215E0,4.142359985E0
4.015714625E0,3.267098417E0,-1.425217300E0,-2.195158192E0,4.186155265E0
4.025740625E0,3.032711608E0,-1.724598835E0,-2.268300428E0,4.161342051E0
4.035767625E0,2.747996644E0,-1.806504292E0,-2.452214656E0,4.102231105E0
4.045793625E0,2.461559091E0,-1.610153621E0,-2.547200335E0,3.891027807E0
4.055819625E0,2.686473703E0,-1.625374509E0,-2.034737784E0,3.741542610E0
4.065846625E0,3.332673771E0,-2.195971540E0,-1.375284125E0,4.221422970E0
4.075872625E0,3.667233324E0,-3.153666526E0,-6.225331700E-1,4.876654628E0
4.085899625E0,3.556953960E0,-4.443319055E0,-1.230897367E-2,5.691674376E0
4.095925625E0,3.727755222E0,-5.929641513E0,4.210881123E-1,7.016703119E0
4.105952625E0,3.724131995E0,-6.960901489E0,6.503720561E-1,7.921255738E0
4.115978625E0,2.612426611E0,-7.148687158E0,-4.592286229E-2,7.611216052E0
4.126004625E0,4.619303289E-1,-6.731087202E0,-1.321490618E0,6.875118327E0
4.136031625E0,-2.221618451E0,-6.962211850E0,-2.675350545E0,7.782382856E0
4.146057625E0,-4.699822372E0,-7.125441552E0,-3.150067857E0,9.098525988E0
4.156084625E0,-6.456836416E0,-5.950715463E0,-3.175501199E0,9.337320755E0
4.166110625E0,-6.091287789E0,-4.094243204E0,-3.122196519E0,7.975883992E0
4.176136625E0,-3.738481062E0,-2.634622056E0,-1.916376398E0,4.958827738E0
4.186163625E0,-2.060744299E0,-1.753261301E0,-9.486815035E-2,2.707321965E0
4.196189625E0,-9.472761253E-1,-1.291122519E0,9.938443740E-1,1.884689910E0
4.206216625E0,2.295280650E-2,-9.847167242E-1,1.412928792E0,1.722370932E0
4.216242625E0,6.267564677E-1,-1.056345701E0,1.480528013E0,1.923708166E0
4.226268625E0,6.761166157E-1,-1.635201924E0,1.552458560E0,2.353964016E0
4.236295625E0,2.880486073E-1,-2.214841674E0,1.343337570E0,2.606348301E0
4.246321625E0,-1.396638887E-1,-2.637679566E0,1.224468207E0,2.911388308E0
4.256348625E0,-7.538438726E-1,-3.145830672E0,1.299923748E0,3.486306492E0
4.266374625E0,-1.711864476E0,-2.746206812E0,1.602845187E0,3.611266333E0
4.276400625E0,-2.189558021E0,-1.835467891E0,1.767740176E0,3.359763688E0
4.286427625E0,-2.137836183E0,-7.064103091E-1,1.759627165E0,2.857559593E0
4.296453625E0,-2.211135709E0,3.016216028E-1,1.399087847E0,2.633921699E0
4.306480625E0,-2.143053653E0,7.709109449E-1,1.022188021E0,2.496367560E0
4.316506625E0,-1.924007015E0,6.806071311E-1,5.866429603E-1,2.123482758E0
4.326532625E0,-2.835553436E0,5.110378772E-1,9.636479636E-1,3.038114613E0
4.336559625E0,-3.853963571E0,9.032784587E-1,1.612814105E0,4.274355685E0
4.346585625E0,-4.568288964E0,1.966847225E0,2.438388622E0,5.539268105E0
4.356612625E0,-3.926784795E0,2.782068955E0,3.033496889E0,5.688730075E0
4.366638625E0,-2.951531205E0,3.162092364E0,2.471738509E0,4.981953013E0
4.376664625E0,-2.232783709E0,2.925033962E0,1.825144047E0,4.107590238E0
4.386691625E0,-1.902473766E0,2.279747522E0,1.916714952E0,3.534183272E0
4.396717625E0,-1.864997060E0,1.365851689E0,3.027902273E0,3.809456266E0
4.406744625E0,-1.541459655E0,4.322507393E-1,3.994429479E0,4.303301689E0
4.416770625E0,-6.860126627E-1,-2.863825893E-1,3.869225681E0,3.939991844E0
4.426797625E0,2.499401101E-1,-5.936537719E-1,3.371253115E0,3.432235776E0
4.436823625E0,1.242033097E0,-6.525703168E-1,3.339853859E0,3.622584441E0
4.446849625E0,1.983839818E0,-6.168262875E-1,3.334922025E0,3.929096589E0
4.456876625E0,2.388341134E0,-5.820879793E-1,3.078472210E0,3.939541970E0
4.466902625E0,2.470347456E0,-4.637298095E-1,3.262218915E0,4.118219778E0
4.476929625E0,2.019476551E0,-2.120843589E-2,3.443311277E0,3.991882750E0
4.486955625E0,1.461738570E0,6.565353137E-1,3.214098962E0,3.591399505E0
4.496981625E0,8.439429608E-1,1.345305158E0,3.057818967E0,3.445626579E0
4.507008625E0,8.065795451E-2,2.060492138E0,2.970929927E0,3.616428927E0
4.517034625E0,-3.751769444E-1,2.339006714E0,2.927387466E0,3.765807686E0
4.527061625E0,-8.992551358E-1,2.171917849E0,2.556539800E0,3.473007730E0
4.537087625E0,-1.356021789E0,1.645880694E0,1.640416763E0,2.690480534E0
4.547113625E0,-1.884524276E0,1.157180935E0,3.161887711E-1,2.233937063E0
4.557140625E0,-2.318096047E0,9.934436935E-1,-7.951482385E-1,2.644382797E0
4.567166625E0,-2.876663455E0,1.176788988E0,-1.094270157E0,3.295064815E0
4.577193625E0,-3.432989772E0,1.413515267E0,-6.157126853E-1,3.763315865E0
4.587219625E0,-3.293058300E0,1.566871946E0,6.500519210E-1,3.704306705E0
4.597245625E0,-2.226461261E0,1.503213894E0,1.923222903E0,3.303871682E0
4.607272625E0,-7.899581037E-1,1.338667399E0,2.070983797E0,2.589408831E0
4.617298625E0,5.855958702E-1,1.078916538E0,1.292193144E0,1.782342992E0
4.627325625E0,1.512201796E0,8.503944862E-1,1.941790152E-1,1.745746414E0
4.637351625E0,1.978782854E0,8.133897972E-1,-7.470996210E-1,2.266129385E0
4.647378625E0,2.289360637E0,9.703688264E-1,-1.264771164E0,2.789701397E0
4.657404625E0,2.407814993E0,1.096300310E0,-1.666112352E0,3.126560056E0
4.667430625E0,2.068387779E0,1.110353508E0,-1.723782563E0,2.912479913E0
4.677457625E0,1.391663638E0,9.388768923E-1,-1.315358058E0,2.132694146E0
4.687483625E0,6.970709901E-1,8.896018213E-1,-6.785430640E-1,1.318226102E0
4.697510625E0,1.914455880E-1,9.798190963E-1,1.042754433E-1,1.003777985E0
4.707536625E0,-1.234807692E-1,1.128792118E0,8.768449509E-1,1.434669374E0
4.717562625E0,-5.683085771E-1,1.489579357E0,1.616841667E0,2.270682337E0
4.727589625E0,-7.589656681E-1,2.034017699E0,2.231117399E0,3.113059867E0
4.737615625E0,-6.832515344E-1,2.441989045E0,2.623412359E0,3.648621050E0
4.747642625E0,-6.547321786E-1,2.338060634E0,2.395329434E0,3.410689791E0
4.757668625E0,-6.401841599E-1,1.577292269E0,2.068620937E0,2.678969810E0
4.767694625E0,-5.766433445E-1,5.461182475E-2,1.566043981E0,1.669728645E0
4.777721625E0,-6.626557405E-1,-2.025626945E0,8.321561435E-1,2.287960008E0
4.787747625E0,-9.460870939E-1,-3.953729934E0,3.851967332E-1,4.083556992E0
4.797774625E0,-1.422392656E0,-5.213759299E0,4.227232862E-1,5.420810075E0
4.807800625E0,-1.950994985E0,-5.431686780E0,-1.246928971E-1,5.772794040E0
4.817826625E0,-2.248315376E0,-4.135928589E0,-3.566170049E-1,4.721017158E0
4.827853625E0,-1.954082022E0,-1.813692275E0,-8.222851664E-2,2.667335327E0
4.837879625E0,-1.267419661E0,3.232685798E-1,4.645950513E-1,1.388057539E0
4.847906625E0,-4.892317828E-1,1.612138751E0,1.148892506E0,2.039189320E0
4.857932625E0,-1.823596727E-1,2.362898437E0,2.041472315E0,3.127963121E0
4.867958625E0,-9.976234294E-2,2.644712597E0,3.086759469E0,4.066022782E0
4.877985625E0,-9.106914125E-2,2.486376429E0,3.624258628E0,4.396090529E0
4.888011625E0,9.287351891E-3,1.998062586E0,3.359483839E0,3.908768606E0
4.898038625E0,2.335836938E-1,1.466052500E0,2.327110992E0,2.760311005E0
4.908064625E0,8.535522019E-1,8.515113044E-1,1.345192891E0,1.806423754E0
4.918090625E0,1.363251140E0,-3.168793273E-1,1.243409093E0,1.872146455E0
4.928117625E0,1.401026784E0,-1.671564004E0,8.954027709E-1,2.357699809E0
4.938143333E0,1.096298775E0,-2.328412144E0,1.038043769E-1,2.575684271E0
4.948170333E0,7.845445322E-1,-2.095986491E0,-3.975276339E-1,2.273037112E0
4.958196333E0,5.578074894E-1,-1.338066890E0,-6.430429367E-1,1.585899245E0
4.968223333E0,3.691613290E-1,-2.851383018E-1,-7.738379880E-1,9.035536341E-1
4.978249333E0,-1.386452307E-1,8.388398033E-1,-7.609075284E-1,1.140988599E0
4.988275333E0,-6.416573659E-1,1.359281757E0,-3.224201123E-1,1.537311224E0
4.998302333E0,-8.742106341E-1,1.157068668E0,1.851509325E-1,1.461962039E0
5.008328333E0,-5.674581727E-1,6.914683342E-1,4.646139085E-1,1.007969900E0
5.018355333E0,2.728844382E-2,1.563896298E-1,5.814254898E-1,6.027088648E-1
5.028381333E0,5.368608991E-1,-2.480809879E-1,5.867973268E-1,8.331235829E-1
5.038407333E0,7.008216865E-1,-4.251650834E-1,5.809793472E-1,1.004715575E0
5.048434333E0,8.892264301E-1,-2.862527812E-1,6.591811788E-1,1.143321532E0
5.058460333E0,1.121555896E0,1.543881279E-1,7.126030952E-1,1.337731847E0
5.068487333E0,1.516077330E0,7.673920906E-1,6.707937491E-1,1.826840263E0
5.078513333E0,1.561801972E0,1.171683784E0,4.291487549E-1,1.999059014E0
5.088539333E0,1.241545439E0,1.200715209E0,-4.737625718E-1,1.790978243E0
5.098566333E0,1.066067135E0,1.010221694E0,-1.135003176E0,1.856146335E0
5.108592333E0,7.124376190E-1,8.559394008E-1,-1.521140288E0,1.885223434E0
5.118619333E0,1.787948446E-1,7.947342557E-1,-1.796063504E0,1.972159792E0
5.128645333E0,5.396987356E-2,7.077042979E-1,-1.543684228E0,1.699034760E0
5.138671333E0,3.268050124E-1,6.244697678E-1,-1.100290011E0,1.306675980E0
5.148698333E0,6.301841055E-1,5.901267314E-1,-8.131991780E-1,1.186033081E0
5.158724333E0,9.770165259E-1,4.784057361E-1,-6.228506738E-1,1.253545493E0
5.168751333E0,1.478177579E0,3.047627270E-1,-5.260875870E-1,1.598329573E0
5.178777333E0,1.545627258E0,1.934118605E-1,-7.606566828E-1,1.733485032E0
5.188804333E0,1.514052293E0,2.954317403E-1,-1.214678945E0,1.963435560E0
5.198830333E0,1.364449527E0,5.650135249E-1,-1.363799462E0,2.010201922E0
5.208856333E0,1.175001713E0,6.561651850E-1,-1.524511646E0,2.033548017E0
5.218883333E0,1.011387483E0,5.526092416E-1,-1.534534944E0,1.919134989E0
5.228909333E0,8.399628342E-1,3.203554970E-1,-1.383573430E0,1.649982013E0
5.238936333E0,6.904161277E-1,9.658781648E-2,-1.226525989E0,1.410804606E0
5.248962333E0,5.000289588E-1,-6.475732863E-2,-1.087585620E0,1.198776439E0
5.258988333E0,8.353069156E-2,7.567583442E-2,-1.474587827E0,1.478889268E0
5.269015333E0,-3.044353560E-1,4.713048774E-1,-1.768164392E0,1.855051075E0
5.279041333E0,-6.671641631E-1,7.734223241E-1,-1.751079997E0,2.027207752E0
5.289068333E0,-8.233030935E-1,9.618482637E-1,-1.669312533E0,2.095133504E0
5.299094333E0,-7.791601968E-1,9.542854750E-1,-1.580898832E0,2.004243622E0
5.309120333E0,-5.636353362E-1,7.871843308E-1,-1.755189713E0,2.004503652E0
5.319147333E0,5.289990619E-2,5.168178499E-1,-1.692743204E0,1.770671806E0
5.329173333E0,1.012876184E0,1.536338371E-1,-1.297292793E0,1.653024534E0
5.339200333E0,1.928073168E0,-2.297411960E-1,-1.231461916E0,2.299292415E0
5.349226333E0,2.465473802E0,-4.015142655E-1,-1.280647817E0,2.807104131E0
5.359252333E0,2.677916888E0,-4.991925877E-1,-1.466376728E0,3.093653634E0
5.369279333E0,2.610839092E0,-6.259537911E-1,-1.818306605E0,3.242612808E0
5.379305333E0,2.142599325E0,-7.855868715E-1,-2.236518472E0,3.195292392E0
5.389332333E0,1.594424904E0,-1.063116192E0,-2.664191426E0,3.281816991E0
5.399358333E0,1.189191955E0,-1.431093167E0,-2.794144040E0,3.356999564E0
5.409384333E0,9.781805603E-1,-1.719933926E0,-2.796337915E0,3.425567931E0
5.419411333E0,8.656725298E-1,-1.535920880E0,-2.808795408E0,3.316289119E0
5.429437333E0,1.057348937E0,-1.503778151E0,-2.644480754E0,3.220654275E0
5.439464333E0,1.864376525E0,-2.089717691E0,-2.100122226E0,3.500476142E0
5.449490333E0,2.868701302E0,-3.153085898E0,-1.263531847E0,4.446111848E0
5.459517333E0,4.191853991E0,-4.607397189E0,3.648545623E-2,6.229051286E0
5.469543333E0,5.659757427E0,-5.539995925E0,1.345090857E0,8.033285654E0
5.479569333E0,6.406369683E0,-5.570595574E0,2.264582183E0,8.786435001E0
5.489596333E0,5.836117052E0,-5.889471726E0,2.348169885E0,8.617426604E0
5.499622333E0,3.149751815E0,-6.369139876E0,1.288114419E0,7.221226905E0
5.509649333E0,-4.372337365E-1,-5.944958294E0,-1.432152683E-1,5.962735368E0
5.519675333E0,-4.459456201E0,-5.660096565E0,-1.662768330E0,7.395149847E0
5.529701333E0,-7.103432048E0,-5.578751855E0,-2.374830557E0,9.339220487E0
5.539728333E0,-7.261690448E0,-4.706689927E0,-1.966763610E0,8.874302075E0
5.549754333E0,-5.167214293E0,-3.310247360E0,-8.845998207E-1,6.200028869E0
5.559781333E0,-3.284893248E0,-2.133021001E0,-2.310457098E-1,3.923478605E0
5.569807333E0,-2.674587191E0,-1.465091802E0,-7.315363795E-1,3.136089301E0
5.579833333E0,-1.642211566E0,-1.247959542E0,-5.134136009E-1,2.125524729E0
5.589860333E0,2.591583918E-1,-1.018382068E0,5.384769599E-1,1.180772012E0
5.599886333E0,1.269909259E0,-8.823992211E-1,1.786537074E0,2.362839950E0
5.609913333E0,1.343343856E0,-1.014439875E0,2.454349474E0,2.976153947E0
5.619939333E0,7.963625591E-1,-1.376213540E0,2.453219208E0,2.923429752E0
5.629965333E0,-3.985801327E-1,-1.670429059E0,2.496385692E0,3.030039750E0
5.639992333E0,-1.142552955E0,-1.596935406E0,2.256173887E0,2.990978194E0
5.650018333E0,-1.441406925E0,-1.136884664E0,1.518789561E0,2.382620908E0
5.660045333E0,-1.556676595E0,-3.877487504E-1,8.196054605E-1,1.801483896E0
5.670071333E0,-1.607661246E0,1.938854849E-1,6.035677260E-1,1.728137802E0
5.680097333E0,-1.634994348E0,3.887860465E-1,6.637244654E-1,1.806901014E0
5.690124333E0,-1.654313841E0,5.933573180E-1,9.585346466E-1,2.001903059E0
5.700150333E0,-1.752136881E0,6.855375034E-1,1.191389485E0,2.226960760E0
5.710177333E0,-2.296345867E0,6.963221079E-1,1.571655554E0,2.868478690E0
5.720203333E0,-3.142259193E0,1.020257855E0,1.982607225E0,3.852979410E0
5.730230333E0,-3.365455601E0,1.608167322E0,2.346171892E0,4.406474337E0
5.740256333E0,-3.052793285E0,2.295394086E0,2.334752280E0,4.476544321E0
5.750282333E0,-2.656075783E0,2.839648826E0,1.954462237E0,4.351811882E0
5.760309333E0,-2.890571350E0,3.078213471E0,1.813227421E0,4.595497207E0
5.770335333E0,-3.488576912E0,3.331894922E0,2.169826884E0,5.289597466E0
5.780362333E0,-3.377671604E0,3.322263388E0,2.383059636E0,5.303307714E0
5.790388333E0,-2.801061588E0,3.024712617E0,2.446617701E0,4.793826302E0
5.800414333E0,-2.042974318E0,2.386249877E0,1.711757179E0,3.577435560E0
5.810441333E0,-1.301298136E0,1.621152819E0,2.884503110E-1,2.098741738E0
5.820467333E0,-9.714727807E-1,1.133925388E0,3.668134526E-1,1.537562441E0
5.830494333E0,-5.554689686E-1,8.447770661E-1,1.310537321E0,1.655204560E0
5.840520333E0,-7.673593462E-2,4.456192285E-1,2.011411779E0,2.061611565E0
5.850546333E0,5.524849883E-1,-4.516389370E-2,2.218883854E0,2.287077829E0
5.860573333E0,9.889585868E-1,-3.896724844E-1,1.910355520E0,2.186170612E0
5.870599333E0,1.060545536E0,-5.932128918E-1,1.544041493E0,1.964872134E0
5.880626333E0,8.896664330E-1,-7.078060395E-1,1.400517784E0,1.803869678E0
5.890652333E0,9.073769183E-1,-7.797379017E-1,1.288425491E0,1.758227605E0
5.900678333E0,9.181818420E-1,-8.891042233E-1,1.239055110E0,1.780118474E0
5.910705333E0,8.099012022E-1,-1.076180041E0,1.078332693E0,1.725370927E0
5.920731333E0,6.003369932E-1,-1.143593175E0,8.341219774E-1,1.537520513E0
5.930758333E0,2.681208578E-1,-8.886890709E-1,7.556143364E-1,1.196916908E0
5.940784125E0,-5.903597429E-2,-1.911314464E-1,6.684156865E-1,6.977076795E-1
5.950810125E0,-3.625561680E-1,4.981868666E-1,5.658102080E-1,8.365275372E-1
5.960837125E0,-6.818506877E-1,9.826766306E-1,6.297068265E-1,1.351704261E0
5.970863125E0,-8.767801930E-1,1.435400811E0,7.342494875E-1,1.835276901E0
5.980890125E0,-7.366830987E-1,1.813719172E0,7.161318898E-1,2.084496128E0
5.990916125E0,-5.266157368E-1,2.050687526E0,5.013826624E-1,2.175782167E0
6.000943125E0,-2.977951849E-1,2.130779178E0,1.604929134E-1,2.157466072E0
6.010969125E0,1.202697708E-1,1.934042591E0,-2.162227258E-1,1.949804562E0
6.020995125E0,4.481605746E-1,1.761763737E0,-5.052172664E-1,1.886770747E0
6.031022125E0,5.876147676E-1,1.749041365E0,-6.020679152E-1,1.940856148E0
6.041048125E0,6.137952371E-1,1.763009194E0,-6.966589075E-1,1.992556058E0
6.051075125E0,4.166962686E-1,1.764970350E0,-7.932557872E-1,1.979396590E0
6.061101125E0,5.084399593E-1,1.664813978E0,-6.223752952E-1,1.848639441E0
6.071127125E0,6.524754457E-1,1.541029592E0,-6.116517940E-1,1.781744743E0
6.081154125E0,7.118153290E-1,1.577725548E0,-7.959162703E-1,1.905093614E0
6.091180125E0,7.137795550E-1,1.708539457E0,-1.027343219E0,2.117551042E0
6.101207125E0,7.908218837E-1,1.817661949E0,-1.215123041E0,2.325041552E0
6.111233125E0,8.232334386E-1,1.869226205E0,-1.232085521E0,2.385320656E0
6.121259125E0,7.033836441E-1,1.999116254E0,-1.425243028E0,2.553924830E0
6.131286125E0,4.591382834E-1,2.077641436E0,-1.479373334E0,2.591514492E0
6.141312125E0,2.240315361E-1,2.062290156E0,-4.886714002E-1,2.131204016E0
6.151339125E0,-2.158031881E-2,2.037733605E0,9.693104804E-1,2.256631729E0
6.161365125E0,-2.454653822E-1,1.568855907E0,2.911894391E0,3.316728969E0
6.171391125E0,-8.130104591E-1,3.072781992E-1,4.645801993E0,4.726402655E0
6.181418125E0,-2.087776415E0,-1.751404225E0,4.339059691E0,5.123833148E0
6.191444125E0,-2.895359635E0,-3.603539604E0,2.976960453E0,5.498263238E0
6.201471125E0,-2.931442510E0,-4.552610532E0,1.646996635E0,5.659701031E0
6.211497125E0,-2.525503657E0,-4.322592763E0,1.483316989E0,5.221418026E0
6.221523125E0,-1.865680892E0,-2.931099279E0,1.965719005E0,3.992011946E0
6.231550125E0,-1.294131204E0,-1.222943984E0,1.870985486E0,2.582819051E0
6.241576125E0,-6.367305019E-1,5.319153607E-2,1.757261381E0,1.869818877E0
6.251603125E0,1.983584587E-1,4.300954556E-1,2.853469013E0,2.892509911E0
6.261629125E0,8.823898655E-1,2.900230658E-1,3.781989609E0,3.894376799E0
6.271656125E0,1.241183058E0,2.451743370E-1,3.287277743E0,3.522334566E0
6.281682125E0,1.360676611E0,3.388443929E-1,2.202918617E0,2.611341952E0
6.291708125E0,1.299191384E0,2.585024804E-1,1.467346927E0,1.976822903E0
6.301735125E0,1.255487832E0,-1.347256958E-1,1.225812628E0,1.759834455E0
6.311761125E0,1.265913710E0,-5.818400574E-1,1.428834972E0,1.995656472E0
6.321788125E0,1.074977561E0,-7.416649264E-1,1.172546833E0,1.755138084E0
6.331814125E0,8.443793824E-1,-5.745579350E-1,2.838239940E-1,1.060023312E0
6.341840125E0,7.308953054E-1,-3.749515343E-1,-2.996359614E-1,8.744016868E-1
6.351867125E0,8.203272262E-1,-1.265471953E-1,-1.233294725E-1,8.391430805E-1
6.361893125E0,1.079458136E0,1.365985590E-1,2.025404605E-1,1.106757278E0
6.371920125E0,1.245297890E0,2.993411887E-1,1.440495928E-1,1.288845323E0
6.381946125E0,1.267186649E0,3.617742491E-1,5.279447358E-2,1.318874470E0
6.391972125E0,1.016204565E0,3.655959892E-1,-6.284704328E-2,1.081795681E0
6.401999125E0,8.122202079E-1,1.079021788E-1,-3.205209732E-1,8.798171631E-1
6.412025125E0,6.906946745E-1,-1.185581446E-1,-4.393276244E-1,8.271178444E-1
6.422052125E0,6.097244786E-1,4.881957293E-2,-2.227022996E-1,6.509559162E-1
6.432078125E0,4.822531309E-1,5.337069476E-1,-1.138862193E-2,7.194031477E-1
6.442105125E0,1.884267437E-1,1.146723774E0,1.908180356E-2,1.162258219E0
6.452131125E0,-4.299968570E-1,1.516070752E0,-1.231072783E-1,1.580671764E0
6.462157125E0,-1.139487772E0,1.534936793E0,-5.379251655E-1,1.985907054E0
6.472184125E0,-1.521588623E0,1.411201524E0,-1.171144232E0,2.382918482E0
6.482210125E0,-1.532384484E0,1.264580837E0,-1.264500731E0,2.355064542E0
6.492237125E0,-1.237828803E0,9.679106569E-1,-1.117275515E0,1.928049730E0
6.502263125E0,-8.115526021E-1,9.438768464E-1,-1.224700488E0,1.746256686E0
6.512289125E0,-3.698159248E-2,8.409336913E-1,-9.480821639E-1,1.267831574E0
6.522316125E0,6.462260147E-1,5.795000017E-1,-1.018997780E0,1.338575657E0
6.532342125E0,1.236945288E0,3.817553544E-1,-1.143365133E0,1.727152172E0
6.542369125E0,1.607714748E0,2.893553138E-1,-9.570408292E-1,1.893251266E0
6.552395125E0,1.792988454E0,2.404398465E-1,-7.683624360E-1,1.965451538E0
6.562421125E0,1.956919091E0,1.502360201E-1,-7.444809455E-1,2.099131980E0
6.572448125E0,1.912401753E0,8.808713436E-2,-8.058422112E-1,2.077118552E0
6.582474125E0,1.784259584E0,-6.517540455E-2,-1.029386382E0,2.060938238E0
6.592501125E0,1.421073378E0,-1.021280533E-1,-1.609655877E0,2.149621299E0
6.602527125E0,7.529379196E-1,5.985619247E-2,-2.206281789E0,2.331990053E0
6.612553125E0,2.019714533E-1,2.381687880E-1,-2.315326660E0,2.336290731E0
6.622580125E0,3.112787180E-2,2.859317690E-1,-1.750630785E0,1.774100918E0
6.632606125E0,7.017828226E-2,2.150985986E-1,-1.045609336E0,1.069808993E0
6.642633125E0,-2.631152026E-2,3.336023641E-1,-8.092711647E-1,8.757297822E-1
6.652659125E0,-2.338048647E-1,5.751841718E-1,-7.446288800E-1,9.695224161E-1
6.662686125E0,-4.009743483E-1,8.344877207E-1,-7.402268037E-1,1.185363195E0
6.672712125E0,-5.168731792E-1,1.089337445E0,-8.257894027E-1,1.461417836E0
6.682738125E0,-3.209772022E-1,9.352440172E-1,-9.128382178E-1,1.345727070E0
6.692765125E0,1.584008528E-1,5.252764320E-1,-8.878713378E-1,1.043705740E0
6.702791125E0,6.466614130E-1,7.850120902E-2,-1.104809178E0,1.282550873E0
6.712818125E0,1.080195324E0,-3.442945826E-1,-1.438139062E0,1.831284975E0
6.722844125E0,1.404579260E0,-7.627049625E-1,-1.996228606E0,2.557242735E0
6.732870125E0,1.753008409E0,-1.186263231E0,-2.489834180E0,3.267955504E0
6.742897125E0,2.137613111E0,-1.346910219E0,-2.226221817E0,3.367435305E0
6.752923125E0,2.449568206E0,-1.526440789E0,-1.776984332E0,3.389406909E0
6.762950125E0,2.462798701E0,-1.605544261E0,-1.943546655E0,3.524276297E0
6.772976125E0,2.134428864E0,-1.485714932E0,-2.516944503E0,3.619135955E0
6.783002125E0,1.404573705E0,-1.193944134E0,-2.880312410E0,3.419726520E0
6.793029125E0,9.087175387E-1,-9.238360995E-1,-3.032391765E0,3.297671985E0
6.803055125E0,8.678093947E-1,-1.175420739E0,-2.619578340E0,2.999482912E0
6.813082125E0,1.697935677E0,-2.381526496E0,-1.697151420E0,3.381564277E0
6.823108125E0,2.637089874E0,-4.306940936E0,-1.065533138E0,5.161331620E0
6.833134125E0,3.830546057E0,-6.117560499E0,9.788794488E-2,7.218532510E0
6.843161125E0,5.328724329E0,-6.664648799E0,1.212939983E0,8.618820685E0
6.853187125E0,6.006312543E0,-6.394269454E0,1.596675205E0,8.916941400E0
6.863214125E0,4.873030641E0,-6.248554502E0,7.246957219E-1,7.957137983E0
6.873240125E0,2.149380779E0,-5.795992874E0,-4.488688186E-1,6.197971793E0
6.883267125E0,-1.625195730E0,-5.819692808E0,-8.746376270E-1,6.105331811E0
6.893293125E0,-5.470352079E0,-6.049767880E0,-9.349604273E-1,8.209664687E0
6.903319125E0,-7.397638797E0,-5.500473425E0,-1.870088962E0,9.406247945E0
6.913346125E0,-5.895404896E0,-4.341514353E0,-2.656791775E0,7.788651250E0
6.923372125E0,-3.641174330E0,-3.104189726E0,-2.155077283E0,5.247714022E0
6.933399125E0,-1.371941126E0,-2.273414987E0,-1.147620883E0,2.892692837E0
6.943425083E0,4.535641328E-1,-1.322211580E0,1.591353361E-1,1.406871685E0
6.953451083E0,1.219226325E0,-2.451258051E-1,1.355373479E0,1.839466433E0
6.963478083E0,1.007236691E0,7.925140679E-1,2.372241118E0,2.696318271E0
6.973504083E0,4.241345116E-1,7.687919140E-1,2.469504873E0,2.620951241E0
6.983531083E0,4.610082961E-1,-3.108409077E-1,1.755025991E0,1.840996183E0
6.993557083E0,1.340303888E-1,-1.494068264E0,1.014180844E0,1.810736565E0
7.003583083E0,-8.471361984E-1,-1.994140858E0,8.333342113E-1,2.321353788E0
7.013610083E0,-1.875741173E0,-1.707216817E0,1.148631209E0,2.784303838E0
7.023636083E0,-2.407402034E0,-1.244910219E0,1.466468822E0,3.081544550E0
7.033663083E0,-2.532843082E0,-6.210380369E-1,1.750568073E0,3.140934718E0
7.043689083E0,-2.418104631E0,2.427576828E-1,2.058163192E0,3.184681620E0
7.053715083E0,-2.276558597E0,8.249772245E-1,2.095566076E0,3.202296620E0
7.063742083E0,-2.375122333E0,1.128100392E0,1.638133718E0,3.097950721E0
7.073768083E0,-3.141774751E0,1.640180828E0,1.003597457E0,3.683496924E0
7.083795083E0,-4.073657204E0,2.357339489E0,1.664024750E-1,4.709503399E0
7.093821083E0,-4.249097063E0,2.572086085E0,3.613346115E-1,4.980061785E0
7.103848083E0,-3.769902245E0,2.764992161E0,1.533438152E0,4.920241575E0
7.113874083E0,-3.623030420E0,2.904557598E0,2.567030582E0,5.305888264E0
7.123900083E0,-3.891234601E0,2.753314687E0,3.404002200E0,5.857446497E0
7.133927083E0,-3.838366123E0,2.355419263E0,3.392442255E0,5.638237212E0
7.143953083E0,-3.191374050E0,1.677628151E0,2.065452769E0,4.155165422E0
7.153980083E0,-2.554929185E0,9.127076787E-1,1.379390917E0,3.043586330E0
7.164006083E0,-1.783043801E0,6.463278294E-2,1.782604091E0,2.522122110E0
7.174032083E0,-7.523880621E-1,-8.525702351E-1,1.919818362E0,2.231292528E0
7.184059083E0,3.054924595E-1,-1.441652069E0,1.768575743E0,2.302074389E0
7.194085083E0,1.621678483E0,-1.482248118E0,1.678348528E0,2.764734050E0
7.204112083E0,2.979250807E0,-1.226005586E0,1.936872643E0,3.759055827E0
7.214138083E0,3.917005327E0,-9.251037759E-1,2.153709327E0,4.564779468E0
7.224164083E0,4.354964118E0,-6.191973335E-1,2.166725521E0,4.903449530E0
7.234191083E0,3.889719295E0,-2.537638968E-1,2.228563920E0,4.490079003E0
7.244217083E0,2.646287836E0,2.859598356E-1,2.271114400E0,3.498938833E0
7.254244083E0,1.301555413E0,8.611060005E-1,2.243191899E0,2.732665353E0
7.264270083E0,1.567990811E-1,1.268792002E0,2.151686775E0,2.502833409E0
7.274296083E0,-4.394353594E-1,1.555069926E0,2.171831895E0,2.707064774E0
7.284323083E0,-8.115395920E-1,1.794550830E0,2.126778806E0,2.898654391E0
7.294349083E0,-1.208693735E0,2.028392678E0,2.027537230E0,3.112270011E0
7.304376083E0,-1.647348491E0,2.222413234E0,1.836589094E0,3.320532658E0
7.314402083E0,-1.878689924E0,2.402182370E0,1.629436569E0,3.457603144E0
7.324429083E0,-1.846363885E0,2.576052836E0,1.433182085E0,3.478378746E0
7.334455083E0,-1.508860697E0,2.413113740E0,1.182923301E0,3.082058738E0
7.344481083E0,-9.726077253E-1,1.888765261E0,8.612820017E-1,2.292423758E0
7.354508083E0,-7.568359660E-1,1.122335038E0,5.728581494E-1,1.469899002E0
7.364534083E0,-7.913221130E-1,3.776471007E-1,2.554218748E-1,9.132624778E-1
7.374561083E0,-7.360841976E-1,-2.726439714E-2,4.487650305E-2,7.379547370E-1
7.384587083E0,-5.417635337E-1,-2.761031842E-1,-4.346752873E-1,7.474512025E-1
7.394613083E0,-5.427061048E-1,-4.614569968E-1,-1.432133387E0,1.599524465E0
7.404640083E0,-4.709949750E-1,-3.918277681E-1,-2.444547202E0,2.520154021E0
7.414666083E0,5.803800076E-3,-1.283434600E-1,-2.941093632E0,2.943898348E0
7.424693083E0,3.548675179E-1,4.376266694E-1,-2.883802029E0,2.938326428E0
7.434719083E0,5.481812914E-1,1.214329281E0,-3.166220498E0,3.435120169E0
7.444745083E0,4.051490410E-1,2.080621178E0,-2.210658284E0,3.062701467E0
7.454772083E0,2.307252824E-2,3.200581076E0,5.403464609E-1,3.245955308E0
7.464798083E0,-3.553219928E-1,4.012511993E0,3.267679045E0,5.186929010E0
7.474825083E0,-6.261577128E-1,4.216295060E0,5.037456976E0,6.598877958E0
7.484851083E0,-1.015464308E0,3.697240650E0,5.527986914E0,6.727510350E0
7.494877083E0,-1.379556101E0,2.431258235E0,5.381798337E0,6.064482251E0
7.504904083E0,-1.387615464E0,6.407080704E-1,4.804931921E0,5.042157700E0
7.514930083E0,-1.114079646E0,-1.737491360E0,3.548506195E0,4.105112167E0
7.524957083E0,-5.128567998E-1,-4.242059062E0,1.388890303E0,4.493006060E0
7.534983083E0,8.624488867E-1,-5.907862388E0,-1.077040897E0,6.066850351E0
7.545010083E0,2.176037797E0,-6.359174466E0,-2.316990485E0,7.109337894E0
7.555036083E0,2.186786441E0,-5.087229061E0,-1.502121634E0,5.737447504E0
7.565062083E0,1.028146992E0,-2.426131396E0,7.184101112E-1,2.731174267E0
7.575089083E0,1.161235102E-2,1.886194825E-1,2.085581371E0,2.094125548E0
7.585115083E0,-5.419480864E-1,2.008104594E0,1.838555367E0,2.776054326E0
7.595142083E0,-1.156665210E0,2.948168471E0,6.634426296E-1,3.235695886E0
7.605168083E0,-1.374794421E0,3.046967120E0,-1.906952441E-1,3.348198471E0
7.615194083E0,-8.844068626E-1,2.503360251E0,1.005031121E-1,2.656894601E0
7.625221083E0,4.320405319E-2,1.534584791E0,1.640562651E0,2.246833969E0
7.635247083E0,7.947761364E-1,1.539051479E-1,2.382271432E0,2.516063011E0
7.645274083E0,1.028606510E0,-1.345180612E0,2.019589695E0,2.635580537E0
7.655300083E0,1.450343955E0,-2.156850159E0,1.279405868E0,2.896960402E0
7.665326083E0,1.749513528E0,-2.100919787E0,8.707194078E-1,2.869288034E0
7.675353083E0,1.542591676E0,-1.431649237E0,8.083249390E-1,2.254461759E0
7.685379083E0,9.627041499E-1,-2.931098109E-1,9.018570006E-1,1.351317391E0
7.695406083E0,2.730814163E-1,7.452796751E-1,9.483926511E-1,1.236714953E0
7.705432083E0,-2.687122305E-1,1.260908201E0,7.091608393E-1,1.471395545E0
7.715458083E0,-4.617278691E-1,1.204862055E0,2.707523972E-1,1.318405118E0
7.725485083E0,-4.195837699E-1,7.876427525E-1,-1.954285651E-1,9.135775663E-1
7.735511083E0,-3.871930457E-1,3.312669861E-1,-3.940754743E-1,6.441674861E-1
7.745538083E0,2.281583548E-3,-9.958392978E-3,-2.561233214E-1,2.563270001E-1
7.755564083E0,7.063025010E-1,-1.641167253E-1,4.798873840E-1,8.695340268E-1
7.765591083E0,1.346042492E0,-2.197430420E-1,1.254572158E0,1.853124037E0
7.775617083E0,1.173093328E0,3.150421321E-2,8.765935206E-1,1.464771884E0
7.785643083E0,1.007707391E0,5.517912161E-1,-2.907381072E-1,1.185106063E0
7.795670083E0,7.709932445E-1,1.041442902E0,-9.994786048E-1,1.636456960E0
7.805696083E0,3.128533731E-1,1.459956778E0,-1.250973782E0,1.947892818E0
7.815723083E0,-5.576851364E-2,1.503616768E0,-1.142500915E0,1.889254311E0
7.825749083E0,-1.774963973E-1,1.292331138E0,-1.060160497E0,1.680941707E0
7.835775083E0,-2.259429909E-2,1.100426105E0,-1.188150712E0,1.619614223E0
7.845802083E0,2.355439728E-1,8.782336646E-1,-1.296327856E0,1.583427057E0
7.855828083E0,2.953718063E-1,6.183798927E-1,-1.288348015E0,1.459273382E0
7.865855083E0,5.400368509E-1,4.921040082E-1,-1.235285264E0,1.435177981E0
7.875881083E0,8.192939501E-1,3.437466985E-1,-1.055687304E0,1.379811601E0
7.885907083E0,1.169124238E0,2.379389924E-1,-8.586677116E-1,1.469958056E0
7.895934083E0,1.446382467E0,2.039105362E-1,-5.390380003E-1,1.556972611E0
7.905960083E0,1.570018041E0,1.830792457E-1,-4.176800627E-1,1.634910179E0
7.915987083E0,1.512064971E0,2.146945560E-1,-8.954999077E-1,1.770410775E0
7.926013083E0,1.354044845E0,3.322499031E-1,-1.354933183E0,1.944137693E0
7.936039333E0,1.161800820E0,3.950326270E-1,-1.106707769E0,1.652463012E0
7.946066333E0,9.309711644E-1,4.281512564E-1,-8.585402423E-1,1.336829142E0
7.956092333E0,5.140361101E-1,6.300912809E-1,-1.216541575E0,1.463291341E0
7.966119333E0,1.238166187E-1,7.233619720E-1,-1.498458354E0,1.668520463E0
7.976145333E0,-3.306767828E-1,5.304646665E-1,-1.670204526E0,1.783346028E0
7.986172333E0,-6.448918994E-1,4.114100933E-1,-2.077977651E0,2.214302361E0
7.996198333E0,-7.276391371E-1,5.500282806E-1,-2.272000253E0,2.448259581E0
8.006224333E0,-3.465117006E-1,5.135942799E-1,-2.421964963E0,2.499952744E0
8.016251333E0,5.348974407E-1,1.417838699E-1,-2.631298207E0,2.688856298E0
8.026277333E0,1.810000635E0,-5.432390785E-1,-2.450593808E0,3.094611608E0
8.036304333E0,2.747627393E0,-1.158795936E0,-1.941352195E0,3.558245727E0
8.046330333E0,3.145577488E0,-1.412451659E0,-1.901713043E0,3.937789979E0
8.056356333E0,3.085693814E0,-1.324368033E0,-2.340205685E0,4.092923118E0
8.066383333E0,2.789246997E0,-1.207937105E0,-2.782462180E0,4.120813832E0
8.076409333E0,2.169222721E0,-1.097780240E0,-3.166443277E0,3.992118697E0
8.086436333E0,1.438606108E0,-1.172781891E0,-3.488754960E0,3.951761135E0
8.096462333E0,7.499967702E-1,-1.329618832E0,-3.390739253E0,3.718533862E0
8.106488333E0,7.488078851E-1,-1.865354179E0,-3.082566430E0,3.680010225E0
8.116515333E0,1.537684108E0,-2.905624130E0,-1.990098678E0,3.842865695E0
8.126541333E0,2.312305403E0,-4.121897026E0,-8.590460265E-1,4.803618578E0
8.136568333E0,3.538071254E0,-5.568232715E0,3.075869322E-1,6.604375329E0
8.146594333E0,4.993007612E0,-6.391229487E0,1.918946249E0,8.334284257E0
8.156620333E0,5.609929794E0,-6.496243141E0,3.025689979E0,9.100949791E0
8.166647333E0,4.292532812E0,-6.531391924E0,2.627161302E0,8.245416600E0
8.176673333E0,7.746597411E-1,-6.369445685E0,6.092295849E-1,6.445238300E0
8.186700333E0,-4.703443553E0,-6.329378809E0,-1.448252406E0,8.017534060E0
8.196726333E0,-8.777780496E0,-6.027863626E0,-2.246271043E0,1.088256881E1
8.206753333E0,-8.351445969E0,-4.990199195E0,-2.297863950E0,9.996445194E0
8.216779333E0,-5.048818116E0,-3.849972262E0,-2.194061839E0,6.717645282E0
8.226805333E0,-3.351767269E0,-2.985768991E0,-1.579450477E0,4.758552732E0
8.236832333E0,-1.603600939E0,-2.514969313E0,-5.227498502E-2,2.983176041E0
8.246858333E0,1.120818708E0,-1.884154732E0,1.489391077E0,2.650388539E0
8.256885333E0,2.770985265E0,-1.290251868E0,2.074218476E0,3.693980443E0
8.266911333E0,2.999432180E0,-9.538065881E-1,1.888168991E0,3.670357278E0
8.276937333E0,2.416393297E0,-8.126243967E-1,1.410857269E0,2.913731836E0
8.286964333E0,1.366153405E0,-9.021774280E-1,1.091265857E0,1.967526470E0
8.296990333E0,-4.244192711E-1,-1.356853409E0,1.308871742E0,1.932440976E0
8.307017333E0,-1.508114884E0,-1.604863645E0,1.409504662E0,2.614708630E0
8.317043333E0,-1.996284447E0,-1.581280071E0,1.282834675E0,2.851536965E0
8.327069333E0,-2.337533069E0,-1.010529842E0,1.056743823E0,2.757161388E0
8.337096333E0,-2.552957211E0,4.459846795E-2,8.859467268E-1,2.702680364E0
8.347122333E0,-2.359261615E0,1.014477298E0,8.003569382E-1,2.689953677E0
8.357149333E0,-2.561948183E0,1.356501406E0,8.314816672E-1,3.015797791E0
8.367175333E0,-3.264910389E0,1.659082537E0,9.431313264E-1,3.781757714E0
8.377202333E0,-3.856518512E0,2.082004044E0,1.080963063E0,4.513973529E0
8.387228333E0,-3.793238482E0,2.563180776E0,9.364198923E-1,4.672840259E0
8.397254333E0,-3.287488827E0,3.031439254E0,6.352602196E-1,4.516720302E0
8.407281333E0,-3.107105733E0,3.120697585E0,7.026132734E-1,4.459431002E0
8.417307333E0,-2.542944732E0,2.950496832E0,1.381080762E0,4.132721081E0
8.427334333E0,-2.362834117E0,2.787512712E0,1.531629024E0,3.962208936E0
8.437360333E0,-2.607934487E0,2.377240487E0,1.716551750E0,3.924174376E0
8.447386333E0,-2.518537284E0,1.639626512E0,2.106572875E0,3.670021039E0
8.457413333E0,-1.779015216E0,8.603341681E-1,2.167878592E0,2.933388418E0
8.467439333E0,-5.336739839E-1,1.514732909E-1,1.279104006E0,1.394223489E0
8.477466333E0,1.514670052E-1,-6.174864382E-1,1.370830593E0,1.511095057E0
8.487492333E0,4.441166402E-1,-1.203913636E0,2.344455149E0,2.672661142E0
8.497518333E0,9.629840854E-1,-1.516627992E0,2.810665055E0,3.335766309E0
8.507545333E0,1.872375370E0,-1.563917348E0,2.489730684E0,3.485740363E0
8.517571333E0,2.521308280E0,-1.493335608E0,1.941752729E0,3.515316535E0
8.527598333E0,2.783781019E0,-1.320690134E0,1.871379443E0,3.604957727E0
8.537624333E0,2.519354725E0,-1.056993572E0,2.054399631E0,3.418324368E0
8.547650333E0,1.821393789E0,-7.546153396E-1,2.200469510E0,2.954485693E0
8.557677333E0,1.148413766E0,-5.696386725E-1,2.357205880E0,2.683237216E0
8.567703333E0,3.872182618E-1,-3.489676774E-1,2.623973400E0,2.675248180E0
8.577730333E0,-3.334377649E-1,3.585337222E-2,2.544352741E0,2.566358720E0
8.587756333E0,-6.214416410E-1,3.869938749E-1,2.384130262E0,2.493999013E0
8.597783333E0,-8.473820007E-1,7.152150464E-1,2.144612813E0,2.414322459E0
8.607809333E0,-1.163014117E0,1.118296950E0,1.814500068E0,2.428085748E0
8.617835333E0,-1.453848484E0,1.522520231E0,1.702695749E0,2.707566450E0
8.627862333E0,-1.390189555E0,1.889690291E0,1.424825244E0,2.744755612E0
8.637888333E0,-1.148443440E0,2.075979073E0,8.884107435E-1,2.533354515E0
8.647915333E0,-8.998474588E-1,2.058663129E0,6.676026312E-1,2.343824353E0
8.657941333E0,-7.521143393E-1,2.212760065E0,8.149331698E-1,2.475095787E0
8.667967333E0,-5.954740101E-1,2.629948962E0,1.114143381E0,2.917625115E0
8.677994333E0,-5.725994101E-1,3.295353332E0,1.154675403E0,3.538431708E0
8.688020333E0,-5.633571549E-1,3.515903875E0,9.610951424E-1,3.688177763E0
8.698047333E0,-5.087293965E-1,3.111904542E0,7.426934516E-1,3.239498270E0
8.708073333E0,-4.417818470E-1,2.549628099E0,4.673015812E-1,2.629476262E0
8.718099333E0,-4.236667344E-1,1.839390203E0,-7.354627848E-3,1.887565604E0
8.728126333E0,-3.325470878E-1,1.176788403E0,-5.861895087E-1,1.356110855E0
8.738152333E0,-3.640688427E-1,4.894417709E-1,-1.206399580E0,1.351850330E0
8.748179333E0,-2.490114261E-1,6.865391314E-2,-1.820571524E0,1.838804156E0
8.758205333E0,-5.972930789E-4,4.676544607E-2,-2.381619175E0,2.382078348E0
8.768231333E0,2.508521296E-1,3.031839788E-1,-2.875069212E0,2.901873583E0
8.778258333E0,3.304222097E-1,6.069708055E-1,-2.940084695E0,3.020213637E0
8.788284333E0,2.916504921E-1,8.929066676E-1,-2.450285367E0,2.624164764E0
8.798311333E0,3.275235987E-1,1.171336459E0,-1.464197763E0,1.903464183E0
8.808337333E0,3.907334617E-1,1.461831980E0,-7.908768475E-2,1.515216234E0
8.818364333E0,4.595236149E-1,1.600129155E0,1.869061899E0,2.502991739E0
8.828390333E0,2.030264372E-1,1.285996850E0,3.839649295E0,4.054369783E0
8.838416333E0,-6.930330491E-1,-8.252175450E-2,4.509252551E0,4.562944577E0
8.848443333E0,-1.770014158E0,-2.159189045E0,4.288535363E0,5.117282776E0
8.858469333E0,-2.495965862E0,-4.139041062E0,3.402564662E0,5.910918100E0
8.868496333E0,-3.190705714E0,-5.443915063E0,1.269424963E0,6.436478377E0
8.878522333E0,-3.225429111E0,-4.894899520E0,-1.199829941E0,5.983562998E0
8.888548333E0,-2.010421845E0,-2.101574675E0,-1.543751471E0,3.292655572E0
8.898575333E0,-5.192052680E-1,6.063644493E-1,7.335811508E-1,1.084155552E0
8.908601333E0,7.267687060E-1,2.185304464E0,2.945627563E0,3.739046683E0
8.918628333E0,1.475978733E0,2.612816620E0,3.619410117E0,4.701643702E0
8.928654333E0,1.532193280E0,2.206802337E0,3.540534686E0,4.444432322E0
8.938680833E0,1.291028671E0,1.338851586E0,3.645292232E0,4.092362894E0
8.948707833E0,9.981036320E-1,3.327825844E-1,3.298552344E0,3.462282870E0
8.958733833E0,9.188656007E-1,-5.200180310E-1,2.271512303E0,2.504895385E0
8.968760833E0,9.267906245E-1,-1.071410467E0,1.102462179E0,1.795072173E0
8.978786833E0,8.045773123E-1,-1.306857376E0,5.661156520E-1,1.635759085E0
8.988813833E0,6.605916003E-1,-1.298468961E0,5.378361782E-1,1.552955459E0
8.998839833E0,3.538913253E-1,-9.271216500E-1,4.364256513E-1,1.084094541E0
9.008865833E0,-8.507874191E-2,-2.873976660E-1,-1.484483801E-2,3.000936186E-1
9.018892833E0,-6.053999510E-1,5.002041560E-1,-3.747398651E-1,8.701397962E-1
9.028918833E0,-1.165318943E0,1.370103784E0,-5.942477028E-1,1.894276366E0
9.038945833E0,-1.636886360E0,1.915010489E0,-1.779517492E-1,2.525535380E0
9.048971833E0,-1.632340443E0,1.698244849E0,4.082970357E-1,2.390664627E0
9.058997833E0,-6.147016286E-1,9.725358045E-1,2.887284557E-1,1.186190585E0
9.069024833E0,7.162023488E-1,3.862963021E-2,-1.432602735E-1,7.314106635E-1
9.079050833E0,1.560664396E0,-8.274728161E-1,-4.332202077E-2,1.766992195E0
9.089077833E0,2.027817750E0,-1.352605407E0,3.284825420E-1,2.459570490E0
9.099103833E0,2.219519739E0,-1.480468225E0,7.171300095E-1,2.762667097E0
9.109129833E0,2.163643746E0,-8.148937011E-1,1.115521862E0,2.567059607E0
9.119156833E0,2.159777567E0,2.431459379E-1,1.180182127E0,2.473173859E0
9.129182833E0,1.769387191E0,1.107584851E0,4.539538862E-1,2.136246560E0
9.139209833E0,7.972744323E-1,1.650550280E0,-7.147104317E-1,1.967428207E0
9.149235833E0,-4.770026967E-2,1.539045632E0,-1.574599627E0,2.202339837E0
9.159261833E0,-3.059310738E-1,8.438514519E-1,-1.899690784E0,2.101072147E0
9.169288833E0,-5.307638977E-1,3.504160327E-1,-1.969805916E0,2.069936486E0
9.179314833E0,-3.909400877E-1,3.849701536E-1,-1.956414038E0,2.031893713E0
9.189341833E0,-2.571451955E-2,7.092853850E-1,-1.652718428E0,1.798673176E0
9.199367833E0,4.179460013E-1,1.011181222E0,-1.166634713E0,1.599438301E0
9.209394833E0,8.621965063E-1,1.134501339E0,-7.936905277E-1,1.631079630E0
9.219420833E0,1.211184210E0,8.953823787E-1,-5.008819214E-1,1.587312034E0
9.229446833E0,1.597492938E0,5.384279895E-1,-2.964801461E-1,1.711662602E0
9.239473833E0,1.816445582E0,3.650773412E-1,-1.908133578E-1,1.862569665E0
9.249499833E0,1.812530579E0,2.971309412E-1,-3.200707376E-1,1.864403168E0
9.259526833E0,1.673652922E0,2.748588967E-1,-6.136167508E-1,1.803659345E0
9.269552833E0,1.361076122E0,2.486791581E-1,-8.806864254E-1,1.640115274E0
9.279578833E0,9.963734409E-1,2.119258994E-1,-1.114221880E0,1.509689709E0
9.289605833E0,7.215288699E-1,2.672885066E-1,-1.314818360E0,1.523415366E0
9.299631833E0,4.465975408E-1,3.882422554E-1,-1.353847940E0,1.477526872E0
9.309658833E0,2.697099117E-1,4.472827613E-1,-1.330530998E0,1.429376802E0
9.319684833E0,2.091027175E-1,5.604100120E-1,-1.314628472E0,1.444309990E0
9.329710833E0,4.091143303E-2,6.920676738E-1,-1.110434346E0,1.309082063E0
9.339737833E0,-1.336206452E-1,8.630735886E-1,-1.010790628E0,1.335832396E0
9.349763833E0,-1.176625704E-1,1.031754066E0,-1.078990505E0,1.497525106E0
9.359790833E0,-1.910546286E-1,1.009072716E0,-1.140520755E0,1.534769433E0
9.369816833E0,-3.319431435E-1,9.085386139E-1,-1.363657521E0,1.671882322E0
9.379842833E0,-2.438439493E-1,9.181426656E-1,-1.486855724E0,1.764422220E0
9.389869833E0,1.816811764E-1,7.657010758E-1,-1.398588495E0,1.604791565E0
9.399895833E0,9.346016275E-1,4.034432620E-1,-1.448273164E0,1.770237788E0
9.409922833E0,1.620775381E0,1.108281255E-2,-1.582517634E0,2.265258865E0
9.419948833E0,2.079192264E0,-4.197452992E-1,-1.792582072E0,2.777152692E0
9.429975833E0,2.245792741E0,-8.278224796E-1,-1.974531343E0,3.102845326E0
9.440001833E0,2.221026859E0,-1.245908339E0,-2.056513400E0,3.273300362E0
9.450027833E0,1.804628067E0,-1.337453517E0,-2.253758695E0,3.181963643E0
9.460054833E0,1.372139492E0,-1.298902824E0,-2.578685253E0,3.196800426E0
9.470080833E0,1.042742080E0,-1.137832498E0,-3.098145167E0,3.461282611E0
9.480107833E0,1.158730885E0,-1.050666300E0,-2.772268437E0,3.183084860E0
9.490133833E0,1.985671459E0,-1.627712225E0,-1.494041075E0,2.970605488E0
9.500159833E0,2.996148676E0,-2.519253568E0,-3.311798626E-1,3.928514418E0
9.510186833E0,3.792674226E0,-3.520964055E0,-8.260127664E-2,5.175750055E0
9.520212833E0,4.420938545E0,-4.484512104E0,2.641505983E-1,6.302802707E0
9.530239833E0,4.707973683E0,-5.052473211E0,1.605785167E0,7.090207878E0
9.540265833E0,4.634402554E0,-5.553854996E0,2.586204480E0,7.681890780E0
9.550291833E0,3.227444939E0,-6.521332374E0,2.286337334E0,7.627025316E0
9.560318833E0,-5.273476620E-1,-6.685934418E0,4.511264285E-1,6.721854629E0
9.570344833E0,-5.759525544E0,-6.200892677E0,-2.327348535E0,8.777229386E0
9.580371833E0,-8.352427717E0,-5.681897909E0,-3.102363056E0,1.056748168E1
9.590397833E0,-7.824359824E0,-4.718558605E0,-1.881718197E0,9.328786917E0
9.600423833E0,-4.919300535E0,-3.492686335E0,-1.136347013E0,6.139190511E0
9.610450833E0,-2.798832337E0,-2.545521015E0,-9.022569501E-1,3.889371067E0
9.620476833E0,-2.191274325E0,-2.204816038E0,-3.259723324E-1,3.125564731E0
9.630503833E0,-2.392513999E-1,-1.925541909E0,2.748995349E-1,1.959725141E0
9.640529833E0,1.365019776E0,-1.545269993E0,1.471241319E0,2.532921112E0
9.650556833E0,1.926520733E0,-1.180848125E0,2.305409197E0,3.228125771E0
9.660582833E0,1.651371814E0,-8.919290131E-1,2.236296862E0,2.919518777E0
9.670608833E0,1.206261878E0,-7.392558736E-1,1.796920121E0,2.287026210E0
9.680635833E0,4.863246202E-1,-9.620149094E-1,1.444832370E0,1.802643864E0
9.690661833E0,-1.991064638E-1,-1.184808444E0,9.570512080E-1,1.536021304E0
9.700688833E0,-9.465293627E-1,-1.171779678E0,4.961327398E-1,1.585917130E0
9.710714833E0,-1.536153453E0,-8.907116228E-1,2.706664431E-1,1.796216844E0
9.720740833E0,-1.725807600E0,-1.916284597E-1,2.959678569E-1,1.761456872E0
9.730767833E0,-1.886928943E0,6.557050091E-1,4.380920712E-1,2.045085465E0
9.740793833E0,-1.922889466E0,1.191059117E0,4.849996412E-1,2.313298591E0
9.750820833E0,-1.884456740E0,1.397711413E0,4.787121302E-1,2.394564617E0
9.760846833E0,-1.886786271E0,1.157519488E0,2.476740217E-1,2.227365309E0
9.770873833E0,-2.185356212E0,8.262408078E-1,-2.882841221E-1,2.354052544E0
9.780899833E0,-2.789591982E0,9.130012089E-1,-3.635833776E-1,2.957632078E0
9.790925833E0,-3.410868586E0,1.369050116E0,3.425873053E-1,3.691299065E0
9.800952833E0,-3.397548044E0,1.803984143E0,1.404457930E0,4.095142681E0
9.810978833E0,-2.678937519E0,2.165742019E0,1.749612054E0,3.863714154E0
9.821005833E0,-2.048480787E0,2.293119519E0,1.611092684E0,3.471352806E0
9.831031833E0,-1.663704761E0,2.147893978E0,1.542627636E0,3.124269851E0
9.841057833E0,-9.909141880E-1,1.730862372E0,1.525948892E0,2.511237842E0
9.851084833E0,-1.245155802E-1,1.302438051E0,1.845142694E0,2.261946190E0
9.861110833E0,6.271295931E-1,8.560335410E-1,2.320137603E0,2.551298384E0
9.871137833E0,1.069077867E0,2.037415516E-1,1.842974692E0,2.140325634E0
9.881163833E0,1.223091334E0,-1.599026370E-1,1.908858779E0,2.272721519E0
9.891189833E0,1.287116299E0,-3.286585432E-1,2.220836532E0,2.587817557E0
9.901216833E0,1.219731816E0,-4.973097843E-1,2.592931117E0,2.908325033E0
9.911242833E0,1.148097139E0,-4.951463145E-1,2.535326979E0,2.826867490E0
9.921269833E0,9.903816529E-1,-3.554212493E-1,2.502395753E0,2.714620524E0
9.931295833E0,8.570955415E-1,-2.036380559E-1,2.616931598E0,2.761233821E0
9.941321125E0,7.875505127E-1,-1.788838685E-1,2.664232064E0,2.783948229E0
9.951348125E0,6.632895787E-1,-1.300537705E-1,2.391697289E0,2.485373810E0
9.961374125E0,5.458548304E-1,-8.301935256E-2,2.127132854E0,2.197622326E0
9.971401125E0,2.917136420E-1,5.174727380E-2,1.947322495E0,1.969730826E0
9.981427125E0,-3.563410163E-2,2.683942151E-1,1.638765217E0,1.660980638E0
9.991454125E0,-4.174102136E-1,4.465068358E-1,1.399726071E0,1.527361357E0
1.000148013E1,-8.014315103E-1,6.680338633E-1,1.175692927E0,1.571882809E0
1.001150612E1,-1.120530587E0,9.744607079E-1,9.863431272E-1,1.782704471E0
1.002153312E1,-1.499561870E0,1.401810311E0,7.578777936E-1,2.188181139E0
1.003155912E1,-1.743971683E0,1.796587999E0,5.237318900E-1,2.558018914E0
1.004158613E1,-1.739097006E0,2.228254602E0,3.408634365E-1,2.847062495E0
1.005161213E1,-1.155987956E0,2.580682077E0,1.122843745E-1,2.829988678E0
1.006163812E1,-6.263338602E-1,2.644477538E0,-6.082273722E-2,2.718318407E0
1.007166512E1,-3.647377641E-1,2.427071044E0,-7.703706622E-3,2.454336333E0
1.008169112E1,-2.976077816E-1,1.905341533E0,-2.463256538E-2,1.928601439E0
1.009171813E1,-7.640512839E-2,1.297118838E0,1.727337670E-1,1.310798222E0
1.010174413E1,1.461027695E-1,8.316032892E-1,2.537589267E-1,8.816482535E-1
1.011177012E1,1.765845971E-1,6.812111485E-1,1.216323182E-1,7.141604649E-1
1.012179712E1,4.548932049E-1,6.361425644E-1,-1.857157552E-1,8.038006792E-1
1.013182312E1,6.738068193E-1,5.403254110E-1,-1.031641214E0,1.345455601E0
1.014185012E1,8.154494789E-1,5.401178348E-1,-2.020124423E0,2.244457131E0
1.015187613E1,9.193379827E-1,8.470726830E-1,-2.554702605E0,2.844155386E0
1.016190313E1,1.026907455E0,1.409224581E0,-2.910414461E0,3.392781333E0
1.017192912E1,8.824578394E-1,1.963116117E0,-2.118205618E0,3.019826446E0
1.018195512E1,9.405138204E-1,2.549537467E0,4.014745045E-1,2.746978216E0
1.019198212E1,9.243070927E-1,3.111165454E0,2.979142342E0,4.405562754E0
1.020200813E1,6.268131857E-1,3.322899565E0,4.638647048E0,5.740348659E0
1.021203513E1,9.290830985E-2,2.763472470E0,5.381052232E0,6.049887203E0
1.022206112E1,-7.503939423E-1,1.066882383E0,5.729974301E0,5.876558055E0
1.023208712E1,-1.469804366E0,-1.594585410E0,5.593103262E0,5.998819184E0
1.024211412E1,-1.893872804E0,-4.558148430E0,3.443993355E0,6.018684369E0
1.025214013E1,-2.110787694E0,-7.118849401E0,-4.970792578E-1,7.441809543E0
1.026216713E1,-2.080759757E0,-7.672060322E0,-2.372711234E0,8.295771775E0
1.027219312E1,-1.617163410E0,-4.932884787E0,-4.459272306E-1,5.210318695E0
1.028221912E1,-1.141039038E0,-1.294012213E0,1.625749461E0,2.370548250E0
1.029224612E1,-8.621419810E-1,1.169458918E0,2.603178070E0,2.981184164E0
1.030227213E1,-9.207237728E-1,2.428804743E0,2.396854534E0,3.534365064E0
1.031229913E1,-1.137411133E0,2.904440653E0,1.559508694E0,3.487340958E0
1.032232512E1,-9.242083479E-1,2.863489094E0,1.294480136E0,3.275577763E0
1.033235112E1,-4.800028300E-1,2.438274894E0,1.642389175E0,2.978763062E0
1.034237812E1,5.523209008E-1,1.433610393E0,1.901827795E0,2.444840710E0
1.035240413E1,1.590737942E0,2.934892952E-2,1.808715709E0,2.408892085E0
1.036243113E1,2.308770908E0,-1.314375141E0,1.501079661E0,3.051433313E0
1.037245712E1,2.624604314E0,-2.118659070E0,1.002520326E0,3.518850816E0
1.038248412E1,2.658750884E0,-2.097877480E0,5.351863662E-1,3.428771009E0
1.039251012E1,2.343145081E0,-1.256708146E0,1.772524953E-1,2.664781920E0
1.040253613E1,1.787851675E0,-7.107349098E-2,-3.378567251E-1,1.820882264E0
1.041256313E1,1.146068813E0,9.494948512E-1,-8.476135504E-1,1.712735510E0
1.042258912E1,6.053378244E-1,1.261005265E0,-8.692248595E-1,1.646851547E0
1.043261612E1,3.916534480E-1,9.121533626E-1,-6.061188662E-1,1.163097700E0
1.044264212E1,4.869075876E-1,2.664704812E-1,-4.339943790E-1,7.045825979E-1
1.045266813E1,7.112498302E-1,-2.286120987E-1,-4.201423252E-1,8.571227368E-1
1.046269513E1,8.429164090E-1,-1.569556403E-1,-3.459698099E-1,9.245746346E-1
1.047272112E1,8.503798681E-1,2.047595519E-1,-9.217550755E-3,8.747327349E-1
1.048274812E1,5.899700991E-1,9.413602048E-1,3.192492403E-1,1.155916879E0
1.049277412E1,2.971835661E-1,1.685716020E0,4.239722514E-1,1.763436713E0
1.050280012E1,5.454041563E-2,1.984519265E0,1.179922072E-1,1.988771865E0
1.051282713E1,-1.921457921E-1,1.669670091E0,-4.124567449E-1,1.730560251E0
1.052285313E1,-3.675824346E-1,1.104681709E0,-7.200810262E-1,1.368924837E0
1.053288012E1,-2.544634431E-1,6.323354423E-1,-1.098426869E0,1.292726322E0
1.054290612E1,2.142624468E-2,3.982064956E-1,-1.295965768E0,1.355933172E0
1.055293312E1,5.336007475E-1,1.343795407E-1,-1.433939592E0,1.535893997E0
1.056295913E1,8.904115145E-1,8.867477953E-2,-1.610724310E0,1.842587497E0
1.057298513E1,9.428718562E-1,2.379360688E-1,-1.907746493E0,2.141288769E0
1.058301212E1,8.805512086E-1,4.338224709E-1,-1.982189734E0,2.211933206E0
1.059303812E1,7.068564516E-1,6.077759671E-1,-1.798339679E0,2.025601953E0
1.060306512E1,5.580421455E-1,7.091456366E-1,-1.482497794E0,1.735539766E0
1.061309113E1,5.255655403E-1,7.607204175E-1,-1.141065570E0,1.468654256E0
1.062311713E1,5.026194946E-1,7.704466760E-1,-1.011721651E0,1.367404525E0
1.063314412E1,5.441464568E-1,6.206480277E-1,-1.006170305E0,1.301413855E0
1.064317012E1,6.084784735E-1,2.573312831E-1,-1.168920536E0,1.342699021E0
1.065319712E1,5.972375304E-1,-1.448062956E-1,-1.524732233E0,1.643919071E0
1.066322313E1,3.986684257E-1,-1.463856286E-1,-1.736937190E0,1.788104043E0
1.067324913E1,1.632173505E-1,-4.364478707E-2,-1.641454059E0,1.650126116E0
1.068327612E1,-1.426100083E-1,1.603680754E-1,-1.634449680E0,1.648478477E0
1.069330212E1,-5.312683663E-1,4.380470842E-1,-1.578096846E0,1.721778436E0
1.070332912E1,-5.989649440E-1,5.850934482E-1,-1.414794200E0,1.643999992E0
1.071335512E1,-4.420649254E-1,5.626079804E-1,-1.471132707E0,1.635903597E0
1.072338213E1,-6.433450185E-2,3.296554935E-1,-1.728297783E0,1.760631960E0
1.073340813E1,4.755977570E-1,1.442163116E-1,-1.668609698E0,1.741048505E0
1.074343412E1,1.079517339E0,-5.736235499E-2,-1.485938296E0,1.837569249E0
1.075346112E1,1.462963270E0,-2.363801247E-1,-1.659532773E0,2.224901372E0
1.076348712E1,1.465136095E0,-4.153745055E-1,-2.046463790E0,2.550916267E0
1.077351413E1,1.372708134E0,-6.949170220E-1,-2.312687519E0,2.777725841E0
1.078354013E1,1.335408892E0,-1.147592086E0,-2.544187850E0,3.094054996E0
1.079356612E1,1.216231527E0,-1.499853500E0,-3.037864759E0,3.599639140E0
1.080359312E1,1.491621058E0,-1.495224259E0,-3.431522413E0,4.029388916E0
1.081361912E1,2.003527393E0,-1.409539745E0,-3.690449986E0,4.429485908E0
1.082364613E1,3.144800685E0,-1.694931232E0,-3.188150480E0,4.788200781E0
1.083367213E1,4.427009709E0,-2.473972730E0,-2.026855445E0,5.461419140E0
1.084369812E1,5.254983923E0,-3.646435947E0,-1.225877240E0,6.512612852E0
1.085372512E1,5.258747191E0,-5.525626393E0,-3.622294548E-1,7.636634025E0
1.086375112E1,5.251939278E0,-7.153873639E0,2.636720037E-1,8.878642753E0
1.087377813E1,5.252095984E0,-7.425394945E0,1.115236518E0,9.163228405E0
1.088380413E1,4.923155605E0,-7.120460894E0,1.713506374E0,8.824654585E0
1.089383012E1,2.882891325E0,-6.357689858E0,9.906285515E-1,7.050718236E0
1.090385712E1,-1.551932018E0,-5.896188422E0,-5.440781540E-1,6.121237778E0
1.091388312E1,-5.778126706E0,-5.875298075E0,-1.419168063E0,8.361812824E0
1.092391013E1,-7.828922991E0,-5.243367845E0,-1.747731881E0,9.583293186E0
1.093393613E1,-7.864441903E0,-3.516738272E0,-2.229337214E0,8.898698721E0
1.094396408E1,-5.824866425E0,-1.863654978E0,-2.207674303E0,6.502007734E0
1.095399008E1,-4.088195721E0,-9.316643518E-1,-7.787900680E-1,4.264722346E0
1.096401608E1,-2.539278235E0,-5.891555089E-1,5.552613924E-1,2.665211696E0
1.097404308E1,-7.279722092E-1,-2.348259348E-1,1.351256893E0,1.552733701E0
1.098406908E1,5.984367943E-1,8.045944154E-2,1.705294837E0,1.809041403E0
1.099409608E1,1.357536364E0,-9.987336695E-2,1.700928136E0,2.178539922E0
1.100412208E1,1.400337836E0,-8.310162288E-1,1.027990725E0,1.925694409E0
1.101414808E1,8.083151449E-1,-1.525177206E0,6.389041313E-1,1.840580716E0
1.102417508E1,2.750710045E-1,-1.736035988E0,1.065720030E0,2.055539879E0
1.103420108E1,-5.536959466E-1,-1.538255673E0,1.342672157E0,2.115556248E0
1.104422808E1,-1.224691059E0,-9.579475862E-1,1.250503081E0,1.995316948E0
1.105425408E1,-1.381385256E0,-2.186893737E-1,9.279753435E-1,1.678448243E0
1.106428108E1,-1.327570260E0,1.897824937E-1,4.945376194E-1,1.429345182E0
1.107430708E1,-1.579295233E0,4.580469006E-1,2.083924270E-1,1.657530633E0
1.108433308E1,-1.707253362E0,6.303462195E-1,2.775229247E-1,1.840942522E0
1.109436008E1,-1.577709761E0,6.007657403E-1,5.651802436E-1,1.780313532E0
1.110438608E1,-1.460890139E0,3.521000308E-1,1.538900621E0,2.150904357E0
1.111441308E1,-1.574132873E0,2.674598300E-1,2.687408381E0,3.125954713E0
1.112443908E1,-2.433949416E0,7.698613697E-1,2.701124779E0,3.716567147E0
1.113446508E1,-3.143035119E0,1.583119605E0,3.025951642E0,4.641262843E0
1.114449208E1,-2.881824793E0,2.174325147E0,3.337636303E0,4.916545542E0
1.115451808E1,-2.355841432E0,2.287627814E0,3.162036231E0,4.558695317E0
1.116454508E1,-1.971903897E0,1.663529930E0,2.894644813E0,3.877461205E0
1.117457108E1,-1.792925888E0,1.033000107E0,2.155299185E0,2.987806392E0
1.118459708E1,-1.737165817E0,4.622340918E-1,1.664620728E0,2.449972979E0
1.119462408E1,-1.310235020E0,1.871600175E-1,1.958215273E0,2.363546432E0
1.120465008E1,-6.206524862E-1,1.473738080E-1,2.391883085E0,2.475486465E0
1.121467708E1,1.366593701E-1,6.143611014E-2,2.749964525E0,2.754043403E0
1.122470308E1,9.786375202E-1,-1.646201706E-1,2.799545405E0,2.970233269E0
1.123472908E1,1.915554864E0,-4.228174263E-1,2.460836960E0,3.147037267E0
1.124475608E1,2.422540767E0,-5.860974151E-1,2.289843324E0,3.384611706E0
1.125478208E1,2.494327765E0,-5.688522220E-1,2.373795308E0,3.490009744E0
1.126480908E1,2.365805234E0,-1.946210647E-1,2.334462550E0,3.329358371E0
1.127483508E1,1.863960495E0,5.094602984E-1,2.023856408E0,2.798194647E0
1.128486208E1,1.086411645E0,1.148918234E0,1.566926618E0,2.226109251E0
1.129488808E1,5.847557715E-1,1.661008025E0,1.387024457E0,2.241589574E0
1.130491408E1,2.928588192E-1,2.175473540E0,1.544275966E0,2.683885183E0
1.131494108E1,-7.126732618E-3,2.720505375E0,1.745905211E0,3.232550896E0
1.132496708E1,-3.968025792E-1,3.134099404E0,1.781091709E0,3.626612611E0
1.133499408E1,-7.530355681E-1,3.471946846E0,1.581466597E0,3.888767680E0
1.134502008E1,-8.347210246E-1,3.579723310E0,1.219341515E0,3.872721510E0
1.135504608E1,-7.796320671E-1,3.468248482E0,7.608353153E-1,3.635305224E0
1.136507308E1,-6.348883367E-1,3.122985601E0,1.364222655E-1,3.189785776E0
1.137509908E1,-3.781638484E-1,2.648692212E0,-4.137878636E-1,2.707360102E0
1.138512608E1,-9.393888161E-2,2.105230354E0,-8.287428313E-1,2.264427971E0
1.139515208E1,5.024760917E-2,1.623107543E0,-1.257467407E0,2.053832320E0
1.140517808E1,1.366830513E-1,1.007848309E0,-1.632599621E0,1.923492135E0
1.141520508E1,1.318017957E-1,3.235153323E-1,-2.017915345E0,2.047929740E0
1.142523108E1,9.290918693E-2,-3.251408583E-1,-2.300197282E0,2.324920693E0
1.143525808E1,-1.754940914E-1,-8.213168675E-1,-2.336549129E0,2.482905839E0
1.144528408E1,-3.672837880E-1,-9.797793353E-1,-2.277488158E0,2.506355369E0
1.145531108E1,-3.589345488E-1,-7.282268554E-1,-2.230406962E0,2.373576116E0
1.146533708E1,-2.256753346E-1,2.200950444E-2,-2.027581669E0,2.040220870E0
1.147536308E1,-1.323784773E-1,1.078875023E0,-1.476212330E0,1.833220723E0
1.148539008E1,1.673512588E-1,1.752867199E0,-6.647772565E-1,1.882147354E0
1.149541608E1,1.676757793E-1,1.907274622E0,-6.314028114E-2,1.915671774E0
1.150544308E1,2.056970067E-1,1.480086987E0,-1.525079557E-1,1.502074374E0
1.151546908E1,2.801762085E-1,3.938772172E-1,-2.883650878E-1,5.628431343E-1
1.152549508E1,1.089448835E-1,-1.489263023E0,1.441228438E0,2.075310278E0
1.153552208E1,-5.107012238E-1,-3.795503109E0,3.091406543E0,4.921732826E0
1.154554808E1,-1.430244298E0,-5.534025918E0,2.613394032E0,6.284971757E0
1.155557508E1,-1.744082342E0,-5.924912285E0,2.420439132E0,6.633621514E0
1.156560108E1,-1.599141999E0,-4.362961355E0,2.495277937E0,5.274381376E0
1.157562708E1,-1.617407970E0,-1.350116247E0,2.480162300E0,3.254232237E0
1.158565408E1,-1.464660424E0,1.337390367E0,2.098244393E0,2.887295046E0
1.159568008E1,-1.156996016E0,3.221614096E0,1.833259982E0,3.883076013E0
1.160570708E1,-1.144828838E0,4.269826904E0,2.990272809E0,5.337020361E0
1.161573308E1,-1.445580813E0,4.420273424E0,4.260070825E0,6.306879138E0
1.162576008E1,-2.255382467E0,3.725320149E0,4.365218672E0,6.166027436E0
1.163578608E1,-2.591382481E0,1.990963481E0,3.007271834E0,4.441045219E0
1.164581208E1,-1.368587601E0,2.386774957E-2,1.897925509E0,2.340026267E0
1.165583908E1,3.816559517E-1,-1.726657054E0,2.463333721E0,3.032328952E0
1.166586508E1,1.760188497E0,-3.287612788E0,2.802458196E0,4.664807963E0
1.167589208E1,2.678811804E0,-3.953528205E0,2.323960512E0,5.311046075E0
1.168591808E1,3.181817653E0,-3.228626661E0,1.551445091E0,4.791135102E0
1.169594408E1,2.745457783E0,-1.781241397E0,1.028949741E0,3.430611742E0
1.170597108E1,1.482752002E0,-3.636149526E-1,1.006621563E0,1.828676107E0
1.171599708E1,5.654098199E-1,8.194861042E-1,7.227977888E-1,1.230318001E0
1.172602408E1,-7.815534621E-4,1.826981242E0,5.512404084E-2,1.827812826E0
1.173605008E1,-4.438249373E-1,2.346254922E0,-2.545667195E-1,2.401394792E0
1.174607608E1,-6.103880645E-1,2.168818824E0,-1.143060493E-1,2.255973084E0
1.175610308E1,-4.278635734E-1,1.304341904E0,3.149566897E-1,1.408393679E0
1.176612908E1,2.398139021E-1,3.299583793E-2,6.241785765E-1,6.694761596E-1
1.177615608E1,9.677794600E-1,-9.228315479E-1,6.940902257E-1,1.506644082E0
1.178618208E1,1.172973460E0,-1.251715794E0,4.997357941E-1,1.786727464E0
1.179620908E1,1.182085834E0,-9.499316382E-1,2.616020894E-1,1.538873838E0
1.180623508E1,1.120576780E0,-1.691769058E-1,3.379807591E-2,1.133779280E0
1.181626108E1,8.011417808E-1,8.428849071E-1,-9.620306969E-2,1.166849669E0
1.182628808E1,3.678936526E-1,1.668454455E0,-2.037006211E-1,1.720633590E0
1.183631408E1,1.092034401E-1,2.106062413E0,-2.670318139E-1,2.125730526E0
1.184634108E1,-3.127076313E-2,1.906105179E0,-3.764016803E-1,1.943165726E0
1.185636708E1,-4.667927273E-2,1.304155378E0,-4.517822303E-1,1.380980589E0
1.186639308E1,-1.417832851E-1,8.380767417E-1,-7.867487133E-1,1.158209248E0
1.187642008E1,-3.372838441E-2,7.678388178E-1,-1.461016878E0,1.650843533E0
1.188644608E1,2.047109469E-1,8.670532036E-1,-1.548851997E0,1.786793312E0
1.189647308E1,4.742925488E-1,8.537718379E-1,-1.315301925E0,1.638260946E0
1.190649908E1,5.385084983E-1,6.133156192E-1,-1.044483454E0,1.325553898E0
1.191652508E1,6.825552041E-1,2.626680368E-1,-9.510453866E-1,1.199734734E0
1.192655208E1,1.032039118E0,1.263992608E-1,-1.133864577E0,1.538418146E0
1.193657808E1,1.292959568E0,3.787300050E-2,-1.131252772E0,1.718403807E0
1.194660512E1,1.383923240E0,3.364370942E-2,-8.611413762E-1,1.630318957E0
1.195663112E1,9.128085431E-1,2.526909328E-1,-6.388299447E-1,1.142442927E0
1.196665812E1,3.327251355E-1,8.204684365E-1,-9.802108598E-1,1.320866307E0
1.197668413E1,-1.848534006E-1,1.380559775E0,-1.380773930E0,1.961288535E0
1.198671012E1,-4.330344855E-1,1.486213700E0,-1.578570909E0,2.210935581E0
1.199673712E1,-6.758916441E-1,1.253455340E0,-1.933845247E0,2.401611385E0
1.200676312E1,-7.462558678E-1,7.014302355E-1,-1.995258846E0,2.242757244E0
1.201679012E1,-4.893962357E-1,2.458099294E-1,-1.672915442E0,1.760277612E0
1.202681613E1,5.873250380E-2,2.006647468E-2,-1.418444470E0,1.419801706E0
1.203684213E1,7.040285920E-1,-1.821992397E-2,-1.368163678E0,1.538785259E0
1.204686912E1,1.114575563E0,1.081407452E-1,-1.608918397E0,1.960252921E0
1.205689512E1,1.354847960E0,3.155099094E-1,-1.839633447E0,2.306384772E0
1.206692212E1,1.634702279E0,4.590900439E-1,-1.821136365E0,2.489890132E0
1.207694813E1,1.637071425E0,4.883079958E-1,-2.028925652E0,2.652354963E0
1.208697413E1,1.638084894E0,3.322154045E-2,-2.313892045E0,2.835228771E0
1.209700112E1,1.600410114E0,-6.246738356E-1,-2.605216409E0,3.120686218E0
1.210702712E1,1.421970195E0,-1.200338064E0,-2.931214761E0,3.472006722E0
1.211705412E1,1.494855738E0,-1.628996274E0,-3.103541270E0,3.810536833E0
1.212708013E1,1.928170232E0,-1.771836736E0,-3.366896062E0,4.265352852E0
1.213710713E1,2.368585585E0,-1.714845679E0,-3.829664297E0,4.818425262E0
1.214713312E1,2.874115531E0,-1.781797467E0,-3.945371339E0,5.196277255E0
1.215715912E1,3.509317571E0,-2.132841491E0,-3.289500854E0,5.261666894E0
1.216718612E1,4.335576505E0,-2.905525897E0,-2.418286772E0,5.752166138E0
1.217721213E1,4.698027862E0,-3.961733603E0,-2.080488738E0,6.488083871E0
1.218723913E1,5.343279219E0,-5.671288721E0,-1.285493404E0,7.897255337E0
1.219726512E1,6.495114044E0,-6.986194789E0,4.946551484E-1,9.551864101E0
1.220729112E1,7.160061747E0,-7.529238571E0,1.823213004E0,1.054893470E1
1.221731812E1,5.896066800E0,-7.994215007E0,1.308086461E0,1.001909015E1
1.222734413E1,2.623905864E0,-8.113361966E0,-4.236921698E-2,8.527210536E0
1.223737113E1,-2.348970954E0,-7.544985123E0,-1.220964409E0,7.995950171E0
1.224739713E1,-7.588231130E0,-6.591123571E0,-2.170195844E0,1.028269963E1
1.225742312E1,-8.928893598E0,-5.045097533E0,-1.659724562E0,1.038907290E1
1.226745012E1,-6.262298967E0,-3.256985072E0,-2.829129978E-1,7.064303212E0
1.227747612E1,-4.247105209E0,-2.129054834E0,1.077137815E0,4.871447733E0
1.228750313E1,-3.592405336E0,-1.770998245E0,1.945639958E0,4.452788534E0
1.229752913E1,-2.785297202E0,-1.582765263E0,2.319568668E0,3.955177012E0
1.230755612E1,-1.618891993E0,-1.498285861E0,2.452888840E0,3.298838503E0
1.231758212E1,-6.576236267E-1,-2.089813001E0,2.209609732E0,3.111617325E0
1.232760812E1,-3.969221547E-1,-3.242652377E0,1.526294024E0,3.605816840E0
1.233763513E1,-6.192044232E-1,-3.837931091E0,1.417520025E0,4.137933324E0
1.234766113E1,-9.600670557E-1,-3.672684098E0,1.697142064E0,4.158200142E0
1.235768812E1,-1.573582357E0,-2.861438475E0,1.774592528E0,3.716607354E0
1.236771412E1,-1.782314069E0,-1.400686476E0,1.423810460E0,2.676901618E0
1.237774012E1,-1.693250742E0,-2.332542032E-1,1.130255091E0,2.049141813E0
1.238776713E1,-1.818295788E0,4.314087403E-1,9.495702803E-1,2.096186249E0
1.239779313E1,-2.081853478E0,9.165954924E-1,6.914847064E-1,2.377480242E0
1.240782012E1,-1.774773792E0,1.163738587E0,4.131163108E-1,2.162122706E0
1.241784612E1,-1.593861232E0,1.270378352E0,5.754923201E-1,2.117887201E0
1.242787212E1,-2.259183011E0,1.437173687E0,2.006449978E0,3.345925521E0
1.243789913E1,-2.720311248E0,1.797506597E0,3.280147648E0,4.624985605E0
1.244792513E1,-2.905131502E0,2.558882487E0,3.718019900E0,5.367619641E0
1.245795212E1,-2.622780275E0,3.373759232E0,3.782367339E0,5.706796861E0
1.246797812E1,-2.375573008E0,3.935303603E0,3.355932240E0,5.691418344E0
1.247800512E1,-1.947575241E0,3.982908125E0,2.412157867E0,5.047287591E0
1.248803112E1,-1.369102302E0,3.255694007E0,1.410493426E0,3.803087731E0
1.249805713E1,-1.589185506E0,2.319888073E0,1.214403687E0,3.063032412E0
1.250808413E1,-1.463002008E0,1.654386054E0,1.933410799E0,2.935207898E0
1.251811012E1,-1.048994654E0,1.285776994E0,2.683652422E0,3.155250003E0
1.252813712E1,-3.153474299E-1,9.764481765E-1,3.051266577E0,3.219180450E0
1.253816312E1,5.291832492E-1,5.464316583E-1,3.036267007E0,3.130102204E0
1.254818913E1,1.162858873E0,1.594652653E-2,2.735521902E0,2.972469534E0
1.255821613E1,1.819630999E0,-5.393465871E-1,2.279979364E0,2.966522815E0
1.256824212E1,2.259613658E0,-8.953233218E-1,1.946244560E0,3.113731784E0
1.257826912E1,2.280371566E0,-9.186490345E-1,1.849111491E0,3.076235335E0
1.258829512E1,1.849374323E0,-6.178641683E-1,1.823518521E0,2.669674383E0
1.259832113E1,1.103006628E0,-1.209736294E-1,1.779363856E0,2.096996417E0
1.260834813E1,3.015072897E-1,3.801023465E-1,1.559786875E0,1.633499169E0
1.261837412E1,-2.619698793E-1,9.065172315E-1,1.357770545E0,1.653463807E0
1.262840112E1,-5.042860242E-1,1.466226162E0,1.264926116E0,2.001040137E0
1.263842712E1,-5.921378081E-1,1.936159868E0,1.187581486E0,2.347273312E0
1.264845413E1,-6.373861941E-1,2.217364748E0,8.337916097E-1,2.453197104E0
1.265848013E1,-7.458399115E-1,2.310810270E0,2.209779739E-1,2.438227336E0
1.266850612E1,-8.082682210E-1,2.289270882E0,-3.159662846E-1,2.448242917E0
1.267853312E1,-6.890569425E-1,2.279216595E0,-5.954348338E-1,2.454418546E0
1.268855912E1,-7.762061834E-1,2.141431051E0,-7.252538386E-1,2.390442661E0
1.269858613E1,-9.358037420E-1,1.811149905E0,-8.530608165E-1,2.209910718E0
1.270861213E1,-8.084624217E-1,1.406902651E0,-7.649804065E-1,1.793929090E0
1.271863812E1,-5.793030967E-1,1.013914211E0,-4.753713235E-1,1.260790228E0
1.272866512E1,-3.873258506E-1,8.928300691E-1,-3.643321136E-1,1.039184649E0
1.273869112E1,-2.657169212E-1,1.001304106E0,-1.917223075E-1,1.053552484E0
1.274871812E1,-1.296387644E-1,1.252048500E0,1.190177357E-1,1.264356310E0
1.275874413E1,-1.132892185E-1,1.511330999E0,3.021083835E-1,1.545388401E0
1.276877012E1,-2.867857549E-1,1.701744992E0,3.351086068E-1,1.757976071E0
1.277879712E1,-2.513028768E-1,1.772776383E0,3.662555552E-1,1.827575545E0
1.278882312E1,-1.234773340E-1,1.726144254E0,4.494064701E-1,1.787956043E0
1.279885012E1,6.734406374E-2,1.695268031E0,3.969429123E-1,1.742421475E0
1.280887613E1,7.914659545E-2,1.732803063E0,-8.682618231E-2,1.736781340E0
1.281890313E1,-1.962574080E-2,1.734792286E0,-6.854223132E-1,1.865393575E0
1.282892912E1,-6.658151373E-2,1.523732944E0,-7.311358452E-1,1.691376601E0
1.283895512E1,7.697201595E-2,1.042949145E0,-4.327106228E-1,1.131771219E0
1.284898212E1,1.245149955E-1,3.263389528E-2,1.342468674E0,1.348625632E0
1.285900813E1,-4.740575273E-1,-1.574508410E0,3.252136854E0,3.644201063E0
1.286903513E1,-1.858495395E0,-3.646480386E0,3.723889043E0,5.533369132E0
1.287906112E1,-3.339381404E0,-5.478956841E0,4.177906043E0,7.656718300E0
1.288908712E1,-4.753843336E0,-6.562873333E0,3.195748645E0,8.711093057E0
1.289911412E1,-5.420412179E0,-6.515003348E0,-6.294948649E-1,8.498376351E0
1.290914013E1,-4.528636071E0,-4.782832954E0,-3.610501299E0,7.511308498E0
1.291916713E1,-2.702667567E0,-1.566165603E0,-1.350324115E0,3.403037157E0
1.292919312E1,-8.094823223E-1,1.808622154E0,3.233825421E0,3.792624761E0
1.293921946E1,8.279039021E-1,4.103844332E0,5.711008272E0,7.081142468E0
1.294924546E1,1.112892515E0,4.783391363E0,5.356790965E0,7.267363492E0
1.295927146E1,4.454415462E-1,4.627568328E0,5.049371263E0,6.863596503E0
1.296929846E1,-3.227370679E-2,3.296292980E0,4.589186035E0,5.650417460E0
1.297932446E1,5.828653666E-1,1.010151528E0,3.379164398E0,3.574757358E0
1.298935146E1,1.818119494E0,-1.503126771E0,2.188850362E0,3.218076210E0
1.299937746E1,3.261128994E0,-3.389564255E0,1.417346217E0,4.912532795E0
1.300940346E1,4.127572918E0,-4.019070815E0,1.016054146E0,5.849970464E0
1.301943046E1,4.036860384E0,-3.129243291E0,8.849703880E-1,5.183780273E0
1.302945646E1,3.140175245E0,-1.526375300E0,5.002409935E-1,3.527146606E0
1.303948346E1,1.806251985E0,2.348534167E-2,-6.531486064E-3,1.806416468E0
1.304950946E1,5.724135417E-1,1.164529130E0,-8.518843567E-1,1.552253947E0
1.305953546E1,-2.850785141E-1,1.826515803E0,-1.629689169E0,2.464409975E0
1.306956246E1,-9.152092637E-1,1.620257610E0,-1.383860528E0,2.319032704E0
1.307958846E1,-1.243445492E0,9.620727968E-1,-1.043542053E0,1.886987221E0
1.308961546E1,-8.492432425E-1,4.535369432E-1,-8.355905056E-1,1.274802470E0
1.309964146E1,7.982487246E-2,-2.997458160E-2,-1.923851625E-1,2.104341620E-1
1.310966846E1,6.811629090E-1,-3.031980121E-1,4.809007065E-1,8.872302027E-1
1.311969446E1,8.149660604E-1,-2.207125103E-1,7.573828268E-1,1.134245317E0
1.312972046E1,6.735344122E-1,3.329100537E-1,8.793019509E-1,1.156568039E0
1.313974746E1,3.367851863E-1,1.109862342E0,1.162277952E0,1.641983166E0
1.314977346E1,4.060006879E-2,1.674406335E0,1.039300482E0,1.971149521E0
1.315980046E1,-1.158384949E-1,1.908470378E0,3.449553180E-1,1.942851490E0
1.316982646E1,-3.214006137E-2,1.746091445E0,-1.173477709E-2,1.746426644E0
1.317985246E1,3.058480799E-1,1.235295058E0,-1.183827098E-1,1.278088962E0
1.318987946E1,7.557928958E-1,8.187908703E-1,-1.612386892E-1,1.125894891E0
1.319990546E1,1.219133208E0,4.997743857E-1,-8.182005208E-2,1.320134363E0
1.320993246E1,1.205723423E0,2.802687407E-1,-4.360736489E-1,1.312432766E0
1.321995846E1,1.235240679E0,2.461379582E-1,-9.485043329E-1,1.576725689E0
1.322998446E1,1.249211285E0,3.727535659E-1,-1.046156416E0,1.671501511E0
1.324001146E1,1.218908967E0,5.957926834E-1,-1.121340499E0,1.760145592E0
1.325003746E1,1.224636461E0,5.847578180E-1,-1.025605207E0,1.701041507E0
1.326006446E1,1.105023625E0,3.768881321E-1,-9.019341838E-1,1.475332894E0
1.327009046E1,7.749973447E-1,-1.477123618E-2,-9.139760128E-1,1.198411960E0
1.328011746E1,7.700971587E-1,1.225055999E-1,-1.104750706E0,1.352231999E0
1.329014346E1,6.823678739E-1,2.566173381E-1,-1.106807172E0,1.325330332E0
1.330016946E1,5.380912995E-1,3.268768966E-1,-1.158022203E0,1.318107042E0
1.331019646E1,2.524184160E-1,4.607336962E-1,-1.422225865E0,1.516152039E0
1.332022246E1,-1.767485384E-1,2.503421062E-1,-1.661253024E0,1.689281748E0
1.333024946E1,-1.688590365E-1,4.301439875E-1,-1.692316503E0,1.754272604E0
1.334027546E1,7.012496296E-2,6.773876542E-1,-1.225506380E0,1.402011923E0
1.335030146E1,6.396272857E-2,6.863859344E-1,-8.853753076E-1,1.122099067E0
1.336032846E1,-7.535591863E-2,6.563341695E-1,-1.049618479E0,1.240222564E0
1.337035446E1,-3.986880139E-2,5.660139835E-1,-1.023163775E0,1.169968145E0
1.338038146E1,7.589970969E-2,5.644767505E-1,-8.777454221E-1,1.046342102E0
1.339040746E1,2.573306984E-1,6.275494963E-1,-5.999601401E-1,9.055327870E-1
1.340043346E1,3.503014272E-1,3.815255588E-1,-4.986657536E-1,7.189856576E-1
1.341046046E1,5.867213130E-1,1.235867500E-1,-7.632209793E-1,9.705780994E-1
1.342048646E1,7.329450468E-1,-1.173237973E-1,-1.062257382E0,1.295902797E0
1.343051346E1,8.069876808E-1,-1.199339944E-1,-1.552004377E0,1.753376990E0
1.344053946E1,9.529534062E-1,-2.642339212E-1,-2.137915266E0,2.355551198E0
1.345056646E1,1.086228042E0,-3.549552262E-1,-2.537359471E0,2.782818294E0
1.346059246E1,1.222127055E0,-2.897967786E-1,-2.832926867E0,3.098879047E0
1.347061846E1,1.570040991E0,-5.048655564E-1,-3.187254687E0,3.588664150E0
1.348064546E1,1.987777187E0,-5.502036971E-1,-3.549569219E0,4.105292181E0
1.349067146E1,2.420941992E0,-5.952056229E-1,-3.805969040E0,4.549794523E0
1.350069846E1,3.023414535E0,-6.527217597E-1,-3.799615456E0,4.899403919E0
1.351072446E1,3.526184157E0,-1.059638268E0,-3.935231098E0,5.389142025E0
1.352075046E1,3.991735374E0,-1.219759006E0,-3.529853577E0,5.466409206E0
1.353077746E1,3.984586861E0,-2.116609036E0,-2.535507366E0,5.175496485E0
1.354080346E1,3.653225442E0,-3.386765193E0,-1.730926837E0,5.273740828E0
1.355083046E1,3.194252635E0,-4.682507597E0,-1.498822051E0,5.863070427E0
1.356085646E1,3.424617729E0,-5.875216799E0,-6.608336020E-1,6.832487107E0
1.357088246E1,3.878782955E0,-6.443890681E0,1.234377337E0,7.621835194E0
1.358090946E1,3.959487103E0,-7.351999524E0,2.711345712E0,8.779568935E0
1.359093546E1,2.059918087E0,-7.426254485E0,3.288347491E0,8.378887004E0
1.360096246E1,-2.152526435E0,-5.558424595E0,2.872752838E0,6.616809117E0
1.361098846E1,-5.558204155E0,-4.759418364E0,1.146736053E0,7.406800940E0
1.362101546E1,-5.228888969E0,-4.811922267E0,4.228747290E-1,7.118616354E0
1.363104146E1,-3.637530638E0,-3.644735577E0,1.377003937E0,5.330278268E0
1.364106746E1,-2.739756748E0,-2.136287255E0,2.178392470E0,4.100656537E0
1.365109446E1,-2.476205197E0,-1.718003760E0,2.000279850E0,3.617215583E0
1.366112046E1,-2.271763734E0,-1.655438552E0,1.792918287E0,3.334058075E0
1.367114746E1,-2.447144097E0,-1.562270772E0,2.275345153E0,3.688685370E0
1.368117346E1,-2.039283117E0,-1.377689377E0,2.566473343E0,3.555768422E0
1.369119946E1,-1.460630669E0,-1.943914445E0,2.290165506E0,3.340225047E0
1.370122646E1,-1.961937318E0,-2.959149542E0,2.077519230E0,4.113617654E0
1.371125246E1,-2.735086577E0,-3.074652516E0,2.029961486E0,4.588565169E0
1.372127946E1,-3.280843174E0,-2.490768857E0,1.802659748E0,4.496381167E0
1.373130546E1,-3.236856617E0,-1.844083763E0,1.428363102E0,3.989750222E0
1.374133146E1,-2.914556921E0,-1.592796162E0,1.334398931E0,3.579422044E0
1.375135846E1,-2.845975221E0,-1.261937896E0,1.044961756E0,3.283901229E0
1.376138446E1,-3.110787140E0,-1.242469007E-1,1.039099265E0,3.282097074E0
1.377141146E1,-3.194673927E0,1.670469405E0,1.355910838E0,3.851610537E0
1.378143746E1,-3.116088225E0,2.606632605E0,1.774931667E0,4.433387168E0
1.379146446E1,-2.284984727E0,3.691225035E0,1.955329964E0,4.761261674E0
1.380149046E1,-2.104965768E0,3.940943828E0,2.274908366E0,5.013693968E0
1.381151646E1,-2.431324601E0,3.770005156E0,2.674544506E0,5.222783406E0
1.382154346E1,-2.534989302E0,3.581535362E0,2.978044235E0,5.303047593E0
1.383156946E1,-2.376911874E0,3.040101904E0,2.832236311E0,4.786803961E0
1.384159646E1,-2.251371130E0,2.691023129E0,2.436290495E0,4.271508963E0
1.385162246E1,-2.551424949E0,1.707258332E0,2.482852896E0,3.948298214E0
1.386164846E1,-2.351943971E0,6.841809493E-1,2.682001168E0,3.632199647E0
1.387167546E1,-1.450149389E0,-8.043780684E-2,2.682019587E0,3.050021730E0
1.388170146E1,-3.974670787E-1,4.467208439E-1,2.429362568E0,2.501867718E0
1.389172846E1,1.356024127E-2,-3.589196384E-2,2.506334145E0,2.506627806E0
1.390175446E1,9.380091655E-1,1.089844984E-1,2.414239621E0,2.592352554E0
1.391178146E1,1.828319377E0,-2.330431187E-1,2.294885963E0,2.943393012E0
1.392180746E1,1.964815317E0,-1.288697094E-1,2.246774780E0,2.987491179E0
1.393183346E1,1.667469053E0,-1.310805416E-1,3.331957195E0,3.728213231E0
1.394186008E1,1.531108329E0,-1.387398094E-1,3.051089991E0,3.416532099E0
1.395188608E1,1.038315080E0,-2.891296113E-1,2.418156671E0,2.647484811E0
1.396191308E1,9.229694691E-1,-2.378407592E-1,2.121020760E0,2.325332220E0
1.397193908E1,3.092445593E0,6.298418387E0,1.717895586E0,7.223881171E0
1.398196508E1,8.188148439E-1,5.563094766E0,4.464788569E0,7.180029115E0
1.399199208E1,-1.682173777E0,-5.139117837E-3,3.574923038E0,3.950925177E0
1.400201808E1,-9.084335833E-1,1.030858272E-1,5.175414428E-1,1.050584317E0
1.401204508E1,-1.160279593E0,-1.317225659E0,1.539630353E-2,1.755439893E0
1.402207108E1,-1.654138716E0,-3.080219650E-1,8.408500761E-2,1.684672880E0
1.403209708E1,-1.837563240E0,7.803395802E-1,2.568094191E-1,2.012838692E0
1.404212408E1,-1.485167048E0,3.590646493E-1,6.701400304E-1,1.668453249E0
1.405215008E1,-1.039959610E0,-1.247895223E0,5.001684880E-1,1.699684381E0
1.406217708E1,-3.762284200E-1,-1.705319980E0,2.375969303E-1,1.762417759E0
1.407220308E1,-1.509877528E-1,-1.484702779E0,5.788285951E-1,1.600681788E0
1.408223008E1,-2.214650835E-1,-9.463104576E-1,7.949174197E-1,1.255565199E0
1.409225608E1,-6.732133269E-1,-5.127955502E-1,1.023130592E0,1.327769433E0
1.410228208E1,-1.057419980E0,-2.421144891E-1,2.016783908E0,2.290016108E0
1.411230908E1,-2.063156275E0,2.546146667E-1,2.952199541E0,3.610668162E0
1.412233508E1,-2.349781524E0,1.892995137E-1,3.493027228E0,4.214089075E0
1.413236208E1,-2.461297721E0,-5.319802648E-1,3.726967310E0,4.497918941E0
1.414238808E1,-1.627122534E0,-1.243867661E0,3.023541420E0,3.651922400E0
1.415241408E1,-6.031647067E-1,-1.381290677E0,2.513549609E0,2.930819550E0
1.416244108E1,-1.540634795E-1,-9.723533714E-1,1.803578200E0,2.054775160E0
1.417246708E1,3.315263832E-1,8.142592782E-1,7.015419904E-1,1.124761788E0
1.418249408E1,-1.045910394E0,8.719952703E-3,-1.218146855E0,1.605579756E0
1.419252008E1,-1.398412348E0,-7.006104559E-1,-5.156014828E-1,1.646893134E0
1.420254608E1,1.138938133E0,2.272233850E0,1.303436609E0,2.856426742E0
1.421257308E1,2.415106471E0,4.098893495E0,1.716320347E0,5.057610372E0
1.422259908E1,3.048249999E0,4.413993514E0,1.816203654E0,5.663370243E0
1.423262608E1,3.168728661E0,3.232225623E0,1.953431958E0,4.929910772E0
1.424265208E1,2.920208547E0,9.110716277E-1,2.379369897E0,3.875444565E0
1.425267908E1,2.513552533E0,-6.241996264E-1,2.827783656E0,3.834570630E0
1.426270508E1,1.449485292E0,-5.501440555E-1,2.630664661E0,3.053532815E0
1.427273108E1,3.375047958E-1,3.581068754E-2,2.345773112E0,2.370199018E0
1.428275808E1,-1.619405378E-1,-5.647357821E-2,2.211413451E0,2.218053980E0
1.429278408E1,-1.505254573E-1,1.521036208E-2,2.119527966E0,2.124920720E0
1.430281108E1,-4.238392273E-1,-4.159592271E-1,1.693440192E0,1.794547701E0
1.431283708E1,-1.492163826E0,-1.650428073E0,-1.489789857E0,2.677674276E0
1.432286308E1,-3.248762133E0,-1.827009308E0,-5.586406446E0,6.715679816E0
1.433289008E1,-3.824491850E0,-1.378215042E0,-3.664082844E0,5.472816250E0
1.434291608E1,-3.826855295E0,1.224915665E-1,-5.024254402E-1,3.861639154E0
1.435294308E1,-3.390438707E0,1.966649004E0,1.694262310E0,4.270047740E0
1.436296908E1,-2.818295379E0,2.116507294E0,2.723642406E0,4.454281079E0
1.437299608E1,-3.262503967E0,-2.950176989E0,2.354644361E0,4.989170920E0
1.438302208E1,-2.790570514E0,-3.773621659E0,6.000716758E-1,4.731552624E0
1.439304808E1,-4.685573073E-1,-9.215059841E-1,-2.038431762E0,2.285590357E0
1.440307508E1,1.263041558E0,1.500737599E0,-1.063304399E0,2.231166413E0
1.441310108E1,3.412302031E0,3.907113592E0,7.068313086E-1,5.235355983E0
1.442312808E1,4.910315704E0,3.685946168E0,8.729998219E-1,6.201574651E0
1.443315408E1,4.029244093E0,2.657988700E0,3.002711298E0,5.684715211E0
1.444318008E1,3.013294466E0,3.348599247E0,6.167892162E0,7.637797731E0
1.445320708E1,2.189346644E0,7.297050315E-1,6.532709302E0,6.928347493E0
1.446323308E1,-5.358067923E-1,-2.687330613E0,-2.489670750E0,3.702336449E0
1.447326008E1,-3.000839312E0,-3.174556873E0,-6.679136446E0,7.980834015E0
1.448328608E1,-3.673399798E0,-2.722161891E0,-4.892127939E0,6.696039666E0
1.449331308E1,-3.269956828E0,-1.756276125E0,-4.315971376E0,5.692515472E0
1.450333908E1,-3.540270976E0,1.518006181E0,-2.830980914E0,4.780409426E0
1.451336508E1,9.109103908E-1,-2.396593017E0,-5.999032760E-1,2.633115981E0
1.452339208E1,2.623798276E0,-6.263424556E0,3.802804527E0,7.783066672E0
1.453341808E1,2.670645290E0,-5.807356353E0,4.989135586E0,8.108588531E0
1.454344508E1,2.858611054E0,-4.836363044E0,2.043573804E0,5.978148421E0
1.455347108E1,-9.235274213E-2,-2.277468862E0,-1.130436282E0,2.544264065E0
1.456349708E1,-1.772272207E0,9.788747710E-1,-2.721930342E0,3.392351600E0
1.457352408E1,-1.953028646E0,2.450321912E0,-2.155525618E0,3.803247173E0
1.458355008E1,-1.670432714E0,3.017640994E0,5.114302254E-1,3.486841479E0
1.459357708E1,-1.489288019E0,3.106566619E0,2.883632752E0,4.492668785E0
1.460360308E1,-5.933312248E-1,2.087052530E0,3.196385114E0,3.863250963E0
1.461362908E1,-7.699628189E-2,2.118502949E0,3.149890394E0,3.796813489E0
1.462365608E1,-2.299728920E-1,2.359769592E0,2.250716096E0,3.269116548E0
1.463368208E1,-7.030522531E-1,1.507177722E0,2.801611884E-1,1.686522294E0
1.464370908E1,1.203632531E-1,5.018092167E-1,-1.367234555E0,1.461379531E0
1.465373508E1,8.747347639E-1,-9.038684428E-2,-1.881098392E0,2.076502311E0
1.466376108E1,2.254981640E0,-4.092776138E-1,-1.064644654E0,2.527037515E0
1.467378808E1,3.162784089E0,-1.057488831E0,-4.934570174E-1,3.371199438E0
1.468381408E1,3.143296197E0,-2.282238436E0,-1.120726469E0,4.042888952E0
1.469384108E1,-1.878777084E-1,-4.888172883E-1,-1.473098395E0,1.563412695E0
1.470386708E1,-1.881820231E0,-7.012133038E-1,-3.363786221E0,3.917653024E0
1.471389408E1,-2.575174584E0,1.459086712E0,-2.184550173E0,3.678684226E0
1.472392008E1,-2.749567499E0,9.263416314E-1,-1.573836930E-1,2.905684063E0
1.473394608E1,-1.908922514E0,-3.209260683E0,4.938791863E-1,3.766597396E0
1.474397308E1,-8.190132107E-1,-5.730942600E0,5.212967805E-1,5.812592886E0
1.475399908E1,-2.180240629E0,-3.573629926E0,-5.803677285E-1,4.226240262E0
1.476402608E1,-3.436778768E0,1.046113658E0,-4.445168456E-2,3.592739628E0
1.477405208E1,2.789269216E0,-2.913863441E0,3.052013230E-1,4.045215787E0
1.478407808E1,6.493038282E0,-4.781032596E0,-3.421229267E-1,8.070617505E0
1.479410508E1,5.600167868E0,-3.511972792E0,3.324012729E-1,6.618634575E0
1.480413108E1,4.034453670E0,-4.034156631E0,1.462684504E0,5.889879633E0
1.481415808E1,2.324927495E0,-6.462681878E0,7.233672345E-1,6.906142561E0
1.482418408E1,1.301055769E0,-8.888805088E0,-1.000497190E0,9.039059499E0
1.483421108E1,8.168984190E-1,-9.322673752E0,2.050571569E-1,9.360641930E0
1.484423708E1,4.876241639E-1,-8.025374819E0,9.029293799E-1,8.090716889E0
1.485426308E1,3.455888638E-1,-6.844562362E0,3.646791915E-2,6.853378401E0
1.486429008E1,2.495109538E0,-6.692724205E0,-6.645828366E-1,7.173548581E0
1.487431608E1,2.854985780E0,-5.942582570E0,-4.951059687E-1,6.611381197E0
1.488434308E1,5.666829050E-2,-4.964305969E0,1.461599261E0,5.175308440E0
1.489436908E1,-7.274953687E-1,-4.557985877E0,2.399927684E0,5.202320411E0
1.490439508E1,-9.459701496E-1,-4.480544769E0,-3.108122563E-1,4.589852417E0
1.491442208E1,-1.491366851E0,-4.836988696E0,-1.528955677E0,5.287564675E0
1.492444808E1,1.457295125E0,-1.689631900E0,1.170123746E0,2.519475069E0
1.493447508E1,1.886275809E0,-3.176156672E0,-1.321247812E-1,3.696412394E0
1.494450108E1,-3.394873235E0,-4.622483005E0,-3.382616009E0,6.658423573E0
1.495452708E1,-6.557399755E0,-1.854114661E0,-2.918247684E0,7.413056202E0
1.496455408E1,-7.760103017E0,-2.242151095E0,-4.277702519E0,9.140305203E0
1.497458008E1,-3.965069732E0,-3.436133820E-1,-5.531040915E0,6.814122228E0
1.498460708E1,-2.207926757E0,-2.166036719E-1,2.360970025E0,3.239758814E0
1.499463308E1,1.499018225E0,3.294797262E0,-3.629220575E0,5.125815703E0
1.500466008E1,7.826273618E0,3.692247128E0,-1.119613451E0,8.725639339E0
1.501468608E1,1.679452015E1,5.632055658E0,-1.040618796E1,2.054421343E1
1.502471208E1,1.708537352E1,7.711982771E0,-7.505367898E0,2.019195914E1
1.503473908E1,1.576085404E1,7.007089230E0,-1.049874002E0,1.728022150E1
1.504476508E1,1.472425030E1,6.128954968E0,-1.139782252E0,1.598958221E1
1.505479208E1,1.192583603E1,5.130510736E0,-1.467301465E0,1.306524700E1
1.506481808E1,8.160358377E0,3.778767208E0,-4.855486947E-1,9.005902953E0
1.507484408E1,5.399289697E0,3.229117827E0,4.644993031E-1,6.308350877E0
1.508487108E1,4.291336764E0,2.563179021E0,1.637054906E0,5.259791506E0
1.509489708E1,3.124364374E0,1.430095047E0,3.156027632E0,4.665547663E0
1.510492408E1,1.283203635E0,4.834624082E-1,4.544580551E0,4.746952691E0
1.511495008E1,-3.573508304E-1,-5.656999880E-1,5.037487382E0,5.081731517E0
1.512497708E1,-1.396530860E0,-2.043917328E0,5.015046353E0,5.592726205E0
1.513500308E1,-1.291119595E0,-3.600865088E0,5.179501047E0,6.438978978E0
1.514502908E1,-7.573658699E-1,-4.539762153E0,5.386539844E0,7.085044457E0
1.515505608E1,-1.234099887E0,-5.351326157E0,4.628638369E0,7.182199337E0
1.516508208E1,-3.276774974E0,-5.667221982E0,2.331638052E0,6.949186660E0
1.517510908E1,-6.055375945E0,-4.787925294E0,-7.741742760E-1,7.758295706E0
1.518513508E1,-7.610986739E0,-3.574902573E0,-2.899602082E0,8.894646692E0
1.519516108E1,-7.584852024E0,-4.450279580E0,-3.941539074E0,9.636944476E0
1.520518808E1,-7.749783851E0,-5.767305849E0,-3.846051704E0,1.039774400E1
1.521521408E1,-7.710279477E0,-6.146835169E0,-3.230956192E0,1.037646713E1
1.522524108E1,-7.205692248E0,-5.624158409E0,-2.647125742E0,9.516324568E0
1.523526708E1,-6.097046127E0,-4.665268836E0,-1.932327018E0,7.916602333E0
1.524529308E1,-5.142092316E0,-3.698653922E0,-1.010453244E0,6.414216240E0
1.525532008E1,-4.479013968E0,-3.058793113E0,-5.567870772E-1,5.452319991E0
1.526534608E1,-3.600176870E0,-2.814495859E0,-4.137986809E-1,4.588451785E0
1.527537308E1,-3.264577097E0,-2.921119251E0,-4.174789184E-1,4.400532917E0
1.528539908E1,-3.272236950E0,-3.895808585E0,-9.654051250E-1,5.178500386E0
1.529542608E1,-3.364652193E0,-4.523960930E0,-1.338345802E0,5.794676553E0
1.530545208E1,-3.542263123E0,-4.069224430E0,-1.382950702E0,5.569449536E0
1.531547808E1,-3.218789598E0,-3.413562398E0,-1.411592118E0,4.899551717E0
1.532550508E1,-2.324482230E0,-2.954920251E0,-1.335231575E0,3.989688545E0
1.533553108E1,-9.778453687E-1,-2.772728905E0,-8.467434847E-1,3.059604823E0
1.534555808E1,1.201339692E-2,-2.842510161E0,-2.120580465E-1,2.850434520E0
1.535558408E1,1.011155494E0,-3.069170752E0,3.863851798E-1,3.254464325E0
1.536561008E1,2.071302470E0,-3.043946448E0,7.708249909E-1,3.761658553E0
1.537563708E1,2.431958147E0,-2.976883562E0,2.841121155E-1,3.854474785E0
1.538566308E1,2.662588120E0,-3.044214250E0,-1.963056475E-1,4.049092714E0
1.539569008E1,4.977703695E0,-3.299308389E0,1.481220762E0,6.152803009E0
1.540571608E1,8.479502331E0,-3.724082294E0,6.293896151E-1,9.282611701E0
1.541574308E1,7.367152584E0,-3.031701209E0,-1.610437211E0,8.127709236E0
1.542576908E1,1.700647762E0,-1.579873815E0,-2.405994170E0,3.343203857E0
1.543579508E1,-1.549880522E0,-8.602745265E-1,-4.028303568E0,4.401071635E0
1.544582208E1,-1.012285177E0,-1.834877322E0,-4.690231184E0,5.137096907E0
1.545584808E1,2.736084697E-1,-2.767428696E0,-3.581116701E0,4.534084253E0
1.546587508E1,4.176813783E-1,-2.564559549E0,-2.380579247E0,3.524000705E0
1.547590108E1,-4.774796833E-1,-2.052200201E0,-1.432152098E0,2.547660131E0
1.548592708E1,-1.010199329E0,-2.091549624E0,-4.968174487E-1,2.375270530E0
1.549595408E1,-7.874989110E-1,-2.176929497E0,5.869820988E-1,2.388247172E0
1.550598008E1,-5.045195474E-1,-2.111462901E0,1.230471690E0,2.495370942E0
1.551600708E1,-5.077239677E-2,-1.790413924E0,1.228469018E0,2.171933697E0
1.552603308E1,1.791640963E-1,-1.545072942E0,4.338096070E-1,1.614788204E0
1.553606008E1,-2.083681610E-1,-1.318630745E0,-2.628738588E-1,1.360627428E0
1.554608608E1,-4.083651558E-2,-8.956548589E-1,-2.472734874E-1,9.300588288E-1
1.555611208E1,6.882551430E-1,-6.152171338E-1,8.064012051E-2,9.266553257E-1
1.556613908E1,9.295793809E-1,-4.145757759E-1,-2.730047446E-1,1.053813309E0
1.557616508E1,9.853517318E-1,-3.710713220E-1,-9.344616598E-1,1.407775037E0
1.558619208E1,1.213943511E0,-1.831798178E-1,-1.293881820E0,1.783632209E0
1.559621808E1,6.515324360E-1,1.486479163E-1,-1.403614177E0,1.554581447E0
1.560624408E1,1.838605799E-1,6.432288051E-2,-1.119116145E0,1.135941501E0
1.561627108E1,4.562402572E-1,2.876128435E-2,-6.421932632E-1,7.882858435E-1
1.562629708E1,3.626887536E-1,-5.351196349E-2,-3.130417997E-1,4.820807303E-1
1.563632408E1,2.761201411E-3,-2.399211985E-1,-1.098732752E-1,2.638975982E-1
1.564635008E1,-2.076311195E-1,-3.693832308E-1,-6.372880340E-3,4.237868174E-1
1.565637608E1,-1.392957334E-1,-4.019697636E-1,6.546542645E-2,4.304285240E-1
1.566640308E1,-1.473366782E-2,-3.395899129E-1,-4.698296249E-2,3.431410623E-1
1.567642908E1,-1.167821990E-1,-2.849278021E-1,-2.897634494E-1,4.228295059E-1
1.568645608E1,-1.006114317E-1,-2.850242811E-1,-4.424938917E-2,3.054824209E-1
1.569648208E1,-1.518343565E-1,-3.212331641E-1,1.352390814E-1,3.801763099E-1
1.570650908E1,-5.309915006E-2,-3.075600350E-1,2.161984599E-1,3.796767953E-1
1.571653508E1,2.470431072E-1,-2.098904836E-1,2.682375097E-1,4.207560737E-1
1.572656108E1,2.583981076E-1,-1.205087757E-1,1.042558551E-1,3.035806818E-1
1.573658808E1,-1.698469967E-2,-1.376791245E-1,-1.727869767E-1,2.215837554E-1
1.574661408E1,-1.279107660E-2,-1.919687676E-1,-1.034337366E-1,2.184357051E-1
1.575664108E1,1.416995238E-1,-1.477182090E-1,1.977692056E-1,2.846262163E-1
1.576666708E1,2.439187936E-1,-3.269470632E-2,2.109576005E-1,3.241426089E-1
1.577669308E1,2.832512592E-1,-9.580896735E-2,-4.154271305E-2,3.018881102E-1
1.578672008E1,2.520117787E-1,-1.363108760E-1,-9.185858846E-2,3.008796965E-1
1.579674608E1,3.569156514E-1,-3.624513566E-2,-6.012165606E-2,3.637541829E-1
1.580677308E1,4.308288427E-1,1.195463240E-2,-1.599973619E-2,4.312915446E-1
1.581679908E1,3.451653792E-1,3.149310350E-3,-2.778304517E-2,3.462960507E-1
1.582682608E1,2.606606877E-1,4.432715714E-2,-4.466161788E-2,2.681483751E-1
1.583685208E1,2.195812203E-1,6.302070558E-2,5.401365459E-2,2.347445346E-1
1.584687808E1,1.421861583E-1,9.006875575E-2,2.778327906E-1,3.248389507E-1
1.585690508E1,7.596117854E-3,1.367178422E-1,3.786352801E-1,4.026340084E-1
1.586693108E1,-2.240544865E-1,1.051288444E-1,2.981588817E-1,3.874934910E-1
1.587695808E1,-3.024416748E-1,5.389027834E-2,3.669724238E-1,4.785852991E-1
1.588698408E1,-1.525956640E-1,4.443533063E-2,4.672112417E-1,4.935040827E-1
1.589701008E1,-4.155703872E-2,3.666788936E-2,-4.840839672E-1,4.872461481E-1
1.590703708E1,5.533417515E-1,2.434897542E-1,-1.173732648E0,1.320273715E0
1.591706308E1,1.019728243E0,3.823494315E-1,5.001708269E-3,1.089064642E0
1.592709008E1,8.205152142E-1,2.458859432E-1,8.584513646E-1,1.212701059E0
1.593711608E1,9.425335948E-1,1.197194016E-1,1.623341432E0,1.880941178E0
1.594714262E1,4.063436271E-1,1.602838755E-1,1.101805463E0,1.185234721E0