"Time (s)","Linear Acceleration x (m/s^2)","Linear Acceleration y (m/s^2)","Linear Acceleration z (m/s^2)","Absolute acceleration (m/s^2)"
6.969041657E-3,1.150919151E-1,1.757807511E-1,-1.553254366E0,1.567400442E0
1.699504175E-2,-1.996449924E-1,-1.262472332E-2,-1.048161938E0,1.067080575E0
2.702104172E-2,-3.248981988E-1,-1.028536928E-1,-4.708955723E-1,5.812747730E-1
3.704704170E-2,6.337036908E-2,-2.048367351E-1,1.070204186E-1,2.396398584E-1
4.707304167E-2,1.007125009E0,-3.293488070E-1,6.363115489E-2,1.061517943E0
5.710004165E-2,1.332303874E0,-5.450990778E-1,1.638769895E-1,1.448800292E0
6.712604174E-2,9.988131917E-1,-6.917229804E-1,7.606642842E-2,1.217330923E0
7.715204172E-2,4.489068255E-1,-8.923818800E-1,-3.823652190E-1,1.069610171E0
8.717804169E-2,8.934025115E-1,-1.304819329E0,-9.418338293E-1,1.840590256E0
9.720404167E-2,1.199173883E0,-1.931989926E0,-1.213238776E0,2.577314766E0
1.072300418E-1,9.245632008E-1,-2.210424980E0,-1.419144382E0,2.784738135E0
1.172570417E-1,3.879443398E-1,-2.611149579E0,-1.582697436E0,3.077910672E0
1.272830417E-1,-2.006665009E-1,-3.341818231E0,-1.805067047E0,3.803456741E0
1.373090417E-1,-9.126041830E-1,-4.279671569E0,-2.744060299E0,5.165104264E0
1.473350417E-1,-2.821953982E-1,-3.512196740E0,-3.918429708E0,5.269653837E0
1.573610418E-1,1.040581315E0,-2.321188201E0,-5.109635006E0,5.707809916E0
1.673880417E-1,4.421433511E-1,-2.090780130E0,-5.625382231E0,6.017622250E0
1.774140417E-1,-2.307681133E0,-2.512863146E0,-5.539413543E0,6.505764813E0
1.874400417E-1,-5.039184828E0,-1.940328055E0,-5.339589041E0,7.594041600E0
1.974660417E-1,-6.742464715E0,-4.736738768E-1,-5.119512123E0,8.479068448E0
2.074920418E-1,-6.565648422E0,1.626783103E-1,-4.769320623E0,8.116687911E0
2.175180417E-1,-4.366791866E0,-1.642239340E0,-4.794349045E0,6.689663969E0
2.275450417E-1,-1.921043646E0,-3.594709724E0,-4.539090600E0,6.100466389E0
2.375710417E-1,-8.144346946E-1,-4.365631778E0,-3.393024638E0,5.588797803E0
2.475970417E-1,-9.774392796E-1,-4.659896999E0,-1.353989443E0,4.950082322E0
2.576230417E-1,-2.843233754E0,-5.360026814E0,1.012923692E0,6.151412848E0
2.676490417E-1,-4.350770495E0,-6.137608262E0,2.455958628E0,7.913985839E0
2.776760417E-1,-4.315227025E0,-6.305947847E0,2.995513961E0,8.207269120E0
2.877020417E-1,-4.189548726E0,-6.638646231E0,2.003625627E0,8.101756474E0
2.977280417E-1,-4.230442983E0,-7.330522116E0,9.039526427E-1,8.511776120E0
3.077540417E-1,-3.995245165E0,-7.293909191E0,1.296995462E0,8.416964562E0
3.177800417E-1,-3.669369897E0,-7.174954605E0,2.725555615E0,8.507226483E0
3.278060417E-1,-3.148967119E0,-7.324049249E0,3.697575111E0,8.788046029E0
3.378330417E-1,-2.235494624E0,-7.111800583E0,3.965277016E0,8.443847793E0
3.478590416E-1,-7.912686110E-1,-6.444740866E0,3.999186481E0,7.625895577E0
3.578850417E-1,8.589875543E-1,-5.682093206E0,3.954826872E0,6.976008773E0
3.679110417E-1,2.524038929E0,-5.106797937E0,4.175600193E0,7.062987658E0
3.779370417E-1,4.306873693E0,-4.899847434E0,4.616879326E0,7.992073610E0
3.879640417E-1,5.435402686E0,-4.751463227E0,4.654920434E0,8.590011024E0
3.979900418E-1,7.007095662E0,-4.109038121E0,3.900733403E0,9.011065696E0
4.080160417E-1,9.106067156E0,-2.529324520E0,3.101316112E0,9.946662918E0
4.180420417E-1,1.030807752E1,-6.249667811E-1,2.299138936E0,1.057984336E1
4.280680417E-1,1.115597993E1,5.652608621E-1,1.049525508E0,1.121948803E1
4.380940417E-1,1.101487843E1,1.246538377E0,2.601160195E-1,1.108823994E1
4.481210418E-1,1.074750163E1,9.716239312E-1,-2.467027992E-2,1.079136010E1
4.581470417E-1,1.019789961E1,5.179451931E-1,-4.830911100E-2,1.021115848E1
4.681730417E-1,9.594838251E0,9.588398713E-1,-2.618652141E-1,9.646184135E0
4.781990417E-1,9.173607759E0,1.415164182E0,-5.166965201E-1,9.296490966E0
4.882250417E-1,8.359001741E0,1.307592371E0,3.315271872E-1,8.467149355E0
4.982520418E-1,7.763928266E0,1.605198691E0,-4.209340382E-1,7.939296594E0
5.082780417E-1,7.452878612E0,1.907071724E0,-8.462011555E-1,7.739404277E0
5.183040417E-1,7.832419041E0,2.076045147E0,-3.200557103E0,8.712078814E0
5.283300417E-1,8.184765240E0,2.428632250E0,-7.403415846E0,1.130040720E1
5.383560417E-1,9.417746555E0,3.139977610E0,-1.006540989E1,1.413739317E1
5.483830418E-1,6.464312081E0,2.116145936E0,-5.490829028E0,8.741544928E0
5.584090417E-1,3.567026081E0,-4.530995715E-1,-6.969857669E-1,3.662617021E0
5.684350417E-1,2.277485819E0,-1.332671079E0,8.194404960E-2,2.640013009E0
5.784610417E-1,1.295828358E0,-8.730068386E-1,-2.685228539E-1,1.585375853E0
5.884870416E-1,6.924506664E-2,9.916994691E-2,-1.583104987E0,1.587718790E0
5.985130417E-1,-1.290229064E0,1.301487293E0,-1.392355363E0,2.301567655E0
6.085400417E-1,-1.364105126E0,1.305208461E0,7.822229683E-2,1.889568906E0
6.185660417E-1,-1.154415786E-1,1.040312051E0,1.378819059E0,1.731103093E0
6.285920417E-1,2.123124003E-2,8.704779178E-1,2.246257594E0,2.409119289E0
6.386180418E-1,-5.324065268E-1,5.568028647E-1,3.891612623E0,3.967131829E0
6.486440417E-1,-2.283652292E0,1.793094288E0,3.442631246E0,4.503550246E0
6.586702917E-1,-2.951214870E0,2.247368565E0,-1.314732406E0,3.935588390E0
6.686972918E-1,-1.659122298E0,2.415675990E0,-3.148951916E0,4.301636370E0
6.787232917E-1,-7.094303960E-1,2.125339513E0,-1.986630402E0,2.994504949E0
6.887492917E-1,-1.971879923E-1,1.508306234E0,4.346305561E-1,1.582015968E0
6.987752917E-1,-7.041088450E-1,8.421200913E-1,1.385096922E0,1.767322551E0
7.088012917E-1,-1.052953146E0,2.061336476E-1,3.496535558E-1,1.128476414E0
7.188282917E-1,-8.547904229E-1,-2.140156943E-1,-3.469597435E-1,9.470218836E-1
7.288542917E-1,-3.652013022E-1,-1.820244080E-1,-6.529576948E-1,7.699731342E-1
7.388802917E-1,3.254794121E-2,8.068531948E-1,-1.294526183E0,1.525735719E0
7.489062917E-1,-2.402340245E-1,1.969703590E0,-9.623730513E-1,2.205358589E0
7.589322918E-1,-5.095526844E-1,2.817089683E0,-1.194257252E0,3.101916924E0
7.689592917E-1,-1.362205365E0,1.908867989E0,-1.226724502E0,2.646551238E0
7.789852917E-1,-7.955265534E-1,6.082285416E-1,-5.952015299E-1,1.164933181E0
7.890112917E-1,-1.439247694E0,5.062683034E-1,-9.030416465E-1,1.772914475E0
7.990372917E-1,-2.846387157E0,1.638224934E0,-9.719282788E-1,3.424959177E0
8.090632918E-1,-2.585876743E0,2.165403466E0,-7.120210049E-1,3.447129909E0
8.190892917E-1,5.201022309E-1,1.775997614E0,2.511940455E0,3.120019024E0
8.291162917E-1,-1.524025304E0,7.801746887E-1,-1.487300697E0,2.267904107E0
8.391422917E-1,-4.633972199E0,1.394666183E0,-1.470718578E0,5.057845909E0
8.491682917E-1,-5.996771641E0,2.194086397E0,1.358368130E-1,6.386997485E0
8.591942918E-1,-5.337839554E0,2.876046574E0,-3.522554205E-1,6.073570522E0
8.692202917E-1,-3.907628147E0,2.734359183E0,-9.387979549E-1,4.860824979E0
8.792462917E-1,-2.861989868E-1,8.461131549E-1,-2.045694589E0,2.232192573E0
8.892732917E-1,7.296255094E-1,-1.116310651E0,-1.248047835E0,1.826506571E0
8.992992917E-1,1.141532616E0,-1.072186393E-1,-5.784457487E-1,1.284208719E0
9.093252918E-1,1.931423623E0,1.429213872E0,-2.085726382E0,3.181714010E0
9.193512917E-1,5.235470595E0,2.109400588E-1,-7.890349746E-1,5.298794604E0
9.293772917E-1,8.183168950E0,-2.619802288E0,1.563665918E0,8.733422536E0
9.394042917E-1,9.977155523E0,-5.025398263E0,3.284186904E0,1.164406045E1
9.494302917E-1,9.904790382E0,-4.502534977E0,1.113750740E0,1.093700756E1
9.594562917E-1,5.239001729E0,-2.512969565E0,-6.310473007E-1,5.844687831E0
9.694822917E-1,2.794442832E0,9.919041216E-2,-1.243451339E-1,2.798966094E0
9.795082917E-1,2.487335372E-1,2.476198765E0,-2.351750135E-3,2.488661131E0
9.895352917E-1,-2.210489007E0,4.718195493E0,-8.400332201E-1,5.277621261E0
9.995612917E-1,-3.750406458E0,6.218750659E0,-7.472338146E-1,7.300463460E0
1.009587292E0,-5.501548728E0,6.687818391E0,-6.690558652E-2,8.660163370E0
1.019613292E0,-5.527806235E0,6.452161567E0,3.308968574E-1,8.502736230E0
1.029639292E0,-3.963679849E0,5.858257535E0,1.432753776E0,7.216836056E0
1.039665292E0,-2.689552262E0,5.066628150E0,2.047848119E0,6.090820478E0
1.049692292E0,-1.939537804E0,4.695497772E0,2.331434569E0,5.589731064E0
1.059718292E0,-1.570664451E0,4.944863977E0,1.956527474E0,5.544967658E0
1.069744292E0,-1.343393995E0,5.277724330E0,9.782467800E-1,5.533177052E0
1.079770292E0,-1.487617031E0,5.453813229E0,-2.275583939E-1,5.657637846E0
1.089796292E0,-2.068290862E0,5.251445773E0,-1.476711974E0,5.834054169E0
1.099823292E0,-2.743784018E0,5.245945882E0,-2.230445115E0,6.326387938E0
1.109849292E0,-3.050454107E0,5.715698909E0,-2.052335272E0,6.796069771E0
1.119875292E0,-2.933528797E0,6.079589850E0,2.081497675E-1,6.753542054E0
1.129901292E0,-2.372398408E0,5.936511991E0,1.527475746E0,6.572946902E0
1.139927292E0,-1.499744595E0,5.637107652E0,2.133423874E0,6.211096035E0
1.149953292E0,-2.369765114E0,4.239820747E0,2.889289933E0,5.651536338E0
1.159980292E0,-3.011422480E0,5.039981219E0,4.597924114E0,7.457277131E0
1.170006292E0,-1.560876504E0,6.166325693E0,4.321895775E0,7.690168470E0
1.180032292E0,-1.352745301E0,4.797907661E0,-1.871621225E0,5.324735090E0
1.190058292E0,-1.317700891E0,4.394549768E0,-2.045805101E0,5.023317809E0
1.200084292E0,-3.403612191E0,-1.117281055E1,9.188226237E-1,1.171582292E1
1.210111292E0,-1.050985792E1,-5.516486844E1,-1.866763943E0,5.618811824E1
1.220137292E0,-5.079517168E0,-6.268660971E1,-4.344032456E-1,6.289357072E1
1.230163292E0,1.275335972E1,-3.199508697E1,-3.644226869E0,3.463544664E1
1.240189292E0,1.668786693E1,-8.561420653E0,1.568096353E0,1.882131113E1
1.250215292E0,8.218990747E0,3.614504887E0,5.020146294E0,1.028680336E1
1.260241292E0,5.536831558E-1,8.546823079E0,3.867654827E0,9.397526464E0
1.270268292E0,-2.135945339E0,1.036345299E1,-3.107469137E-1,1.058583885E1
1.280294292E0,-3.686030953E0,1.007859419E1,-2.241852887E0,1.096315600E1
1.290320292E0,-5.470667828E0,8.580467958E0,-3.980503750E-1,1.018386375E1
1.300346292E0,-6.405448161E0,6.131262864E0,6.491121273E-1,8.890640978E0
1.310372292E0,-5.865075973E0,2.413695538E0,2.642000073E-1,6.347821985E0
1.320399292E0,-3.238615167E0,-3.778993496E0,-2.895586507E-1,4.985304831E0
1.330425292E0,6.309334993E-1,-5.294555540E0,-1.271524552E-1,5.333531962E0
1.340451292E0,2.892692720E0,-3.128791886E0,1.053084270E0,4.389304765E0
1.350477292E0,3.394266294E0,-2.108619400E0,1.500609106E0,4.268389291E0
1.360503292E0,1.768102119E0,-6.399455935E-1,4.248364699E-1,1.927745183E0
1.370530292E0,-7.108102658E-1,4.978740406E-1,-8.327357487E-1,1.202737969E0
1.380556292E0,-1.376264995E0,9.636281562E-1,-8.382726234E-1,1.877601010E0
1.390582292E0,-8.159410836E-1,7.718850911E-1,-4.964468084E-1,1.228017052E0
1.400608292E0,-4.622897865E-1,2.123135698E-1,-4.821146250E-1,7.008733197E-1
1.410634292E0,2.585594907E-2,-2.892120570E-1,-8.716391748E-1,9.187311876E-1
1.420660292E0,6.072981034E-1,-5.990525061E-1,-1.222532194E0,1.490724608E0
1.430687292E0,6.837906477E-1,-6.043179238E-1,-1.593634652E0,1.836420760E0
1.440713292E0,7.966897839E-1,-5.336326879E-1,-2.025749152E0,2.241235838E0
1.450739292E0,8.544868793E-1,-4.164761209E-1,-2.410467290E0,2.591129627E0
1.460765292E0,8.733427611E-1,-5.311037672E-1,-2.619774806E0,2.812119988E0
1.470791292E0,1.149541547E0,-7.980472881E-1,-2.578703964E0,2.933946042E0
1.480818292E0,9.319562741E-1,-6.780758715E-1,-3.020548230E0,3.232961644E0
1.490844292E0,6.697414695E-1,-4.638783288E-1,-3.379952602E0,3.476753706E0
1.500870292E0,4.486306907E-1,-3.987613964E-1,-3.550114764E0,3.600499269E0
1.510896292E0,3.285543166E-1,-4.892248392E-1,-3.779956532E0,3.825618939E0
1.520922292E0,4.557000110E-1,-4.801645786E-1,-4.193028404E0,4.244962629E0
1.530948292E0,8.609547769E-1,-4.755552185E-1,-4.458562746E0,4.565761454E0
1.540975292E0,1.814274804E0,-5.800560719E-1,-4.754110261E0,5.121486355E0
1.551001292E0,2.654379798E0,-9.090309495E-1,-3.506431385E0,4.490782832E0
1.561027292E0,2.981562504E0,-1.525960733E0,-9.381693792E-1,3.478280165E0
1.571053292E0,2.865451712E0,-2.473866311E0,9.313105953E-1,3.898482713E0
1.581079292E0,2.000500144E0,-3.405398515E0,1.215176616E0,4.132238386E0
1.591106292E0,6.092152593E-1,-4.107257352E0,-2.785755332E-1,4.161527426E0
1.601132292E0,-4.598018693E-1,-4.455606979E0,-9.641216612E-1,4.581853542E0
1.611158292E0,-2.042252041E0,-4.081888622E0,5.429607511E-2,4.564598141E0
1.621184292E0,-3.565708996E0,-2.927332503E0,8.084503618E-1,4.683710944E0
1.631210292E0,-3.589140543E0,-1.776164260E0,1.123846250E0,4.159293174E0
1.641236292E0,-3.369061871E0,-7.845103991E-1,1.533745716E0,3.783967544E0
1.651263292E0,-2.748541897E0,3.565515161E-2,1.553421012E0,3.157351848E0
1.661288417E0,-1.933650243E0,6.085846370E-1,7.084281832E-2,2.028397699E0
1.671314417E0,-1.266331494E0,1.110234810E0,-1.020696689E0,1.969273601E0
1.681340417E0,-9.114055768E-1,1.282333569E0,-1.311154203E0,2.047966028E0
1.691366417E0,-9.892013924E-1,1.406155377E0,-4.399763730E-1,1.774646880E0
1.701393417E0,-8.653631390E-1,1.341027920E0,-1.640866122E-1,1.604410689E0
1.711419417E0,-5.426100643E-1,1.178436148E0,-2.618523502E-1,1.323519584E0
1.721445417E0,2.352405024E-1,8.578742445E-1,-5.264102072E-2,8.910989790E-1
1.731471417E0,1.218880608E0,5.224399477E-1,5.318127421E-1,1.428789078E0
1.741497417E0,1.927703917E0,4.527925926E-1,9.662734365E-1,2.203349241E0
1.751524417E0,2.128542472E0,6.310256660E-1,1.240100007E0,2.542977482E0
1.761550417E0,1.712392187E0,9.529137182E-1,1.224630906E0,2.310855342E0
1.771576417E0,1.159395567E0,1.336199874E0,1.217234178E0,2.147390796E0
1.781602417E0,7.192379308E-1,1.606063494E0,1.216492167E0,2.139298095E0
1.791628417E0,3.196991470E-1,1.765646288E0,1.181779001E0,2.148561372E0
1.801654417E0,-2.029567091E-1,1.962918481E0,1.001461980E0,2.212954244E0
1.811681417E0,-7.796994562E-1,2.125434823E0,6.304158014E-1,2.350069895E0
1.821707417E0,-1.308963251E0,2.154238792E0,-1.009738129E-1,2.522761439E0
1.831733417E0,-1.631463507E0,1.875527750E0,-6.790020704E-1,2.576882094E0
1.841759417E0,-1.524083192E0,1.359064241E0,-6.665036470E-1,2.148048486E0
1.851785417E0,-1.252139863E0,1.096970986E0,-1.983352160E-1,1.676465460E0
1.861812417E0,-1.269884993E0,1.374437156E0,2.450825357E-1,1.887260141E0
1.871838417E0,-1.277568234E0,1.930668747E0,5.395945090E-1,2.377146323E0
1.881864417E0,-1.429325846E0,2.485471280E0,6.196972704E-1,2.933353808E0
1.891890417E0,-1.500578554E0,2.983130727E0,5.361668712E-1,3.382052609E0
1.901916417E0,-1.381942788E0,3.196017909E0,2.956983733E-1,3.494529135E0
1.911942417E0,-1.305786166E0,3.006431882E0,1.166230085E-1,3.279834005E0
1.921969417E0,-9.452620518E-1,2.678772628E0,1.912054136E-1,2.847086695E0
1.931995417E0,-6.034640841E-1,2.230625648E0,2.907726789E-1,2.329035945E0
1.942021417E0,-4.953892663E-1,1.862934601E0,3.697200304E-1,1.962811441E0
1.952047417E0,-4.773865664E-1,1.761474300E0,2.418197894E-1,1.840968890E0
1.962073417E0,-4.458383529E-1,1.788882539E0,-5.724541068E-2,1.844491695E0
1.972100417E0,-5.173019993E-1,1.755352850E0,-4.499625403E-1,1.884497618E0
1.982126417E0,-8.565587671E-1,1.540431422E0,-9.455520737E-1,2.000172645E0
1.992152417E0,-1.264276490E0,1.332713179E0,-1.476836520E0,2.357024728E0
2.002178417E0,-1.675879249E0,1.144331678E0,-1.842396256E0,2.740892229E0
2.012204417E0,-2.147143781E0,9.041315675E-1,-1.721481976E0,2.896753441E0
2.022230417E0,-2.571248179E0,7.289770532E-1,-1.443502420E0,3.037502919E0
2.032257417E0,-2.859458023E0,7.556760246E-1,-9.332542098E-1,3.101372255E0
2.042283417E0,-2.705423360E0,9.735041034E-1,-7.527644035E-1,2.972150743E0
2.052309417E0,-2.463602693E0,1.153135831E0,-8.903789163E-1,2.862138202E0
2.062335417E0,-2.026135799E0,1.228530414E0,-1.148300183E0,2.633079293E0
2.072361417E0,-1.463355764E0,1.200016467E0,-1.369155366E0,2.335815924E0
2.082388417E0,-1.269872568E0,9.225257385E-1,-1.866638812E0,2.438846148E0
2.092414417E0,-1.636360842E0,2.721077818E-1,-2.454135466E0,2.962178309E0
2.102440417E0,-2.457644380E0,-8.666146624E-1,-3.041344145E0,4.005098136E0
2.112466417E0,-3.323819040E0,-2.999987081E0,-3.425993871E0,5.637830212E0
2.122492417E0,-3.870297183E0,-5.778882751E0,-3.637023392E0,7.848733993E0
2.132519417E0,-3.516359373E0,-8.312603500E0,-3.986285477E0,9.866845093E0
2.142545417E0,-2.245766574E0,-9.551109264E0,-4.817268376E0,1.093038107E1
2.152571417E0,-5.760792343E-1,-8.324768048E0,-7.338639221E0,1.111257198E1
2.162597417E0,9.428310719E-1,-5.006838616E0,-8.951251597E0,1.029962468E1
2.172623417E0,3.176402839E0,-1.178752483E0,-5.072747262E0,6.100144030E0
2.182649417E0,4.477955621E0,2.703010506E0,2.777528007E0,5.922247392E0
2.192676417E0,4.923154435E0,7.170767999E0,1.032253769E1,1.349859799E1
2.202702417E0,4.816920467E0,1.076376507E1,1.303780454E1,1.757969592E1
2.212728417E0,2.831843086E0,1.072862331E1,1.169242337E1,1.611941245E1
2.222754417E0,-4.386812878E-1,8.202558902E0,8.702708094E0,1.196710249E1
2.232780417E0,-2.320260686E0,5.318356631E0,4.555263121E0,7.376920022E0
2.242807417E0,-3.060563650E0,9.400632924E-1,-1.749980721E0,3.648725993E0
2.252833417E0,-2.994543031E0,-5.714435910E0,-4.196586435E0,7.696324021E0
2.262859417E0,-1.181838204E0,-9.928513706E0,1.008758428E0,1.004936413E1
2.272885417E0,1.121113408E0,-8.647316251E0,4.571411669E0,9.845342973E0
2.282911417E0,1.424145067E0,-3.646320757E0,3.726997715E0,5.405030639E0
2.292937417E0,-4.275417573E-1,5.498095948E-1,1.287991189E0,1.464241731E0
2.302964417E0,-1.490212610E0,2.496858732E0,-1.752816913E-1,2.913032925E0
2.312990417E0,-1.525140368E0,3.047388704E0,2.697627559E-1,3.418391873E0
2.323016417E0,-5.346914725E-1,2.488064520E0,1.630218927E0,3.022246478E0
2.333042417E0,6.180254053E-1,1.575389585E0,2.659692578E0,3.152423252E0
2.343068417E0,1.155723443E0,9.218322587E-1,2.990754912E0,3.336178402E0
2.353095417E0,1.579099644E0,1.005141633E0,3.019380541E0,3.552537718E0
2.363121417E0,2.441949284E0,9.966777885E-1,2.037268020E0,3.332708194E0
2.373147417E0,2.759268907E0,4.762668246E-1,6.087874623E-1,2.865487247E0
2.383173417E0,2.819510138E0,-4.621820515E-1,-3.152490505E-1,2.874479367E0
2.393199417E0,2.790702661E0,-1.531086987E0,-4.084548374E-1,3.209218605E0
2.403226417E0,2.575102079E0,-1.172557358E0,2.729094533E-1,2.842625730E0
2.413252417E0,2.490380017E0,-2.172959822E-1,9.230671906E-1,2.664819546E0
2.423278417E0,2.205663300E0,6.875735039E-1,7.539054877E-1,2.430243074E0
2.433304417E0,1.584150907E0,1.549108690E0,-4.306725758E-1,2.257155444E0
2.443330417E0,1.071123953E0,1.870370505E0,-1.084680138E0,2.412907655E0
2.453356417E0,2.938237194E-1,1.511499399E0,-1.356303771E0,2.051955830E0
2.463383417E0,-3.578799304E-1,1.007382871E0,-2.057320023E0,2.318504684E0
2.473409417E0,-4.437784154E-1,6.754797077E-1,-2.139291555E0,2.286871329E0
2.483435417E0,-1.119182475E-1,5.081832665E-1,-1.503152499E0,1.590673870E0
2.493461417E0,2.020321730E-1,7.160699093E-1,-1.048168954E0,1.285391485E0
2.503487417E0,2.261182247E-1,1.108438545E0,-1.244864611E0,1.682097904E0
2.513514417E0,2.287995385E-1,1.351857548E0,-1.553374819E0,2.071917321E0
2.523540417E0,1.052789716E-1,1.353317598E0,-1.504302061E0,2.026197639E0
2.533566417E0,1.595758507E-1,1.168687086E0,-8.893158925E-1,1.477219250E0
2.543592417E0,2.899422463E-1,7.985565805E-1,-4.612242776E-1,9.666886535E-1
2.553618417E0,4.834845180E-1,5.173248035E-1,-5.676985663E-1,9.075593058E-1
2.563645417E0,5.177551585E-1,3.970873386E-1,-1.089672345E0,1.270092350E0
2.573671417E0,4.705735369E-1,3.980667472E-1,-1.611861739E0,1.725686778E0
2.583697417E0,4.841501138E-1,2.941517848E-1,-1.965011784E0,2.045042277E0
2.593723417E0,2.349263242E-1,6.577649832E-2,-2.636852769E0,2.648114320E0
2.603749417E0,-1.488439808E-2,-2.159400129E-1,-2.867782704E0,2.875939720E0
2.613775417E0,4.773573669E-2,-3.111870629E-1,-3.030063404E0,3.046374947E0
2.623802417E0,1.817261452E-1,-4.019633317E-1,-3.550754742E0,3.578052284E0
2.633828417E0,4.861595826E-1,-8.011270165E-1,-3.707569757E0,3.824163848E0
2.643854417E0,8.158139797E-1,-1.670412102E0,-3.509201796E0,3.971187012E0
2.653880542E0,1.067563803E0,-2.815027370E0,-3.258274968E0,4.436262767E0
2.663906542E0,1.510669679E0,-3.981807094E0,-2.823087757E0,5.109475032E0
2.673933542E0,1.818934596E0,-4.517258851E0,-2.260567777E0,5.368828296E0
2.683959542E0,1.826979926E0,-4.340848939E0,-2.516721431E0,5.339916847E0
2.693985542E0,1.472625940E0,-3.721531738E0,-3.844722924E0,5.549803600E0
2.704011542E0,1.116974164E0,-3.206385607E0,-4.872219047E0,5.938607445E0
2.714037542E0,1.101183320E0,-3.505677679E0,-5.350357858E0,6.490663287E0
2.724063542E0,1.590884415E0,-4.864498091E0,-4.959690177E0,7.126905469E0
2.734090542E0,2.375704570E0,-6.188265615E0,-4.335421846E0,7.920510470E0
2.744116542E0,2.553058953E0,-6.447910057E0,-4.810736159E0,8.440191734E0
2.754142542E0,2.621625743E0,-5.312166184E0,-5.186508350E0,7.873493505E0
2.764168542E0,2.165284475E0,-3.820870085E0,-4.864987211E0,6.554052611E0
2.774194542E0,1.265002568E0,-2.528349497E0,-4.858418741E0,5.621122249E0
2.784221542E0,7.825926585E-1,-1.127237928E0,-5.146015213E0,5.325841641E0
2.794247542E0,-4.149805494E-3,-2.055237830E-1,-6.070307980E0,6.073787633E0
2.804273542E0,-1.545652693E0,-6.879863173E-1,-5.901578386E0,6.139299216E0
2.814299542E0,-1.829933355E0,-2.252158020E0,-3.488306186E0,4.537527066E0
2.824325542E0,-6.684076466E-1,-3.708228153E0,-2.132245660E-2,3.768047168E0
2.834352542E0,3.866315303E-1,-4.159258980E0,3.421301773E0,5.399465253E0
2.844378542E0,1.761638899E-1,-4.461135521E0,4.174211479E0,6.112021378E0
2.854404542E0,-2.613837324E-1,-4.589766079E0,3.273302897E0,5.643472865E0
2.864430542E0,-6.778146471E-1,-4.657788493E0,2.305166538E0,5.241013176E0
2.874456542E0,-1.419949105E0,-4.723761458E0,1.474127505E0,5.148128754E0
2.884482542E0,-2.442098973E0,-4.474532077E0,1.333923114E0,5.269215840E0
2.894509542E0,-3.099858693E0,-4.866192614E0,3.457436396E0,6.726278385E0
2.904535542E0,-3.918507476E0,-4.486896599E0,5.537171720E0,8.133093667E0
2.914561542E0,-3.870873134E0,-3.550401862E0,5.465280204E0,7.580125323E0
2.924587542E0,-2.943733650E0,-3.011790855E0,3.643040762E0,5.568500512E0
2.934613542E0,-8.486267998E-1,-2.176990893E0,2.180683702E0,3.196066051E0
2.944640542E0,2.160448974E0,-2.016026986E0,1.738482756E0,3.428443797E0
2.954666542E0,4.458763013E0,-3.124747952E0,5.346363625E-1,5.470873185E0
2.964692542E0,6.947547033E0,-4.080395828E0,-9.486259550E-1,8.112825099E0
2.974718542E0,7.553558895E0,-3.972007161E0,-3.956995019E-1,8.543399263E0
2.984744542E0,5.702584773E0,-2.531178380E0,3.416239838E0,7.113159053E0
2.994771542E0,4.365641134E0,5.934011722E-1,5.767944365E0,7.258107857E0
3.004797542E0,3.326259960E0,3.363635362E0,6.907651480E0,8.372197868E0
3.014823542E0,2.203872590E0,4.473194234E0,7.178385751E0,8.740465836E0
3.024849542E0,1.364116382E0,5.068447219E0,7.564341161E0,9.207020577E0
3.034875542E0,5.570433314E-1,5.590771392E0,7.832441261E0,9.639199040E0
3.044901542E0,-3.821355696E-1,5.975783061E0,8.047438703E0,1.003081654E1
3.054928542E0,-6.939208026E-1,6.098230773E0,8.450567969E0,1.044423495E1
3.064954542E0,-1.071637485E0,6.131921845E0,8.299307517E0,1.037436155E1
3.074980542E0,-1.168414313E0,5.990639082E0,7.952310351E0,1.002457922E1
3.085006542E0,-1.156738885E0,5.759742476E0,7.168831401E0,9.268485415E0
3.095032542E0,-9.877742332E-1,5.451298342E0,6.601801756E0,8.618360515E0
3.105059542E0,-1.109237275E-1,5.086794612E0,6.275004966E0,8.078580991E0
3.115085542E0,7.136487235E-1,4.615026636E0,5.567731608E0,7.266870070E0
3.125111542E0,1.070237516E0,4.151476920E0,4.544088800E0,6.247312381E0
3.135137542E0,9.975072160E-1,3.720161151E0,3.256906720E0,5.044012392E0
3.145163542E0,8.752050993E-1,3.703512374E0,2.213678370E0,4.402540153E0
3.155189542E0,2.808796285E-1,3.950178335E0,1.460073722E0,4.220736609E0
3.165216542E0,-7.513984939E-1,4.073403143E0,6.780624229E-1,4.197258809E0
3.175242542E0,-1.630372416E0,3.804087406E0,-2.872187412E-1,4.148697364E0
3.185268542E0,-2.291144330E0,2.911074904E0,-1.720028943E0,4.084384777E0
3.195294542E0,-3.270498573E0,1.209671974E0,-3.504500927E0,4.943783364E0
3.205320542E0,-3.963612898E0,-1.130348062E0,-5.588688029E0,6.944159260E0
3.215347542E0,-3.800347527E0,-3.925941626E0,-8.146553686E0,9.809281112E0
3.225373542E0,-3.882755261E0,-6.846497791E0,-1.071159621E1,1.329242694E1
3.235399542E0,-4.644305398E0,-1.040087284E1,-1.220332852E1,1.669338058E1
3.245425542E0,-3.663504555E0,-1.152906035E1,-1.156945526E1,1.673896034E1
3.255451542E0,-1.524878852E0,-8.647522658E0,-8.483847397E0,1.220985546E1
3.265478542E0,-1.209818593E0,-4.350175248E0,-4.731004404E0,6.539884432E0
3.275504542E0,-4.786755851E-1,-9.690590501E-3,-2.350226936E0,2.398497628E0
3.285530542E0,-5.110144883E-2,3.130606862E0,-1.287580860E0,3.385435740E0
3.295556542E0,-1.610567750E0,3.050775411E0,-2.257688901E0,4.122901680E0
3.305582542E0,-3.252048853E0,-1.789633906E-1,-5.135153425E0,6.080925122E0
3.315608542E0,-2.366276227E0,-3.952135398E0,-4.933822095E0,6.749906507E0
3.325635542E0,2.574591617E0,-5.914346366E0,6.017967213E0,8.821788045E0
3.335661542E0,6.595108448E0,-4.861966832E0,1.899928765E1,2.069074934E1
3.345687542E0,3.531590785E0,-3.826378162E0,1.853377678E1,1.925134242E1
3.355713542E0,-5.927300580E-1,-2.395151678E0,1.070868547E1,1.098926863E1
3.365739542E0,-3.170640993E0,-8.613346267E-1,2.668101752E0,4.232449480E0
3.375766542E0,-4.665632825E0,1.142338362E0,-2.461641537E0,5.397475859E0
3.385792542E0,-4.110680312E0,2.798555764E0,3.540179760E0,6.104300101E0
3.395818542E0,-2.478735872E0,3.855379767E0,5.040439056E0,6.812790218E0
3.405844542E0,3.560802305E-1,3.156179659E0,4.849276327E0,5.796873646E0
3.415870542E0,2.758937077E0,8.945561671E-1,5.501675613E0,6.219356806E0
3.425897542E0,3.722576343E0,-8.104790533E-1,6.914207963E0,7.894347515E0
3.435923542E0,3.402431054E0,-1.657019640E0,6.918519115E0,7.885946862E0
3.445949542E0,2.441656631E0,-1.837117975E0,4.073697550E0,5.092317870E0
3.455975542E0,2.466710488E0,-1.605881646E0,1.204362995E0,3.180252618E0
3.466001542E0,2.428751095E0,-1.554448952E0,4.834805346E-1,2.923849663E0
3.476028542E0,2.491224355E0,-1.557374899E0,1.305139610E0,3.214810222E0
3.486054542E0,3.073084293E0,-1.261510465E0,1.850331513E0,3.802496868E0
3.496080542E0,3.088065444E0,-8.873138058E-1,1.517001483E0,3.553134880E0
3.506106542E0,2.286117186E0,-5.783369905E-1,5.466725636E-1,2.420672707E0
3.516132542E0,1.026104778E0,2.950738907E-2,-4.470067728E-1,1.119632421E0
3.526158542E0,-1.839843581E-1,1.020370122E0,-6.344112039E-1,1.215517587E0
3.536185542E0,-5.624434909E-1,1.848658040E0,-4.352421749E-1,1.980735969E0
3.546211542E0,-1.515504303E0,3.265626673E0,-6.788371789E-1,3.663589875E0
3.556237542E0,-1.806235028E0,4.156292687E0,-1.314538279E0,4.718608350E0
3.566263542E0,-1.204487906E0,3.929458727E0,-1.363629747E0,4.330233606E0
3.576289542E0,-2.376709341E-1,2.998791910E0,-9.440984559E-1,3.152865726E0
3.586316542E0,4.181662586E-1,1.902773436E0,-1.096375739E0,2.235497602E0
3.596342542E0,7.263588162E-1,1.099863018E0,-1.232611186E0,1.804612458E0
3.606368542E0,1.002403382E0,9.122591972E-1,-1.053191128E0,1.716461749E0
3.616394542E0,1.074763041E0,1.202631342E0,-6.663323236E-1,1.745117906E0
3.626420542E0,1.069595053E0,1.811100789E0,-3.214020024E-1,2.127773224E0
3.636446542E0,1.164512247E0,2.347447169E0,-9.383611679E-3,2.620436040E0
3.646473542E0,1.152256263E0,2.506627091E0,-2.897219342E-1,2.773952535E0
3.656500292E0,1.135215430E0,2.260280387E0,-9.252588733E-1,2.693266694E0
3.666526292E0,1.245711580E0,1.544735557E0,-1.409895841E0,2.434298989E0
3.676552292E0,1.087402967E0,3.824377245E-1,-2.253273668E0,2.530997047E0
3.686578292E0,6.010846328E-1,-6.605634606E-1,-3.247822486E0,3.368382063E0
3.696605292E0,3.176253955E-1,-1.261844341E0,-4.132176138E0,4.332206905E0
3.706631292E0,2.584042837E-1,-1.509840544E0,-4.716752985E0,4.959248931E0
3.716657292E0,3.551755566E-1,-1.578733608E0,-4.794212220E0,5.059942717E0
3.726683292E0,5.515176030E-1,-1.861839418E0,-4.878641921E0,5.250882276E0
3.736709292E0,7.763972412E-1,-2.526138080E0,-5.031233200E0,5.683086642E0
3.746736292E0,1.368454431E0,-3.359782632E0,-5.023810744E0,6.196731498E0
3.756762292E0,2.378436243E0,-4.000239857E0,-5.114810961E0,6.915212871E0
3.766788292E0,3.465686525E0,-4.095141921E0,-5.239050261E0,7.498587739E0
3.776814292E0,4.200122831E0,-4.120446916E0,-5.265258066E0,7.895698645E0
3.786840292E0,4.303562999E0,-4.182453130E0,-5.209980828E0,7.947167351E0
3.796867292E0,3.871284193E0,-4.093022890E0,-5.072346143E0,7.580789739E0
3.806893292E0,3.227810975E0,-4.163330396E0,-5.486310300E0,7.606029475E0
3.816919292E0,2.837843791E0,-4.621408871E0,-5.930094087E0,8.035968717E0
3.826945292E0,2.621452957E0,-5.079134175E0,-5.760473962E0,8.114966411E0
3.836971292E0,2.009489068E0,-5.015861455E0,-5.308692353E0,7.574901118E0
3.846997292E0,2.085382273E0,-4.578394414E0,-3.251463547E0,5.990202821E0
3.857024292E0,1.898042307E0,-4.623284073E0,-2.148103309E0,5.439822428E0
3.867050292E0,2.790927925E-1,-4.971892732E0,-1.968294557E0,5.354604895E0
3.877076292E0,2.112647255E-1,-5.423007174E0,8.751299626E-1,5.497225849E0
3.887102292E0,6.104612278E-1,-5.107363948E0,3.915358166E0,6.464352943E0
3.897128292E0,-5.952956335E-1,-4.760236974E0,4.180083253E0,6.362965421E0
3.907155292E0,-2.137183341E0,-4.867407081E0,2.809360249E0,6.012629153E0
3.917181292E0,-3.468062541E0,-5.420433814E0,1.152916560E0,6.537413641E0
3.927207292E0,-4.082977374E0,-5.810492215E0,2.557536312E-1,7.106189832E0
3.937233292E0,-4.024955160E0,-5.392167204E0,7.920568156E-1,6.775181562E0
3.947259292E0,-3.928425816E0,-4.658081439E0,2.087244465E0,6.441027988E0
3.957286292E0,-3.739850480E0,-4.533634563E0,2.371921860E0,6.337691794E0
3.967312292E0,-3.867340246E0,-4.257650077E0,1.565166460E0,5.961010888E0
3.977338292E0,-3.789777223E0,-3.834660743E0,1.792105085E0,5.681432482E0
3.987364292E0,-4.256478588E0,-3.508558018E0,3.524435255E0,6.545932569E0
3.997390292E0,-3.305376045E0,-2.643978186E0,6.280176244E0,7.573423605E0
4.007416292E0,-1.051034017E0,-1.233014059E0,3.546228704E0,3.898811896E0
4.017443292E0,2.718209393E-1,-3.404915535E-1,1.832275311E0,1.883362402E0
4.027469292E0,1.588603416E0,-1.305852824E-1,2.422410228E0,2.899790448E0
4.037495292E0,2.977147856E0,3.121594548E-2,3.296744092E0,4.442173500E0
4.047521292E0,4.436445068E0,9.897874296E-2,4.389687516E0,6.241890589E0
4.057547292E0,5.068788697E0,5.025488895E-1,4.602046402E0,6.864692660E0
4.067574292E0,4.202184559E0,1.524056295E0,5.049783491E0,6.743991101E0
4.077600292E0,2.843497463E0,2.664337606E0,6.702050514E0,7.752525640E0
4.087626292E0,1.969856787E0,3.918983440E0,7.690342226E0,8.853255363E0
4.097652292E0,1.459971250E0,4.800696198E0,7.945045186E0,9.396911356E0
4.107678292E0,1.032731866E0,5.219170312E0,8.249650623E0,9.816466230E0
4.117705292E0,8.270662154E-1,5.359153824E0,8.386342737E0,9.986756868E0
4.127731292E0,7.280757049E-1,5.509589819E0,8.068995048E0,9.797670912E0
4.137757292E0,1.796802592E-1,5.676675176E0,7.368265893E0,9.303132178E0
4.147783292E0,-5.872516555E-1,5.715672011E0,6.523229796E0,8.692887783E0
4.157809292E0,-1.050182297E0,5.690420811E0,5.765835859E0,8.168759699E0
4.167835292E0,-1.065481244E0,5.430835426E0,5.218827081E0,7.606929722E0
4.177862292E0,-9.346018468E-1,5.108402998E0,4.750381492E0,7.038137972E0
4.187888292E0,-1.016297097E0,4.965078387E0,4.206598622E0,6.586374962E0
4.197914292E0,-1.097486271E0,4.981155891E0,3.639849644E0,6.266170725E0
4.207940292E0,-1.186440548E0,5.126986619E0,3.008816961E0,6.061898421E0
4.217966292E0,-1.399412953E0,5.280190101E0,2.340703576E0,5.942866088E0
4.227993292E0,-1.544257255E0,5.223401942E0,1.711595212E0,5.709484783E0
4.238019292E0,-1.503259795E0,4.878497495E0,8.501749232E-1,5.175164270E0
4.248045292E0,-1.192311299E0,4.019099466E0,-5.657549518E-1,4.230229949E0
4.258071292E0,-9.180260137E-1,2.465793060E0,-2.949166006E0,3.952276218E0
4.268097292E0,-1.394772602E0,-3.727219909E-1,-6.038607885E0,6.208791950E0
4.278124292E0,-1.733917834E0,-4.133809558E0,-9.503632212E0,1.050780080E1
4.288150292E0,-1.447298141E0,-8.439355933E0,-1.254262958E1,1.518667038E1
4.298176292E0,-1.572259717E0,-1.252876817E1,-1.446063092E1,1.919770504E1
4.308202292E0,-1.182870823E0,-1.324623907E1,-1.340701528E1,1.888412274E1
4.318228292E0,-4.487145983E-1,-8.470282441E0,-9.246160011E0,1.254745011E1
4.328254292E0,-1.377028203E0,-2.641946864E0,-5.304425055E0,6.083832268E0
4.338281292E0,-1.603790535E0,1.830639260E0,-2.892086071E0,3.779887039E0
4.348307292E0,-1.524173385E0,4.760231711E0,-1.288073196E0,5.161593069E0
4.358333292E0,-3.207778414E0,4.532964472E0,-1.425734486E0,5.733265046E0
4.368359292E0,-5.241338276E0,3.014795154E-1,-4.550389175E0,6.947557734E0
4.378385292E0,-3.928061827E0,-5.658193297E0,-2.577280751E0,7.354399851E0
4.388412292E0,1.245044267E0,-9.424191356E0,7.830570152E0,1.231597933E1
4.398438292E0,5.867456959E0,-9.553233558E0,1.737260746E1,2.067604441E1
4.408464292E0,4.047595579E0,-7.158521590E0,1.685116329E1,1.875071107E1
4.418490292E0,-2.540473406E-1,-4.240142929E0,9.435861813E0,1.034789062E1
4.428516292E0,-4.198058764E0,-7.435442215E-1,5.814629120E-1,4.302865849E0
4.438543292E0,-5.147441348E0,2.743995395E0,3.597616374E-1,5.844235758E0
4.448569292E0,-4.443117326E0,5.778804399E0,5.999102926E0,9.440609502E0
4.458595292E0,-3.506678430E0,6.864976162E0,5.468284503E0,9.451287040E0
4.468621292E0,-4.994412406E-1,4.640065582E0,5.003643113E0,6.842228772E0
4.478647292E0,2.352120264E0,1.432623968E0,8.196880671E0,8.647180691E0
4.488674292E0,3.185912166E0,-6.695020992E-1,1.088007555E1,1.135668584E1
4.498700292E0,2.537044891E0,-2.452002987E0,1.030846227E1,1.089556377E1
4.508726292E0,2.582867474E0,-3.535597882E0,5.601351929E0,7.109627290E0
4.518752292E0,3.501387285E0,-4.037434580E0,8.060750766E-1,5.404659835E0
4.528778292E0,3.822771599E0,-4.172474856E0,6.419659527E-1,5.695195292E0
4.538804292E0,4.193774509E0,-3.739480936E0,1.960859091E0,5.951170530E0
4.548831292E0,4.580089522E0,-2.765626000E0,2.169983590E0,5.773624163E0
4.558857292E0,4.183081413E0,-1.359445480E0,2.000436555E0,4.831977704E0
4.568883292E0,2.740188857E0,2.913433671E-2,2.220064992E0,3.526779317E0
4.578909292E0,1.211254231E0,1.269046356E0,1.801392657E0,2.514484235E0
4.588935292E0,-1.689150601E-1,2.555745456E0,8.237031162E-1,2.690511839E0
4.598962292E0,-1.217734846E0,3.232708018E0,3.719881654E-1,3.474428655E0
4.608988292E0,-1.628550862E0,3.637544087E0,-2.846787107E-1,3.995615955E0
4.619014292E0,-1.391925008E0,3.439127010E0,-4.991393781E-1,3.743553116E0
4.629040292E0,-8.788637752E-1,2.694364813E0,-4.245242286E-1,2.865697838E0
4.639066292E0,-6.007901524E-1,2.049632689E0,-1.109223826E0,2.406724010E0
4.649093292E0,-3.972852303E-1,1.774256313E0,-2.243624593E0,2.887849084E0
4.659118583E0,6.558332093E-2,1.872203023E0,-2.444490484E0,3.079769319E0
4.669144583E0,5.099510625E-1,2.264963422E0,-1.544337362E0,2.788384349E0
4.679170583E0,9.310594574E-1,2.144338871E0,-1.424537269E0,2.737584216E0
4.689196583E0,1.386002510E0,1.589749762E0,-1.340939627E0,2.499285167E0
4.699223583E0,1.433772361E0,1.056038722E0,-3.476012561E-1,1.814317392E0
4.709249583E0,9.239230768E-1,5.890531826E-1,8.487993658E-1,1.386029533E0
4.719275583E0,5.710152532E-1,4.421044672E-1,1.175035408E0,1.379211002E0
4.729301583E0,4.092473544E-1,1.086994466E0,-5.257100031E-2,1.162671096E0
4.739327583E0,3.840825828E-1,1.456275371E0,-1.974195859E0,2.483084106E0
4.749353583E0,3.676737973E-1,1.290202752E0,-3.109149919E0,3.386239859E0
4.759380583E0,3.317885578E-2,4.348714614E-1,-3.871636196E0,3.896123825E0
4.769406583E0,2.144159362E-2,-8.119660002E-1,-5.063464222E0,5.128198363E0
4.779432583E0,3.058360565E-1,-1.664102957E0,-5.414587183E0,5.672788442E0
4.789458583E0,7.290463427E-1,-2.157782789E0,-5.915795306E0,6.339098456E0
4.799484583E0,1.250749834E0,-2.374118074E0,-5.994519294E0,6.567729695E0
4.809511583E0,1.780344434E0,-2.726346159E0,-4.726095959E0,5.739213595E0
4.819537583E0,2.664297845E0,-3.205169971E0,-3.954874234E0,5.745661647E0
4.829563583E0,3.786488457E0,-3.522453926E0,-4.532061077E0,6.876391067E0
4.839589583E0,4.773930568E0,-3.887669261E0,-5.093684971E0,7.990620248E0
4.849615583E0,5.142924374E0,-3.988796271E0,-4.997642115E0,8.205887735E0
4.859642583E0,4.790703891E0,-3.980596136E0,-4.894908291E0,7.921875822E0
4.869668583E0,3.706066145E0,-4.122826148E0,-5.618363233E0,7.892947937E0
4.879694583E0,2.607262934E0,-3.897277991E0,-6.594246569E0,8.091395649E0
4.889720583E0,1.830998864E0,-3.523280722E0,-7.397836432E0,8.396073354E0
4.899746583E0,1.250760943E0,-3.681663083E0,-7.279243789E0,8.252662367E0
4.909773583E0,9.712515367E-1,-3.455898578E0,-6.580764059E0,7.496200379E0
4.919799583E0,3.865005161E-1,-3.124667845E0,-5.518513840E0,6.353497209E0
4.929825583E0,-2.605103412E-1,-3.549340008E0,-4.697063656E0,5.893054142E0
4.939851583E0,6.659999093E-1,-4.652390928E0,-2.502222968E0,5.324417058E0
4.949877583E0,3.307986242E0,-5.960910668E0,1.357194301E0,6.951057857E0
4.959903583E0,4.847352886E0,-6.126538314E0,4.026366971E0,8.788795861E0
4.969930583E0,3.946230880E0,-6.105494769E0,4.534257292E0,8.567922369E0
4.979956583E0,2.169774259E0,-6.648742619E0,4.279537375E0,8.199276730E0
4.989982583E0,4.673761697E-1,-7.182490497E0,3.845706718E0,8.160641542E0
5.000008583E0,-1.248762073E0,-6.910302608E0,3.577651641E0,7.881071001E0
5.010034583E0,-2.995585589E0,-6.554806514E0,3.559817634E0,8.038116884E0
5.020061583E0,-4.660947744E0,-6.097832578E0,3.290282042E0,8.350685716E0
5.030087583E0,-6.190516793E0,-5.366445302E0,2.023925551E0,8.439046628E0
5.040113583E0,-7.066255451E0,-5.040102257E0,-1.087762206E0,8.747446683E0
5.050139583E0,-5.558941489E0,-5.659134699E0,3.219104178E-1,7.939223031E0
5.060165583E0,-3.855520392E0,-5.236564025E0,4.866524152E0,8.122173207E0
5.070192583E0,-3.850406710E0,-3.940485991E0,5.753469583E0,7.965894420E0
5.080218583E0,-3.725347339E0,-2.384566464E0,4.298510420E0,6.167784193E0
5.090244583E0,-1.919634613E0,-1.175376300E0,2.326548344E0,3.237179898E0
5.100270583E0,8.065357641E-1,-2.937085658E-1,3.188423838E0,3.301940525E0
5.110296583E0,2.691029854E0,3.998162341E-1,3.856966116E0,4.719923974E0
5.120322583E0,3.474936235E0,1.164684082E0,4.412049900E0,5.735665190E0
5.130349583E0,3.146831716E0,2.313229263E0,4.739773473E0,6.141582211E0
5.140375583E0,2.140186763E0,3.487768827E0,5.175664104E0,6.597911010E0
5.150401583E0,1.803707423E0,4.588774976E0,6.088917913E0,7.834866789E0
5.160427583E0,1.875965998E0,5.390914730E0,7.365966184E0,9.318726730E0
5.170453583E0,1.678481552E0,5.591637949E0,8.267409786E0,1.012095746E1
5.180480583E0,1.391626216E0,5.687193148E0,8.358097762E0,1.020483158E1
5.190506583E0,1.226342386E0,5.658907242E0,8.328244802E0,1.014331348E1
5.200532583E0,8.570706908E-1,5.748395369E0,8.306249331E0,1.013767219E1
5.210558583E0,6.303017807E-1,5.750901486E0,7.842045897E0,9.745144026E0
5.220584583E0,3.407675421E-1,5.505476888E0,7.382655891E0,9.215747734E0
5.230611583E0,-3.388629578E-1,5.024336994E0,6.941833718E0,8.576004064E0
5.240637583E0,-8.787280467E-1,4.448622479E0,6.760395786E0,8.140353563E0
5.250663583E0,-8.550117400E-1,4.065445667E0,6.881064191E0,8.037906316E0
5.260689583E0,-4.504785571E-1,4.056958433E0,6.845366355E0,7.969998945E0
5.270715583E0,1.192831993E-2,4.445496558E0,5.910029367E0,7.395338332E0
5.280742583E0,3.033517939E-1,4.983942674E0,4.337378617E0,6.613967051E0
5.290768583E0,2.066851862E-1,5.454459931E0,2.549957882E0,6.024627549E0
5.300794583E0,1.409184819E-1,5.448886365E0,4.228890547E-1,5.467088420E0
5.310820583E0,-1.005203614E-1,4.644609454E0,-2.345442159E0,5.204190642E0
5.320846583E0,-8.356422535E-1,2.855162074E0,-5.360998621E0,6.131113656E0
5.330872583E0,-1.881637798E0,-2.558186084E-1,-7.947213918E0,8.170937096E0
5.340899583E0,-3.067532946E0,-4.401914921E0,-1.060183579E1,1.188215197E1
5.350925583E0,-4.141365038E0,-8.015060915E0,-1.163182868E1,1.472044647E1
5.360951583E0,-4.279878268E0,-9.507574990E0,-1.139143093E1,1.544266942E1
5.370977583E0,-2.565556499E0,-8.155425081E0,-1.063353822E1,1.364423591E1
5.381003583E0,-1.994472103E0,-5.049768873E0,-8.395219395E0,9.997889444E0
5.391030583E0,-2.486703580E0,-2.087102816E0,-5.293586656E0,6.209810992E0
5.401056583E0,-1.269680925E0,-4.453414857E-2,-2.270268016E0,2.601574486E0
5.411082583E0,-5.101374060E-2,1.036445872E0,-2.670873624E-1,1.071521398E0
5.421108583E0,-1.183532728E0,3.781558084E-1,-6.363027781E-1,1.395934367E0
5.431134583E0,-3.473527641E0,-2.632043434E0,-3.018889082E0,5.301578841E0
5.441161583E0,-4.096192373E0,-6.678306141E0,-6.133826868E0,9.949994820E0
5.451187583E0,-1.910493076E0,-1.050168702E1,-5.086124521E0,1.182387740E1
5.461213583E0,3.309339287E0,-1.154237563E1,3.642065154E0,1.254762130E1
5.471239583E0,5.462888693E0,-8.105261233E0,1.686490659E1,1.949265212E1
5.481265583E0,2.414555079E0,-2.864398336E0,1.711128604E1,1.751659110E1
5.491292583E0,-2.684245622E0,1.716345490E0,9.735677796E0,1.024375119E1
5.501318583E0,-6.014169447E0,4.515881832E0,1.051475847E0,7.594012399E0
5.511344583E0,-6.059226921E0,6.003214104E0,2.638464262E0,8.928286740E0
5.521370583E0,-3.520943005E0,6.622110305E0,5.644750548E0,9.386830844E0
5.531396583E0,-2.528270267E-1,5.702090099E0,5.102638813E0,7.656022195E0
5.541422583E0,2.501230111E0,2.843676388E0,5.810275283E0,6.935556670E0
5.551449583E0,3.401056373E0,2.326162720E-1,7.663979470E0,8.387960187E0
5.561475583E0,3.266568659E0,-1.750693204E0,9.598064160E0,1.028874303E1
5.571501583E0,1.766746734E0,-2.653070607E0,6.598080003E0,7.327676125E0
5.581527583E0,2.214588197E0,-3.208414591E0,1.431707125E0,4.153084439E0
5.591553583E0,2.827149818E0,-3.615322328E0,3.112592760E-1,4.600023257E0
5.601580583E0,3.095646359E0,-3.858596320E0,2.183056941E0,5.407173897E0
5.611606583E0,3.400511997E0,-3.763157482E0,3.041286550E0,5.913903952E0
5.621632583E0,3.534215600E0,-3.101950827E0,2.334259944E0,5.249909364E0
5.631658583E0,3.042013066E0,-1.633895071E0,1.766947879E0,3.878860838E0
5.641684583E0,1.450663505E0,-4.016744792E-2,1.541500293E0,2.117135136E0
5.651711583E0,2.048233596E-1,1.352118918E0,1.429844202E0,1.978543055E0
5.661737417E0,-5.961037552E-1,2.716150954E0,1.203503162E0,3.030055371E0
5.671763417E0,-9.427261875E-1,3.919595643E0,-1.734517138E-2,4.031409620E0
5.681789417E0,-7.626783577E-1,4.504885558E0,-6.325330782E-1,4.612566559E0
5.691815417E0,-6.902260201E-1,4.487956114E0,-8.596096981E-1,4.621373267E0
5.701842417E0,-3.695288265E-1,3.853142622E0,-1.691128203E0,4.224118159E0
5.711868417E0,1.763799811E-1,2.758628637E0,-1.753840760E0,3.273698102E0
5.721894417E0,5.227809866E-1,1.791196282E0,-1.285628475E0,2.265948953E0
5.731920417E0,9.039055726E-1,1.396381171E0,-8.706012940E-1,1.877464320E0
5.741946417E0,5.909298099E-1,1.195131118E0,-8.361951077E-1,1.573772121E0
5.751972417E0,5.511359260E-1,1.277908981E0,-8.020256605E-1,1.606252574E0
5.761999417E0,6.929715072E-1,1.415458297E0,-3.718757527E-1,1.619266277E0
5.772025417E0,5.609725142E-1,1.538985990E0,2.841702953E-2,1.638284337E0
5.782051417E0,9.642323563E-2,1.885180918E0,-3.102434684E-1,1.912970346E0
5.792077417E0,-3.051953296E-1,2.129372923E0,-1.334785286E0,2.531605221E0
5.802103417E0,-1.665848716E-1,1.611520700E0,-2.193457237E0,2.726903764E0
5.812130417E0,-8.098123245E-2,3.371311587E-1,-2.661540883E0,2.684029667E0
5.822156417E0,-1.693586080E-1,-1.043190050E0,-3.581282762E0,3.733967601E0
5.832182417E0,-1.752116708E-1,-1.878476501E0,-4.792836955E0,5.150792092E0
5.842208417E0,3.559938379E-2,-1.804080037E0,-5.456243917E0,5.746874783E0
5.852234417E0,4.497999146E-1,-1.473325267E0,-5.551884484E0,5.761634198E0
5.862261417E0,1.069642196E0,-1.580580744E0,-4.974588883E0,5.328123916E0
5.872287417E0,1.971468572E0,-2.405655032E0,-4.265537679E0,5.279079101E0
5.882313417E0,3.368913059E0,-3.509405864E0,-4.209683028E0,6.433267904E0
5.892339417E0,4.618048477E0,-4.178663549E0,-4.166790778E0,7.493313431E0
5.902365417E0,5.203330205E0,-4.324813535E0,-4.486008407E0,8.118061885E0
5.912392417E0,4.991287361E0,-4.179233068E0,-5.274465092E0,8.378479610E0
5.922418417E0,4.274698219E0,-3.943330661E0,-6.107935397E0,8.433847069E0
5.932444417E0,3.507894359E0,-4.034022145E0,-6.559086092E0,8.461694148E0
5.942470417E0,3.006362885E0,-5.022701527E0,-7.057202207E0,9.168961305E0
5.952496417E0,3.303736193E0,-6.274360018E0,-6.810727449E0,9.832002586E0
5.962523417E0,3.525946760E0,-6.258083124E0,-5.409597169E0,8.992199201E0
5.972549417E0,3.333428062E0,-5.086199951E0,-4.531281059E0,7.583777463E0
5.982575417E0,2.536190613E0,-4.484215651E0,-4.644139338E0,6.936027899E0
5.992601417E0,1.224016144E0,-4.885009539E0,-3.690283048E0,6.243374304E0
6.002627417E0,7.645251276E-1,-5.329831207E0,-7.241378975E-1,5.432860670E0
6.012653417E0,5.022104088E-1,-4.767752400E0,2.097852337E0,5.233035703E0
6.022680417E0,-2.116189206E-1,-4.315875481E0,4.151091589E0,5.991921655E0
6.032706417E0,-1.632139883E0,-4.697757136E0,3.647018330E0,6.167134294E0
6.042732417E0,-2.457204085E0,-5.374612693E0,2.143500381E0,6.286406557E0
6.052758417E0,-3.016706901E0,-5.948360789E0,1.156807297E0,6.769174228E0
6.062784417E0,-3.289346488E0,-6.052623661E0,1.179194020E0,6.988887753E0
6.072811417E0,-3.766562315E0,-5.752491928E0,2.024748108E0,7.167828120E0
6.082837417E0,-4.104062141E0,-5.506373266E0,2.949995141E0,7.474352409E0
6.092863417E0,-3.886312999E0,-5.117355670E0,2.372989269E0,6.849951522E0
6.102889417E0,-4.072369940E0,-4.280286988E0,1.004168364E0,5.992779633E0
6.112915417E0,-4.434300309E0,-3.699114098E0,3.740222948E0,6.880096805E0
6.122942417E0,-3.365783045E0,-2.715234695E0,4.828464917E0,6.481903147E0
6.132968417E0,-2.496179578E0,-1.353232813E0,2.289959392E0,3.647748010E0
6.142994417E0,-1.148779728E0,-5.141801709E-1,1.944131084E0,2.315971024E0
6.153020417E0,5.140360736E-1,-3.328100663E-1,3.351372289E0,3.406859529E0
6.163046417E0,2.390652246E0,-1.216326106E-1,3.847559116E0,4.531415210E0
6.173073417E0,4.948106259E0,1.390228146E-1,4.175876182E0,6.476189063E0
6.183099417E0,5.647690528E0,4.674445456E-1,4.596320808E0,7.296648386E0
6.193125417E0,4.735513484E0,1.266061352E0,5.558936226E0,7.411462155E0
6.203151417E0,3.202324131E0,2.450956920E0,6.946810284E0,8.032449364E0
6.213177417E0,1.968376126E0,3.681293539E0,7.898167473E0,8.933503015E0
6.223204417E0,1.606125182E0,4.458531756E0,8.418963768E0,9.661112485E0
6.233230417E0,1.133429106E0,4.973213618E0,8.879599816E0,1.024035195E1
6.243256417E0,7.067054473E-1,5.344068593E0,9.090688979E0,1.056878081E1
6.253282417E0,3.803293647E-1,5.636749218E0,9.152153741E0,1.075544096E1
6.263308417E0,6.116099864E-2,5.919211834E0,8.828074152E0,1.062900290E1
6.273334417E0,-2.026202019E-1,6.068441548E0,8.080133409E0,1.010720504E1
6.283361417E0,-5.381533165E-1,5.902358989E0,7.194242231E0,9.321189404E0
6.293387417E0,-1.023574250E0,5.263291647E0,6.200785673E0,8.197541471E0
6.303413417E0,-1.183460953E0,4.647914885E0,5.812148146E0,7.535566248E0
6.313439417E0,-9.248576081E-1,4.335240290E0,5.561355804E0,7.111845636E0
6.323465417E0,-8.195605101E-1,4.441453793E0,4.960184267E0,6.708324619E0
6.333492417E0,-1.098658638E0,4.777124317E0,4.061509906E0,6.365833038E0
6.343518417E0,-1.493052749E0,5.162667498E0,2.739584840E0,6.032219103E0
6.353544417E0,-1.276072809E0,5.474541609E0,1.382403402E0,5.788782843E0
6.363570417E0,-1.006715850E0,5.062138658E0,-1.473439872E-1,5.163374366E0
6.373596417E0,-1.018375929E0,3.547944862E0,-2.114171332E0,4.253789216E0
6.383623417E0,-1.257108388E0,1.074671459E0,-4.079888582E0,4.402355175E0
6.393649417E0,-2.194304206E0,-2.374309863E0,-6.344904336E0,7.121104501E0
6.403675417E0,-3.119357111E0,-6.523298793E0,-9.817166348E0,1.219264414E1
6.413701417E0,-3.515286409E0,-1.076047426E1,-1.310363133E1,1.731618315E1
6.423727417E0,-2.780995698E0,-1.342405173E1,-1.433664889E1,1.983629510E1
6.433754417E0,-1.226908396E0,-1.111524121E1,-1.282661832E1,1.701693359E1
6.443780417E0,-1.195032008E0,-5.715458588E0,-8.281826096E0,1.013327251E1
6.453806417E0,-1.917205826E0,-1.199941623E0,-3.357399307E0,4.048168497E0
6.463832417E0,-2.043770417E0,2.314808012E0,-3.266815996E-1,3.105165779E0
6.473858417E0,-2.760940041E0,3.879251609E0,-2.998107201E-1,4.770877218E0
6.483885417E0,-4.935012589E0,1.283969035E0,-2.589591187E0,5.719170241E0
6.493911417E0,-6.390377548E0,-3.664452973E0,-4.110376549E0,8.435658609E0
6.503937417E0,-4.836777027E0,-7.197734773E0,-5.197595841E-1,8.687459231E0
6.513963417E0,2.617526552E-1,-7.499460456E0,9.627516586E0,1.220653502E1
6.523989417E0,4.094889321E0,-4.438151286E0,1.811597919E1,1.909591599E1
6.534016417E0,1.709284392E0,-2.082725006E0,1.393565035E1,1.419372211E1
6.544042417E0,-1.821255063E0,-1.413637474E0,7.102837971E0,7.467640066E0
6.554068417E0,-3.559117722E0,-3.073682463E-1,-1.354369512E0,3.820485698E0
6.564094417E0,-2.213053157E0,1.233231575E0,-2.415002391E-1,2.544953194E0
6.574120417E0,7.191348736E-1,2.871113278E0,6.978330869E0,7.580075735E0
6.584146417E0,3.660472189E0,3.506323212E0,8.684077696E0,1.005517601E1
6.594173417E0,4.344981751E0,2.154349889E0,7.728097697E0,9.123792188E0
6.604199417E0,3.130054007E0,3.449342680E-1,7.500400103E0,8.134630874E0
6.614225417E0,2.135645670E0,-1.089599985E0,6.333640845E0,6.772238692E0
6.624251417E0,1.871871632E0,-1.621680238E0,3.344731899E0,4.161848348E0
6.634277417E0,1.889231869E0,-1.808433289E0,1.591020509E0,3.061204710E0
6.644304417E0,1.754181945E0,-1.999401598E0,1.678965702E0,3.145423163E0
6.654330417E0,2.249371090E0,-1.908758646E0,3.259440318E0,4.396246246E0
6.664357292E0,3.483511762E0,-1.986534215E0,3.558365185E0,5.361262461E0
6.674383292E0,3.434784282E0,-1.986500301E0,2.094888822E0,4.486923856E0
6.684409292E0,3.485321183E0,-2.048040492E0,1.381584646E0,4.272084940E0
6.694436292E0,3.179873747E0,-1.707088763E0,1.178118206E0,3.796539424E0
6.704462292E0,1.960105093E0,-5.728575647E-1,9.951014522E-1,2.271652408E0
6.714488292E0,4.662037665E-1,1.041077451E0,5.321772429E-1,1.258729847E0
6.724514292E0,-6.413683672E-1,2.594836432E0,-1.636729217E-1,2.677931723E0
6.734540292E0,-6.098262202E-1,3.342094220E0,1.299214773E-3,3.397275891E0
6.744567292E0,-6.991422200E-1,3.594945951E0,4.437685847E-1,3.689087528E0
6.754593292E0,-8.330206543E-1,3.905341886E0,-2.585112329E-1,4.001555537E0
6.764619292E0,-9.449214515E-1,3.790221319E0,-1.770698283E0,4.288825784E0
6.774645292E0,-2.601585215E-1,2.997983825E0,-2.404749883E0,3.852065870E0
6.784671292E0,7.342890293E-1,2.080780807E0,-1.999713839E0,2.977865776E0
6.794698292E0,1.024593127E0,1.515519944E0,-1.821605896E0,2.581635106E0
6.804724292E0,9.772176701E-1,1.161486239E0,-2.075591403E0,2.571397350E0
6.814750292E0,7.628851298E-1,9.417227322E-1,-1.609304021E0,2.014620276E0
6.824776292E0,3.067333849E-1,8.704247081E-1,-5.087837756E-1,1.053843191E0
6.834802292E0,1.882421727E-1,9.599116659E-1,4.127024741E-1,1.061691506E0
6.844828292E0,3.062408300E-1,1.013891991E0,3.447961275E-1,1.113842352E0
6.854855292E0,5.207302584E-1,1.095363586E0,-5.172097595E-1,1.318517092E0
6.864881292E0,8.482110628E-1,1.030479957E0,-1.753972322E0,2.204034904E0
6.874907292E0,1.091920745E0,6.534818977E-1,-2.965342328E0,3.226853673E0
6.884933292E0,1.068447390E0,8.347017288E-2,-4.081968144E0,4.220309352E0
6.894959292E0,9.302717643E-1,-5.454458177E-1,-5.046306152E0,5.160244420E0
6.904986292E0,6.934835771E-1,-1.033748551E0,-5.288464496E0,5.432992938E0
6.915012292E0,4.536029802E-1,-1.623442004E0,-5.131684272E0,5.401435278E0
6.925038292E0,1.997658104E-1,-2.166724936E0,-4.978050435E0,5.432825182E0
6.935064292E0,4.029227502E-1,-2.606948939E0,-4.464771320E0,5.185818397E0
6.945090292E0,1.348973116E0,-3.091462677E0,-3.939274448E0,5.186015149E0
6.955117292E0,2.740266625E0,-3.588314624E0,-3.714410999E0,5.846529918E0
6.965143292E0,3.789036673E0,-4.100874531E0,-3.856222351E0,6.785604000E0
6.975169292E0,4.060379347E0,-4.165027258E0,-4.402989639E0,7.295234764E0
6.985195292E0,3.655006211E0,-4.109489819E0,-5.199255865E0,7.568304865E0
6.995221292E0,3.275076358E0,-4.450390677E0,-5.576316490E0,7.850312601E0
7.005248292E0,3.346793042E0,-5.429333276E0,-5.644365216E0,8.516897451E0
7.015274292E0,3.302798884E0,-6.255272368E0,-5.869788244E0,9.191916388E0
7.025300292E0,2.885996781E0,-5.822529293E0,-6.003722811E0,8.847344934E0
7.035326292E0,2.101685480E0,-4.636838504E0,-6.728803280E0,8.437662398E0
7.045352292E0,1.306140800E0,-4.071358956E0,-6.032643725E0,7.394238152E0
7.055379292E0,4.205117230E-1,-4.152728809E0,-4.429465247E0,6.086226174E0
7.065405292E0,-6.269970806E-1,-5.099260876E0,-2.409752761E0,5.674724239E0
7.075431292E0,1.820939898E-1,-6.013070755E0,1.366279705E0,6.169027343E0
7.085457292E0,7.655784304E-1,-5.675637880E0,4.810221312E0,7.479117912E0
7.095483292E0,-3.786591806E-1,-5.606936020E0,4.935808979E0,7.479527029E0
7.105509292E0,-1.808510326E0,-6.030905932E0,3.004277183E0,6.976260987E0
7.115536292E0,-3.171412826E0,-6.469711985E0,9.732538426E-1,7.270643405E0
7.125562292E0,-3.807659470E0,-5.989919874E0,3.408200940E-1,7.105882709E0
7.135588292E0,-3.486295329E0,-4.724716308E0,1.815820076E0,6.146088338E0
7.145614292E0,-3.816867373E0,-3.575700426E0,3.221901194E0,6.142862312E0
7.155640292E0,-4.024176604E0,-2.925549687E0,2.666798115E0,5.644878253E0
7.165667292E0,-3.416218788E0,-2.851702276E0,1.186092639E0,4.605385155E0
7.175693292E0,-3.430041606E0,-3.018708696E0,3.881377072E0,5.995237742E0
7.185719292E0,-3.223933978E0,-2.591192447E0,5.759116824E0,7.090518682E0
7.195745292E0,-3.643165600E0,-1.119875114E0,4.391577336E0,5.814871224E0
7.205771292E0,-2.516432287E0,3.892427140E-1,3.291804365E0,4.161720476E0
7.215798292E0,-6.673585099E-1,9.204312658E-1,3.351773993E0,3.539343159E0
7.225824292E0,1.027776424E0,1.199355147E0,4.273921709E0,4.556444219E0
7.235850292E0,2.137739411E0,1.342905461E0,5.104225162E0,5.694421777E0
7.245876292E0,2.688930995E0,1.944152427E0,5.441625293E0,6.373489185E0
7.255902292E0,2.876117325E0,2.575944078E0,5.731907390E0,6.911027499E0
7.265929292E0,2.370297065E0,3.325175301E0,5.406527381E0,6.775369900E0
7.275955292E0,2.142467324E0,3.647482599E0,6.427291605E0,7.694437791E0
7.285981292E0,1.793340164E0,3.990335843E0,7.695350366E0,8.851963982E0
7.296007292E0,1.511552316E0,4.144450321E0,8.263412629E0,9.367243306E0
7.306033292E0,1.326736886E0,4.311890604E0,8.182625744E0,9.343874753E0
7.316060292E0,8.084059229E-1,4.812830924E0,7.958690248E0,9.335824126E0
7.326086292E0,1.317816228E-2,5.340895309E0,7.333144008E0,9.071953340E0
7.336112292E0,-3.651887307E-1,5.715632250E0,6.810971278E0,8.898940644E0
7.346138292E0,-7.376326865E-1,5.818638555E0,5.943415214E0,8.350140180E0
7.356164292E0,-1.202668325E0,5.408383287E0,5.289362628E0,7.659920227E0
7.366191292E0,-1.269064629E0,4.810379187E0,4.463574395E0,6.683843904E0
7.376217292E0,-9.471955799E-1,4.189596673E0,3.931142725E0,5.822695499E0
7.386243292E0,-7.745322718E-1,3.827709573E0,3.377159972E0,5.162990441E0
7.396269292E0,-5.182746837E-1,3.909161287E0,2.428830471E0,4.631346248E0
7.406295292E0,-1.332000111E-1,4.233444359E0,1.296690238E0,4.429582255E0
7.416321292E0,3.075430781E-2,4.331617940E0,-1.834382647E-1,4.335609462E0
7.426348292E0,-5.086171299E-2,3.772601320E0,-2.042666901E0,4.290407405E0
7.436374292E0,-3.838355014E-1,2.295257261E0,-3.703070616E0,4.373587495E0
7.446400292E0,-1.044562684E0,-4.138600767E-2,-5.378031560E0,5.478690306E0
7.456426292E0,-1.673528084E0,-3.022081954E0,-7.434998412E0,8.198345990E0
7.466452292E0,-1.926273542E0,-6.172313826E0,-9.289877889E0,1.131856081E1
7.476479292E0,-1.941456276E0,-8.366332396E0,-1.059744219E1,1.364076799E1
7.486505292E0,-1.581644791E0,-8.423601780E0,-1.073300404E1,1.373521179E1
7.496531292E0,-1.303427692E0,-5.885697348E0,-8.959876240E0,1.079906196E1
7.506557292E0,-2.203561664E0,-2.895032483E0,-5.883126912E0,6.917230613E0
7.516583292E0,-2.633303509E0,-5.292800206E-1,-2.483684955E0,3.658294093E0
7.526610292E0,-2.467686388E0,1.412743435E0,3.764235708E-1,2.868277328E0
7.536636292E0,-3.065501624E0,2.471616302E0,1.216003339E0,4.121268187E0
7.546662292E0,-4.928082469E0,6.725017208E-1,-6.742865834E-1,5.019254703E0
7.556688292E0,-5.848620738E0,-3.146171565E0,-2.161902153E0,6.984166448E0
7.566714292E0,-4.555735869E0,-6.690374209E0,-1.787396469E0,8.289187083E0
7.576741292E0,1.310584684E-1,-8.257210488E0,3.197531461E0,8.855670997E0
7.586767292E0,4.417079675E0,-6.950557179E0,1.282053253E1,1.523768002E1
7.596793292E0,1.802020355E0,-4.739175303E0,1.284573871E1,1.381014348E1
7.606819292E0,-1.573880711E0,-1.432963691E0,6.395235415E0,6.740142539E0
7.616845292E0,-2.393351028E0,1.941446920E0,1.273294651E0,3.334460159E0
7.626872292E0,-1.581697123E0,4.109196289E0,2.283705502E0,4.960097857E0
7.636898292E0,4.932886541E-2,4.769915870E0,5.900623536E0,7.587614174E0
7.646924292E0,2.271242016E0,4.252845420E0,6.183956802E0,7.841336378E0
7.656950292E0,3.701343934E0,2.278098022E0,6.231591729E0,7.597526768E0
7.666975583E0,3.405645268E0,4.236991864E-1,8.143052373E0,8.836698628E0
7.677002583E0,2.006439745E0,-6.990732229E-1,8.723420101E0,8.978449871E0
7.687028583E0,5.404395778E-1,-1.326545536E0,5.955151745E0,6.125000433E0
7.697054583E0,9.311206339E-1,-2.565698002E0,2.728932675E0,3.859645763E0
7.707080583E0,2.841027015E0,-4.161416602E0,1.329958556E0,5.211296614E0
7.717106583E0,4.534270155E0,-5.514570478E0,1.178546222E0,7.235956370E0
7.727133583E0,5.276589385E0,-5.731190522E0,1.155469747E0,7.875534945E0
7.737159583E0,3.987153203E0,-3.987474216E0,1.510267829E0,5.837657938E0
7.747185583E0,2.164399206E0,-1.741794326E0,2.925301180E0,4.034334938E0
7.757211583E0,1.190412781E0,5.521788865E-1,3.668952405E0,3.896562057E0
7.767237583E0,2.356118006E-1,2.808443990E0,2.510067008E0,3.774030597E0
7.777263583E0,-8.211326071E-1,4.445675483E0,3.145370058E-1,4.531801274E0
7.787290583E0,-2.051614895E0,5.061162173E0,-1.126302373E0,5.576113634E0
7.797316583E0,-2.754785262E0,5.189157139E0,-1.211500983E0,5.998660541E0
7.807342583E0,-2.454156809E0,4.819028973E0,-1.233719233E0,5.546890032E0
7.817368583E0,-1.493738774E0,3.805035825E0,-1.316592990E0,4.294527943E0
7.827394583E0,-5.217744980E-1,2.346003492E0,-1.807529894E0,3.007182291E0
7.837421583E0,1.804778194E-1,8.729091901E-1,-1.651602194E0,1.876787816E0
7.847447583E0,1.069435424E0,-2.918930054E-3,-1.390880111E0,1.754493696E0
7.857473583E0,1.820416134E0,-1.318541282E-1,-1.590670114E0,2.421060062E0
7.867499583E0,2.103570037E0,3.476508844E-1,-1.867197806E0,2.834130499E0
7.877525583E0,1.927296512E0,9.287664717E-1,-1.759449409E0,2.769971341E0
7.887552583E0,1.531940534E0,1.451166658E0,-1.126423411E0,2.391977460E0
7.897578583E0,1.222446971E0,1.695214237E0,-4.306730144E-1,2.133918263E0
7.907604583E0,1.191970260E0,1.459380827E0,-3.129552609E-1,1.910111644E0
7.917630583E0,1.502687791E0,1.126702908E0,-6.097102261E-1,1.974658603E0
7.927656583E0,1.766355994E0,3.094633037E-1,-1.344800982E0,2.241488504E0
7.937683583E0,1.754679543E0,-3.788878798E-1,-2.467041441E0,3.051024384E0
7.947709583E0,1.290520548E0,-5.953500491E-1,-3.325566480E0,3.616528360E0
7.957735583E0,6.192783174E-1,-5.116424793E-1,-4.099931960E0,4.177885319E0
7.967761583E0,-1.445388586E-1,-5.313359016E-1,-4.909898797E0,4.940679662E0
7.977787583E0,-7.111434109E-1,-9.828748512E-1,-5.227302035E0,5.366232802E0
7.987814583E0,-1.014115063E0,-1.762287648E0,-4.924330310E0,5.327580700E0
7.997840583E0,-7.433231237E-1,-2.436908399E0,-4.569919752E0,5.232133251E0
8.007866583E0,4.507614161E-1,-2.835096769E0,-4.392355893E0,5.247261174E0
8.017892583E0,2.032050111E0,-3.219640076E0,-4.244791465E0,5.702066683E0
8.027918583E0,3.148466305E0,-3.429646334E0,-4.037871367E0,6.162768796E0
8.037945583E0,3.539441257E0,-3.266317813E0,-4.236514147E0,6.414400095E0
8.047971583E0,3.156230530E0,-3.196735362E0,-4.959441086E0,6.691559162E0
8.057997583E0,2.253804011E0,-3.384049162E0,-5.882671999E0,7.151031471E0
8.068023583E0,1.953405499E0,-3.818592594E0,-6.423425426E0,7.723848565E0
8.078049583E0,2.250323456E0,-4.574746336E0,-6.685525113E0,8.407645672E0
8.088076583E0,2.794008969E0,-4.954714197E0,-5.816803114E0,8.135777613E0
8.098102583E0,3.317251447E0,-4.250598335E0,-5.180816671E0,7.477473152E0
8.108128583E0,3.514266070E0,-3.505553718E0,-4.232598267E0,6.523332045E0
8.118154583E0,3.201265493E0,-3.652938636E0,-2.937708387E0,5.676459460E0
8.128180583E0,2.556827191E0,-4.681124146E0,-1.994863574E0,5.694714149E0
8.138206583E0,2.629674435E0,-5.986787521E0,1.337865965E-1,6.540237863E0
8.148233583E0,2.626652302E0,-5.872394933E0,2.921572410E0,7.065402317E0
8.158259583E0,1.331615364E0,-5.188908632E0,4.453597291E0,6.966527191E0
8.168285583E0,-5.362273168E-1,-5.003594581E0,4.020256630E0,6.440959698E0
8.178311583E0,-2.373942219E0,-5.161424380E0,2.252462075E0,6.111422804E0
8.188337583E0,-3.826669938E0,-5.277013308E0,4.706973517E-1,6.535428698E0
8.198364583E0,-4.648988141E0,-4.856781521E0,5.604814942E-1,6.746521843E0
8.208390583E0,-4.880990748E0,-4.239406180E0,1.938726211E0,6.749466257E0
8.218416583E0,-4.932275507E0,-4.084583604E0,2.320130878E0,6.811326756E0
8.228442583E0,-4.264633992E0,-4.438886281E0,8.708492160E-1,6.216847501E0
8.238468583E0,-4.647479852E0,-4.019887671E0,2.947601876E-1,6.151865524E0
8.248495583E0,-5.126104859E0,-3.844582883E0,4.921001490E0,8.079234137E0
8.258521583E0,-4.790936318E0,-3.427180563E0,6.187812456E0,8.543281594E0
8.268547583E0,-3.325849485E0,-1.972985632E0,3.636094562E0,5.308025129E0
8.278573583E0,-1.630510849E0,-6.983072376E-1,2.192125826E0,2.819860681E0
8.288599583E0,3.886913947E-1,-8.574181616E-2,2.911296221E0,2.938380225E0
8.298626583E0,2.572403589E0,1.381708753E-1,3.380847519E0,4.250468369E0
8.308652583E0,4.376715468E0,3.275446486E-1,2.986481474E0,5.308671715E0
8.318678583E0,5.909166902E0,4.457016742E-1,3.353039038E0,6.808801235E0
8.328704583E0,4.891283017E0,1.171255767E0,4.268784638E0,6.596894111E0
8.338730583E0,3.158742786E0,1.958503833E0,5.361299753E0,6.523567145E0
8.348757583E0,2.252285489E0,2.877679117E0,6.572894291E0,7.520423285E0
8.358783583E0,1.501117083E0,3.732395865E0,7.456526690E0,8.472539269E0
8.368809583E0,1.082784105E0,4.310838690E0,7.854261315E0,9.024697914E0
8.378835583E0,9.609092740E-1,4.589977748E0,7.829199564E0,9.126204479E0
8.388861583E0,5.511676837E-1,4.792032963E0,7.529143846E0,8.941776825E0
8.398888583E0,-2.058624829E-1,5.138302150E0,7.432525039E0,9.038083691E0
8.408914583E0,-5.177630523E-1,5.579155898E0,7.202207308E0,9.125067080E0
8.418940583E0,-8.439423761E-1,6.042457691E0,6.829774754E0,9.158021450E0
8.428966583E0,-1.325473157E0,5.928051655E0,6.303928803E0,8.754324295E0
8.438992583E0,-1.725588768E0,5.472714354E0,5.696189089E0,8.085470248E0
8.449019583E0,-1.482699962E0,5.074526569E0,5.344155716E0,7.517261429E0
8.459045583E0,-9.929408330E-1,5.027796791E0,4.841981049E0,7.050493071E0
8.469071583E0,-6.405294380E-1,5.165112219E0,3.715651778E0,6.394898774E0
8.479097583E0,-6.487212409E-1,5.449342448E0,2.377857953E0,5.980834458E0
8.489123583E0,-7.249603084E-1,5.375802602E0,8.309080553E-1,5.487734437E0
8.499150583E0,-8.470335066E-1,4.400453117E0,-1.009673225E0,4.593570879E0
8.509176583E0,-1.197860160E0,2.715832281E0,-2.981594664E0,4.207198674E0
8.519202583E0,-2.034657969E0,2.957597691E-1,-5.246445819E0,5.634935725E0
8.529228583E0,-2.854486428E0,-3.001386904E0,-7.803938423E0,8.835036561E0
8.539254583E0,-2.629933759E0,-7.228546091E0,-1.089815982E1,1.333935222E1
8.549281583E0,-2.277383493E0,-1.116627570E1,-1.269140964E1,1.705708261E1
8.559307583E0,-1.816079985E0,-1.196545443E1,-1.264620365E1,1.750419129E1
8.569333583E0,-1.718627219E0,-8.179712076E0,-1.105682518E1,1.386054661E1
8.579359583E0,-2.545767767E0,-2.838206318E0,-7.455244980E0,8.373591007E0
8.589385583E0,-3.089282250E0,1.460431572E0,-3.712112166E0,5.045423860E0
8.599412583E0,-2.349938814E0,4.157120068E0,-2.655366808E-1,4.782715695E0
8.609438583E0,-2.061030812E0,4.464265535E0,1.234074159E0,5.069561501E0
8.619464583E0,-4.143753625E0,6.627169901E-1,-9.598146021E-1,4.304780132E0
8.629490583E0,-5.415965956E0,-4.884906043E0,-2.529269556E0,7.719598356E0
8.639516583E0,-2.491168807E0,-8.664886549E0,2.223844632E0,9.286100682E0
8.649542583E0,4.289940156E0,-8.306273890E0,1.450467799E1,1.725640334E1
8.659570083E0,5.036834248E0,-5.675636126E0,1.927124867E1,2.071143573E1
8.669596083E0,5.506450157E-1,-3.298493872E0,1.131846703E1,1.180215945E1
8.679622083E0,-2.969287444E0,-1.476731855E0,-2.113879555E-1,3.322964003E0
8.689648083E0,-4.251995820E0,1.581110501E-1,-6.084434268E0,7.424608267E0
8.699674083E0,-1.697145865E0,2.546874645E0,3.100966741E0,4.356933471E0
8.709701083E0,1.191239504E0,4.507373548E0,7.959531078E0,9.224402573E0
8.719727083E0,3.328163229E0,4.179565775E0,7.623184615E0,9.309048513E0
8.729753083E0,3.426785291E0,2.162982134E0,8.322330928E0,9.256486441E0
8.739779083E0,1.758915705E0,4.248423171E-1,8.770258638E0,8.954982525E0
8.749805083E0,-2.972227424E-2,-8.317652571E-1,6.914934188E0,6.964842545E0
8.759832083E0,-1.821457377E-1,-1.940927103E0,3.077840126E0,3.643278047E0
8.769858083E0,6.383402404E-1,-2.769391022E0,3.689862049E-1,2.865860379E0
8.779884083E0,1.161378066E0,-3.114812948E0,1.795757256E0,3.778306874E0
8.789910083E0,2.888430392E0,-4.256001747E0,4.068705490E0,6.558273047E0
8.799936083E0,4.307680316E0,-5.311320677E0,3.315069559E0,7.599731786E0
8.809963083E0,3.618430123E0,-4.761150309E0,2.511303109E0,6.486002785E0
8.819989083E0,2.335131910E0,-3.110574301E0,2.663517827E0,4.714110810E0
8.830015083E0,1.564087795E0,-9.152050245E-1,2.288926481E0,2.919444348E0
8.840041083E0,6.283404784E-1,1.319462804E0,8.467328867E-1,1.689008712E0
8.850067083E0,1.152402151E-2,2.961787806E0,3.578960102E-2,2.962026452E0
8.860094083E0,-2.954215442E-1,4.175387354E0,1.928142750E-1,4.190263810E0
8.870120083E0,-5.273449211E-1,5.004614335E0,1.756969532E-2,5.032351936E0
8.880146083E0,-5.079110421E-1,4.937574254E0,-6.130606806E-1,5.001345473E0
8.890172083E0,6.602803823E-2,4.271476403E0,-1.131062007E0,4.419182236E0
8.900198083E0,6.360869428E-1,3.378599557E0,-2.196381429E0,4.079660886E0
8.910225083E0,9.104077495E-1,2.251596102E0,-2.950381057E0,3.821423251E0
8.920251083E0,1.219786634E0,1.392374659E0,-2.367296128E0,3.005108580E0
8.930277083E0,1.550619464E0,9.904054803E-1,-1.605257748E0,2.441756781E0
8.940303083E0,1.640294410E0,7.578979665E-1,-1.463447565E0,2.325221249E0
8.950329083E0,1.292523804E0,8.523720145E-1,-1.045330131E0,1.868119621E0
8.960356083E0,7.538306433E-1,9.689871293E-1,-3.777943774E-1,1.284494176E0
8.970382083E0,2.348184065E-1,9.467168391E-1,-3.225674987E-2,9.759369628E-1
8.980408083E0,-1.811048968E-1,9.153710854E-1,-2.655514450E-1,9.701653352E-1
8.990434083E0,-2.507954482E-1,8.212595648E-1,-9.659876539E-1,1.292477380E0
9.000460083E0,3.829505984E-2,7.100923008E-1,-2.531548508E0,2.629531410E0
9.010487083E0,1.103061153E-1,6.539520139E-1,-4.809900300E0,4.855405397E0
9.020513083E0,3.903213061E-1,1.741078627E-1,-5.880862870E0,5.896372815E0
9.030539083E0,8.723776782E-1,-5.119687539E-1,-5.284007748E0,5.379952853E0
9.040565083E0,1.148128714E0,-1.273059300E0,-4.621544819E0,4.929255120E0
9.050591083E0,1.242379398E0,-2.026128051E0,-3.646571018E0,4.352721176E0
9.060617083E0,1.468523972E0,-2.697529911E0,-3.274584607E0,4.489558400E0
9.070644083E0,2.205455139E0,-3.116478819E0,-4.096638516E0,5.599903546E0
9.080670083E0,2.933159838E0,-3.526418923E0,-4.509342890E0,6.432202605E0
9.090696083E0,3.262020110E0,-3.793942487E0,-4.444697828E0,6.692541638E0
9.100722083E0,2.926151073E0,-3.683832985E0,-4.890073228E0,6.785705692E0
9.110748083E0,2.130792627E0,-3.598472992E0,-5.524932328E0,6.929225233E0
9.120775083E0,1.392454181E0,-3.612219796E0,-6.553226012E0,7.611296319E0
9.130801083E0,1.046828334E0,-3.593157873E0,-6.990667909E0,7.929443289E0
9.140827083E0,1.495613683E0,-4.375674371E0,-5.908318471E0,7.502773730E0
9.150853083E0,2.059560091E0,-4.871640465E0,-4.931175646E0,7.231262811E0
9.160879083E0,1.500825599E0,-3.992211045E0,-5.975572561E0,7.341504882E0
9.170906083E0,4.052420117E-1,-3.290189071E0,-6.938108457E0,7.689402719E0
9.180932083E0,6.996558248E-1,-3.537996410E0,-4.565917625E0,5.818465488E0
9.190958083E0,2.242388345E0,-4.995895552E0,3.169571318E-1,5.485229228E0
9.200984083E0,3.984140718E0,-5.902903950E0,3.759487184E0,8.053036458E0
9.211010083E0,3.597922184E0,-5.651415789E0,4.714204184E0,8.191902438E0
9.221037083E0,1.991471458E0,-5.772727388E0,4.120297812E0,7.366627052E0
9.231063083E0,4.009423348E-1,-6.104759189E0,3.333952557E0,6.967358120E0
9.241089083E0,-1.145569461E0,-6.314597633E0,2.911580104E0,7.047252752E0
9.251115083E0,-2.585459252E0,-6.159394403E0,2.470151575E0,7.122105571E0
9.261141083E0,-3.869656913E0,-5.404535235E0,2.180769217E0,6.995641508E0
9.271168083E0,-4.623896569E0,-4.556859119E0,2.084656195E0,6.818443808E0
9.281194083E0,-4.798904611E0,-3.765560102E0,1.486503721E0,6.278425094E0
9.291220083E0,-4.264105111E0,-3.064876556E0,7.646491617E-2,5.251848016E0
9.301246083E0,-3.060182996E0,-3.079972313E0,5.373006463E-2,4.342100453E0
9.311272083E0,-1.965323440E0,-3.266856927E0,4.753857077E0,6.093767924E0
9.321299083E0,-2.188770547E0,-3.086931084E0,4.825695968E0,6.132471085E0
9.331325083E0,-2.542176408E0,-1.855946009E0,3.194117272E0,4.484370817E0
9.341351083E0,-1.788860904E0,-7.518601316E-1,2.539714730E0,3.196164561E0
9.351377083E0,3.150805776E-1,-9.649893880E-2,3.135048699E0,3.152319489E0
9.361403083E0,2.565380498E0,3.815787685E-1,3.815107654E0,4.613222937E0
9.371430083E0,3.640931963E0,9.965871567E-1,4.080441436E0,5.558738511E0
9.381456083E0,3.435956357E0,1.946037569E0,4.362045096E0,5.883901404E0
9.391482083E0,3.069352600E0,2.738144671E0,4.956937308E0,6.441241270E0
9.401508083E0,2.559482996E0,3.064350892E0,6.034123655E0,7.235457683E0
9.411534083E0,1.814465277E0,3.780567566E0,7.129721130E0,8.271511273E0
9.421561083E0,1.442921792E0,4.189887280E0,7.748906769E0,8.926518628E0
9.431587083E0,8.601583862E-1,4.395430359E0,7.970382341E0,9.142574864E0
9.441613083E0,3.309833231E-1,4.674286997E0,7.781575162E0,9.083579740E0
9.451639083E0,-1.802800374E-1,4.809637760E0,7.441972970E0,8.862735355E0
9.461665083E0,-5.131971078E-1,4.966627899E0,7.128728272E0,8.703420634E0
9.471692083E0,-5.757539830E-1,5.131294262E0,6.984561077E0,8.685952274E0
9.481718083E0,-9.990035185E-1,5.137168375E0,6.552763497E0,8.386132386E0
9.491744083E0,-1.598822156E0,4.904917554E0,5.814521531E0,7.773230290E0
9.501770083E0,-1.695274317E0,4.814599707E0,5.299801077E0,7.358139494E0
9.511796083E0,-1.453811208E0,4.935628885E0,5.034842686E0,7.198863826E0
9.521823083E0,-1.099871789E0,5.150752042E0,4.485765747E0,6.918241026E0
9.531849083E0,-7.496406747E-1,5.420081812E0,3.273218113E0,6.375986574E0
9.541875083E0,-7.484380487E-1,5.606671726E0,1.799330928E0,5.935698707E0
9.551901083E0,-8.295713818E-1,5.382734476E0,3.292801023E-1,5.456229880E0
9.561927083E0,-6.673979786E-1,4.351229501E0,-1.420932460E0,4.625761266E0
9.571954083E0,-4.007957889E-1,2.494160827E0,-3.055230989E0,3.964329943E0
9.581980083E0,-8.393539198E-1,-8.417768598E-2,-4.583089728E0,4.660076431E0
9.592006083E0,-2.120209313E0,-3.121427318E0,-6.949604083E0,7.907944925E0
9.602032083E0,-2.789012231E0,-6.529728976E0,-1.001078637E1,1.227321447E1
9.612058083E0,-2.946990842E0,-9.820183511E0,-1.203236529E1,1.580818059E1
9.622085083E0,-2.113132866E0,-1.106500778E1,-1.205134535E1,1.649650424E1
9.632111083E0,-8.115688281E-1,-8.365267618E0,-1.018302663E1,1.320342295E1
9.642137083E0,-6.197458023E-1,-3.835871701E0,-6.658148450E0,7.709016626E0
9.652163083E0,-4.431728996E-1,-3.628197312E-3,-2.886468651E0,2.920293933E0
9.662188792E0,1.272653796E-1,2.818517573E0,5.782311559E-2,2.821981804E0
9.672214792E0,-1.230235170E0,3.378566228E0,4.728204757E-1,3.626533817E0
9.682241792E0,-4.002448350E0,-1.661328453E-1,-1.831787653E0,4.404842667E0
9.692267792E0,-4.396713822E0,-5.343224840E0,-3.148349653E0,7.602187163E0
9.702293792E0,-2.563364378E0,-9.338964679E0,-1.717768702E0,9.835539006E0
9.712319792E0,1.871351961E0,-1.149712754E1,2.001800418E0,1.181918376E1
9.722345792E0,5.258345488E0,-1.070933685E1,1.373208539E1,1.819093901E1
9.732372792E0,2.413996085E0,-6.066426013E0,1.531617914E1,1.664975210E1
9.742398792E0,-1.347358992E0,7.286729980E-1,9.513231001E0,9.635761759E0
9.752424792E0,-4.092966172E0,5.542462281E0,3.404643640E0,7.685236401E0
9.762450792E0,-4.630258925E0,7.816318733E0,1.828101861E0,9.266935451E0
9.772476792E0,-3.833084041E0,8.288261542E0,4.470296061E0,1.016717067E1
9.782503792E0,-2.027097812E0,6.808048255E0,4.272086268E0,8.289111392E0
9.792529792E0,1.373658891E0,3.024145437E0,5.379403317E0,6.322212779E0
9.802555792E0,2.118216143E0,-4.564845246E-1,8.128264765E0,8.412128496E0
9.812581792E0,1.833830670E0,-2.699633154E0,1.042749287E1,1.092627849E1
9.822607792E0,9.262267336E-1,-3.334859460E0,8.727227808E0,9.388487034E0
9.832634792E0,1.654991533E0,-3.985925288E0,3.566785468E0,5.598978117E0
9.842660792E0,3.617506263E0,-4.507708594E0,-6.430089498E-1,5.815431956E0
9.852686792E0,4.169971663E0,-5.005314832E0,-5.252286310E-1,6.535878315E0
9.862712792E0,3.901893490E0,-4.940618899E0,1.062859060E0,6.384681456E0
9.872738792E0,3.149900919E0,-3.408825569E0,2.927880971E0,5.487663851E0
9.882765792E0,2.147903042E0,-1.385267369E0,3.826931309E0,4.601940504E0
9.892791792E0,1.091388722E0,7.313241255E-1,2.737747060E0,3.036646717E0
9.902817792E0,2.268439555E-1,2.522343822E0,1.384166923E0,2.886103706E0
9.912843792E0,-1.995265314E-1,3.835734292E0,1.178601040E0,4.017682019E0
9.922869792E0,2.752589559E-2,4.888806721E0,7.840157247E-1,4.951350269E0
9.932896792E0,3.089424995E-1,4.863395306E0,-3.125243211E-1,4.883209071E0
9.942922792E0,7.080006056E-1,3.969886376E0,-5.887608218E-1,4.075279377E0
9.952948792E0,9.357352564E-1,2.838855944E0,-1.327506233E0,3.270623234E0
9.962974792E0,8.402399191E-1,1.926755206E0,-1.916581635E0,2.844586773E0
9.973000792E0,1.001997074E0,1.233309928E0,-1.548254997E0,2.218590780E0
9.983027792E0,9.270177888E-1,7.949546957E-1,-1.179652369E0,1.697908908E0
9.993053792E0,6.849690078E-1,6.728537232E-1,-1.817281296E0,2.055340843E0
1.000307979E1,2.584179698E-1,9.825286961E-1,-2.719361075E0,2.902941119E0
1.001310579E1,-2.223518686E-1,1.531923138E0,-2.856111662E0,3.248630893E0
1.002313179E1,-7.366690654E-1,1.923183727E0,-1.802802420E0,2.737044670E0
1.003315879E1,-1.064142232E0,1.764808967E0,-7.971291290E-1,2.209607257E0
1.004318479E1,-6.789916916E-1,1.312984089E0,-8.055744088E-1,1.683421237E0
1.005321079E1,2.748160659E-1,6.248621160E-1,-1.389557471E0,1.548175216E0
1.006323679E1,8.239815898E-1,-4.248645365E-2,-2.080036310E0,2.237700116E0
1.007326279E1,8.771055906E-1,-3.939187324E-1,-2.968900943E0,3.120714501E0
1.008328979E1,8.214564697E-1,-4.107967204E-1,-3.713408201E0,3.825303275E0
1.009331579E1,8.230904742E-1,-2.982799190E-1,-4.062906806E0,4.156159351E0
1.010334179E1,8.452991494E-1,-4.125918156E-1,-4.130514652E0,4.236261790E0
1.011336779E1,8.788706457E-1,-8.200281411E-1,-3.827521293E0,4.011829883E0
1.012339379E1,1.307175757E0,-1.569559327E0,-3.354213744E0,3.927209541E0
1.013342079E1,1.790866207E0,-1.965736839E0,-3.018021063E0,4.022409008E0
1.014344679E1,2.290017571E0,-2.421159509E0,-3.645047234E0,4.938882787E0
1.015347279E1,3.008393038E0,-3.142071497E0,-4.320058579E0,6.130737973E0
1.016349879E1,3.233499731E0,-3.615291923E0,-4.121732719E0,6.365103047E0
1.017352479E1,2.683227621E0,-3.759410586E0,-4.239394485E0,6.269397421E0
1.018355179E1,1.887674755E0,-3.651730016E0,-5.135328841E0,6.577997446E0
1.019357779E1,1.447747353E0,-3.646346485E0,-6.154203245E0,7.298358217E0
1.020360379E1,1.558813314E0,-4.146614376E0,-6.621747778E0,7.966922453E0
1.021362979E1,2.232911325E0,-5.073227318E0,-6.210420130E0,8.324232493E0
1.022365579E1,2.434959522E0,-5.346685807E0,-5.870300460E0,8.305209478E0
1.023368279E1,2.184566838E0,-4.917702491E0,-5.685341919E0,7.828105952E0
1.024370879E1,2.553893351E0,-4.706236183E0,-3.925420640E0,6.639273865E0
1.025373479E1,3.598115727E0,-5.141688858E0,-6.217701083E-1,6.306345944E0
1.026376079E1,4.190759100E0,-5.657203363E0,1.835927482E0,7.275784593E0
1.027378679E1,3.270524885E0,-5.438510481E0,3.574520457E0,7.283606646E0
1.028381379E1,1.200233472E0,-4.453375681E0,4.379782040E0,6.360472157E0
1.029383979E1,-9.877466051E-1,-3.968578938E0,3.529845976E0,5.402321238E0
1.030386579E1,-3.457131756E0,-4.037034046E0,1.498104597E0,5.522112028E0
1.031389179E1,-5.243839715E0,-4.587796737E0,-7.945241944E-1,7.012631642E0
1.032391779E1,-5.674666073E0,-4.716157154E0,-7.614524889E-1,7.417801779E0
1.033394479E1,-5.407628996E0,-4.303102823E0,9.415781598E-1,6.974647998E0
1.034397079E1,-4.580271955E0,-3.881470043E0,1.997410183E0,6.327270210E0
1.035399679E1,-3.738373473E0,-3.616580649E0,1.854218742E0,5.522066548E0
1.036402279E1,-4.019260265E0,-2.797311476E0,1.262942448E0,5.057116589E0
1.037404879E1,-4.353007932E0,-1.989349650E0,1.037280269E0,4.897156363E0
1.038407579E1,-3.425942415E0,-2.052928764E0,3.578112110E0,5.362320786E0
1.039410179E1,-1.815718481E0,-1.999369438E0,4.614248079E0,5.346550017E0
1.040412779E1,-6.619958822E-1,-1.666759347E0,2.450074867E0,3.036312257E0
1.041415379E1,3.841447825E-1,-1.280408666E0,1.962997126E0,2.374946585E0
1.042417979E1,2.045872929E0,-1.243458940E0,2.552916573E0,3.499881314E0
1.043420679E1,3.488389217E0,-1.033035775E0,3.025393525E0,4.731704579E0
1.044423279E1,4.455121367E0,-7.007987362E-1,3.994384455E0,6.024477773E0
1.045425879E1,4.041314208E0,1.459523499E-2,4.493347247E0,6.043393338E0
1.046428479E1,2.851924178E0,7.789906275E-1,5.190883237E0,5.973739758E0
1.047431079E1,1.937611731E0,1.618045608E0,5.946628259E0,6.460247554E0
1.048433779E1,1.203740486E0,2.517559630E0,6.643130461E0,7.205434058E0
1.049436379E1,1.108791132E0,3.297185850E0,7.174044194E0,7.972939382E0
1.050438979E1,1.028095463E0,3.804347607E0,7.426160345E0,8.407014837E0
1.051441579E1,7.895954302E-1,4.157237597E0,7.835461932E0,8.905085574E0
1.052444179E1,6.361668304E-1,4.593580218E0,7.911292133E0,9.170290654E0
1.053446879E1,3.205817842E-1,5.109616295E0,7.746112384E0,9.285106808E0
1.054449479E1,-1.953170295E-1,5.624373586E0,7.242864752E0,9.172285255E0
1.055452079E1,-6.656660333E-1,5.840297227E0,6.345521218E0,8.649729619E0
1.056454679E1,-1.274415416E0,5.597077029E0,5.284017103E0,7.802066564E0
1.057457279E1,-1.178695618E0,5.176889681E0,4.879383933E0,7.210956781E0
1.058459979E1,-5.106847054E-1,4.810334748E0,5.007908657E0,6.962705535E0
1.059462579E1,-4.757791668E-2,4.572665897E0,4.739534907E0,6.585949301E0
1.060465179E1,-2.549748552E-1,4.685822384E0,4.271251870E0,6.345513071E0
1.061467779E1,-5.528666653E-1,4.971798007E0,3.539927745E0,6.128256311E0
1.062470379E1,-6.985747477E-1,5.172867381E0,2.533808457E0,5.802305483E0
1.063473079E1,-5.838960846E-1,4.991694912E0,1.342530946E0,5.201955601E0
1.064475679E1,-7.001825859E-1,4.212872100E0,5.141456723E-3,4.270664283E0
1.065478279E1,-7.849351993E-1,2.846024630E0,-1.363669216E0,3.252010638E0
1.066480929E1,-9.418835306E-1,7.137514883E-1,-3.130025064E0,3.345690164E0
1.067483529E1,-1.815598321E0,-2.418432952E0,-6.371198680E0,7.052473880E0
1.068486229E1,-2.873697163E0,-6.671680076E0,-1.101890365E1,1.319794257E1
1.069488829E1,-3.121755931E0,-1.127824287E1,-1.472462218E1,1.880847204E1
1.070491429E1,-2.828667170E0,-1.356091984E1,-1.459648863E1,2.012355300E1
1.071494029E1,-1.949034998E0,-1.063795404E1,-1.179025781E1,1.599921820E1
1.072496629E1,-1.937930697E0,-5.125909562E0,-7.334926824E0,9.155963943E0
1.073499329E1,-2.056041968E0,-6.451893765E-1,-2.848081096E0,3.571434422E0
1.074501929E1,-1.422859264E0,2.835149978E0,5.010689592E-1,3.211490929E0
1.075504529E1,-1.744432298E0,4.664259607E0,1.371676100E0,5.165254790E0
1.076507129E1,-3.736471374E0,2.891870894E0,-7.026841709E-1,4.776808625E0
1.077509729E1,-4.625955374E0,-1.648235368E0,-1.976890402E0,5.293792460E0
1.078512329E1,-2.138672188E0,-5.122331066E0,2.535912285E0,6.102708038E0
1.079515029E1,1.853750526E0,-7.467710660E0,5.053011155E0,9.205216740E0
1.080517629E1,3.816285283E0,-1.006567535E1,8.597897923E0,1.377699903E1
1.081520229E1,1.863991193E0,-1.003120251E1,9.231696923E0,1.375949545E1
1.082522829E1,-4.758581042E-2,-6.051533740E0,3.329829393E0,6.907321391E0
1.083525429E1,-2.163945024E0,-4.160644770E-2,6.175567802E0,6.543854127E0
1.084528129E1,-2.435128215E0,5.043895345E0,9.277299943E0,1.083692871E1
1.085530729E1,-2.018891683E0,8.032178639E0,7.479761771E0,1.115968877E1
1.086533329E1,-2.075337487E0,8.760965658E0,4.033514022E0,9.865636336E0
1.087535929E1,-1.000288590E0,6.759799955E0,3.840307691E0,7.838586343E0
1.088538629E1,1.716609053E0,2.734305389E0,4.088455338E0,5.209475948E0
1.089541229E1,2.858920079E0,-1.171023048E0,6.131752861E0,6.866084193E0
1.090543829E1,2.283277632E0,-3.986960830E0,8.308322754E0,9.494073962E0
1.091546429E1,1.706169873E0,-4.579417677E0,4.851193044E0,6.885938995E0
1.092549029E1,2.915526682E0,-5.226683400E0,-2.294915199E-2,5.984901157E0
1.093551629E1,3.508646311E0,-5.829481632E0,4.455872150E-1,6.818504455E0
1.094554329E1,3.642926741E0,-5.565503234E0,2.411369223E0,7.075340488E0
1.095556929E1,3.243084194E0,-4.145674143E0,3.104030682E0,6.110582269E0
1.096559529E1,2.929661741E0,-2.147910935E0,3.354887635E0,4.944867071E0
1.097562129E1,2.626911626E0,-6.371506244E-1,2.982319719E0,4.025028759E0
1.098564729E1,1.803995691E0,6.743102646E-1,2.221397134E0,2.940017009E0
1.099567429E1,6.722996264E-1,2.025490705E0,8.929541762E-1,2.313431768E0
1.100570029E1,-3.188434801E-1,2.802139522E0,4.935834999E-1,2.863087798E0
1.101572629E1,-1.048006109E0,3.223339024E0,1.157745410E0,3.581704302E0
1.102575229E1,-1.365334503E0,3.199836726E0,9.789129241E-1,3.614050897E0
1.103577829E1,-1.199162554E0,2.896552175E0,2.052583925E-1,3.141677313E0
1.104580529E1,-7.877180354E-1,2.196896569E0,-6.004353726E-1,2.409849969E0
1.105583129E1,-5.955730839E-1,1.499733047E0,-1.044876533E0,1.922413452E0
1.106585729E1,-1.387377994E-1,1.166404917E0,-1.291729460E0,1.745942039E0
1.107588329E1,2.333968753E-1,1.140405273E0,-1.191954838E0,1.666059610E0
1.108590929E1,6.581700490E-1,9.601660198E-1,-1.274003041E0,1.725743419E0
1.109593629E1,8.975821743E-1,1.160263002E0,-1.151942414E0,1.865163617E0
1.110596229E1,9.122724997E-1,1.182737360E0,-7.120025861E-1,1.654707364E0
1.111598829E1,9.526437230E-1,9.266825241E-1,5.909177866E-3,1.329024259E0
1.112601429E1,1.009232491E0,7.486166811E-1,3.075845933E-1,1.293671303E0
1.113604029E1,9.457695901E-1,5.662624902E-1,1.242708743E-1,1.109313561E0
1.114606729E1,1.235777161E0,3.310553169E-1,-4.940897226E-4,1.279352593E0
1.115609329E1,1.004615530E0,5.764594495E-1,-3.113034225E-1,1.199361364E0
1.116611929E1,5.662445100E-1,2.964491558E-1,-1.086075869E0,1.260188771E0
1.117614529E1,3.571603939E-1,-1.626619381E-1,-2.137164338E0,2.172899873E0
1.118617129E1,2.326007769E-1,1.571328110E-1,-3.310953704E0,3.322831363E0
1.119619829E1,-4.740307032E-1,3.819483125E-1,-3.770420308E0,3.819248476E0
1.120622429E1,-1.124734077E0,7.221124220E-1,-3.654189355E0,3.890960413E0
1.121625029E1,-1.176290366E0,8.570427704E-1,-3.310088900E0,3.615918952E0
1.122627629E1,-1.590925345E0,2.571956277E-1,-2.782054921E0,3.215124046E0
1.123630229E1,-1.351972738E0,-7.656753480E-2,-3.203782427E0,3.478205674E0
1.124632929E1,-2.229865291E-1,8.234271276E-1,-3.216534619E0,3.327739501E0
1.125635529E1,9.368573371E-1,8.084939235E-1,-2.139504393E0,2.471607401E0
1.126638129E1,2.183015279E0,3.526227719E-1,-1.682929822E0,2.778875908E0
1.127640729E1,2.643985788E0,1.078986704E-2,-2.416479397E0,3.581919869E0
1.128643329E1,2.546676425E0,-3.229189163E-1,-3.227208127E0,4.123676725E0
1.129646029E1,2.185386617E0,-6.653581774E-1,-2.786598793E0,3.603296963E0
1.130648629E1,1.624907316E0,-1.141556005E0,-1.469688299E0,2.470517677E0
1.131651229E1,1.442859519E0,-2.370206872E0,-8.816922927E-1,2.911546927E0
1.132653829E1,8.697542518E-1,-3.686251393E0,-1.601816661E0,4.112266821E0
1.133656429E1,4.236833990E-1,-4.836123308E0,-1.765129395E0,5.165585935E0
1.134659129E1,3.997723069E-1,-5.515577953E0,-7.634042895E-1,5.582490856E0
1.135661729E1,4.827664433E-1,-5.431385649E0,2.460509808E-1,5.458347240E0
1.136664329E1,8.201100753E-1,-5.221118605E0,1.875681531E0,5.608104959E0
1.137666929E1,5.089767337E-1,-5.053069042E0,3.294935256E0,6.053855168E0
1.138669529E1,6.721403629E-2,-4.209929781E0,3.582293161E0,5.528186934E0
1.139672229E1,-1.122946803E-1,-3.058290837E0,3.214994463E0,4.438687006E0
1.140674829E1,-9.250436226E-1,-3.348841322E0,2.405254351E0,4.225599650E0
1.141677429E1,-1.757948575E0,-3.624089643E0,1.882913660E0,4.446321265E0
1.142680029E1,-2.316743148E0,-3.245067862E0,2.005293545E0,4.463066932E0
1.143682629E1,-2.759381758E0,-3.034899636E0,2.314735068E0,4.709862198E0
1.144685329E1,-3.102632320E0,-3.213019858E0,2.785184351E0,5.263751114E0
1.145687929E1,-3.331380074E0,-3.174477936E0,3.072332341E0,5.533048832E0
1.146690529E1,-3.501869388E0,-2.844427755E0,2.727404505E0,5.271868151E0
1.147693129E1,-3.409781588E0,-3.349921888E0,2.216430070E0,5.268885023E0
1.148695729E1,-3.487457170E0,-4.291872076E0,2.701847787E0,6.154876514E0
1.149698429E1,-4.868459872E0,-3.495772496E0,3.618863987E0,7.001321549E0
1.150701029E1,-5.424796422E0,-3.000446672E0,3.621647261E0,7.179653566E0
1.151703629E1,-4.577435471E0,-1.752878308E-1,3.420916733E0,5.717194470E0
1.152706229E1,-3.898996487E0,1.569635341E0,3.775124393E0,5.649556876E0
1.153708829E1,-3.356728339E0,2.697128207E0,5.092337773E0,6.668885192E0
1.154711529E1,-2.279876014E0,3.312524850E0,4.861261950E0,6.308924098E0
1.155714129E1,-1.935553219E0,3.293347737E0,4.105935881E0,5.608138287E0
1.156716729E1,-1.845576557E0,3.220141767E0,4.143279709E0,5.562574275E0
1.157719329E1,-1.506664190E0,3.331141216E0,4.279008202E0,5.628183541E0
1.158721929E1,-4.666762215E-1,3.847694771E0,4.067726958E0,5.618624774E0
1.159724629E1,8.445846927E-1,4.648698412E0,3.762861028E0,6.040102925E0
1.160727229E1,1.526335685E0,4.698750578E0,3.636430484E0,6.134458760E0
1.161729829E1,1.252281658E0,3.777459186E0,3.171213728E0,5.088615112E0
1.162732429E1,1.028104234E0,2.382729269E0,2.570695910E0,3.652789967E0
1.163735029E1,1.278052822E0,1.364175292E0,2.640042133E0,3.234844001E0
1.164737729E1,1.431523814E0,1.097517115E0,3.166535078E0,3.644276149E0
1.165740329E1,1.668277284E0,1.767538447E0,3.424911551E0,4.199685749E0
1.166742854E1,1.211676473E0,1.509404342E0,3.969435263E0,4.416206251E0
1.167745454E1,8.183306213E-1,1.879745346E-1,4.108680857E0,4.193597240E0
1.168748054E1,-8.608526699E-2,-4.991668600E-1,3.487222112E0,3.523818424E0
1.169750754E1,-2.043165084E0,-1.392770516E0,2.694396680E0,3.657062583E0
1.170753354E1,-3.202731974E0,-2.624440300E0,1.586725875E0,4.434284383E0
1.171755954E1,-2.891981991E0,-2.162530144E0,2.107491472E-1,3.617251949E0
1.172758554E1,-2.762079371E0,-1.041915942E0,-1.264785051E0,3.211596567E0
1.173761154E1,-2.504161027E0,-1.204533441E0,-2.706324416E0,3.878906431E0
1.174763854E1,-1.807224669E0,-1.208972062E0,-3.990703925E0,4.544600342E0
1.175766454E1,-8.149298076E-1,-9.468495709E-1,-5.020888306E0,5.173968891E0
1.176769054E1,1.058495137E0,-7.310422897E-1,-6.603284025E0,6.727421103E0
1.177771654E1,2.590182925E0,-3.300858486E-1,-6.459844809E0,6.967610724E0
1.178774254E1,2.770130402E0,3.112449503E-1,-3.119269988E0,4.183340904E0
1.179776954E1,1.419949836E0,9.580113208E-1,2.922929549E0,3.387854834E0
1.180779554E1,6.024217083E-1,1.793204216E0,7.863005826E0,8.087357659E0
1.181782154E1,9.164063349E-2,1.507884066E0,6.540353951E0,6.712551093E0
1.182784754E1,-4.532425359E-2,7.885034627E-1,3.980850782E0,4.058443661E0
1.183787354E1,1.510730929E0,5.914604813E-1,3.459029470E0,3.820604443E0
1.184790054E1,2.019813643E0,-1.439560520E0,4.218273758E0,4.893446141E0
1.185792654E1,1.553984391E0,-1.268156995E0,5.582254922E0,5.931665843E0
1.186795254E1,4.384092461E-1,-2.428686630E0,5.289242760E0,5.836678027E0
1.187797854E1,-2.964907295E0,-4.607202476E0,4.115242310E0,6.852168211E0
1.188800454E1,-4.697776431E0,-5.511398948E0,3.796269679E0,8.176569283E0
1.189803154E1,-4.522934158E0,-4.108099936E0,2.434609713E0,6.577289939E0
1.190805754E1,-2.962136300E0,-7.365228850E-1,-1.031267460E1,1.075490469E1
1.191808354E1,-2.795080764E0,2.223110806E0,-6.641980898E0,7.541260398E0
1.192810954E1,-2.428805913E0,1.357073264E0,-2.555246104E0,3.777569147E0
1.193813554E1,-6.314161138E-1,7.504076833E-1,-8.486729197E-1,1.296936284E0
1.194816254E1,1.129332401E0,1.277197959E0,1.160792760E0,2.062538758E0
1.195818854E1,2.501425700E0,2.282634292E0,2.330897941E0,4.111038197E0
1.196821454E1,2.867308495E0,2.345932156E0,2.331645215E0,4.377376508E0
1.197824054E1,1.883449265E0,1.304185199E0,1.075073894E0,2.530625228E0
1.198826654E1,1.110512698E0,6.681484687E-1,-2.247166836E-1,1.315354864E0
1.199829354E1,5.635710168E-1,8.662901419E-1,-2.650308967E-1,1.066917184E0
1.200831954E1,-2.719276875E-1,6.209895051E-1,2.703620955E-2,6.784567704E-1
1.201834554E1,-6.829159042E-1,3.334988683E-1,3.605719154E-1,8.411942306E-1
1.202837154E1,-9.346419002E-1,4.868286502E-1,8.118953951E-1,1.330312651E0
1.203839754E1,-1.046371301E0,-1.732682025E-1,5.728039165E-1,1.205412417E0
1.204842454E1,-2.230115186E0,-8.845609367E-1,3.634559083E-1,2.426512310E0
1.205845054E1,-2.737279575E0,-1.474436823E0,6.483800559E-1,3.176013242E0
1.206847654E1,-2.576889865E0,-2.358614767E0,1.850966666E0,3.953416572E0
1.207850254E1,-2.611177061E0,-2.842129215E0,9.236706233E-1,3.968515029E0
1.208852854E1,-1.600616374E0,-2.742411969E0,-1.608427523E0,3.559471208E0
1.209855554E1,-1.495788113E-1,-1.390609385E0,-3.007524726E0,3.316831811E0
1.210858154E1,-2.153235337E-1,1.295292168E0,-2.706117132E0,3.007859032E0
1.211860754E1,1.247639042E-1,1.522305053E0,-1.607896742E0,2.217726458E0
1.212863354E1,8.183214120E-1,5.060139495E-1,1.745064966E-1,9.778305414E-1
1.213865954E1,-1.010352452E-1,1.874955307E0,2.092541458E0,2.811475640E0
1.214868654E1,-1.580800160E0,1.699967439E0,2.528726057E0,3.432677368E0
1.215871254E1,-2.024240278E0,-4.823186928E-1,1.935655107E0,2.841995904E0
1.216873854E1,-8.053165466E-1,-3.701714355E-1,1.809282889E0,2.014712437E0
1.217876454E1,2.832248590E0,-6.190371197E-1,1.693294011E0,3.357392387E0
1.218879054E1,5.738726998E0,-4.031853998E-1,1.965679390E0,6.079427727E0
1.219881754E1,5.844328297E0,-9.155353922E-1,1.092826918E0,6.015700206E0
1.220884354E1,3.860475031E0,-1.664320473E0,-1.777882172E0,4.564438094E0
1.221886954E1,9.937208515E-1,4.547426391E-1,-3.944976068E0,4.093544695E0
1.222889554E1,-1.000223906E0,2.337092335E0,6.771441177E-2,2.543036312E0
1.223892154E1,-9.113139948E-1,1.013212545E0,2.649878612E0,2.979756620E0
1.224894854E1,-2.064410211E0,-7.952827245E-1,1.288776616E0,2.560314296E0
1.225897454E1,-4.013102269E0,-8.388246006E-1,-2.149822244E0,4.629292842E0
1.226900054E1,-5.442913435E0,7.364883864E-1,-4.356262200E0,7.010331102E0
1.227902654E1,-4.041668257E0,1.119064690E0,-1.534871743E0,4.465783173E0
1.228905254E1,-9.206079979E-1,-9.135794985E-1,2.267346747E0,2.612088792E0
1.229907954E1,3.702959081E-1,-1.602552241E0,2.557086807E0,3.040392357E0
1.230910554E1,8.145976127E-1,-1.440881991E0,1.582485620E0,2.289971816E0
1.231913154E1,2.146318592E0,-1.172483683E0,1.474201472E-1,2.450129422E0
1.232915754E1,2.316816823E0,-1.364638976E0,-9.231489055E-1,2.842900566E0
1.233918354E1,1.457944751E0,-2.716750293E0,-2.140321688E0,3.753306806E0
1.234921054E1,-1.702985479E-1,-2.896906516E0,-2.315747513E0,3.712648044E0
1.235923654E1,-2.739955846E0,-2.573899891E0,-7.127592158E-1,3.826270297E0
1.236926254E1,-2.798630901E0,-3.609146499E0,5.833313897E-2,4.567458388E0
1.237928854E1,-4.418210234E-1,-4.574557471E0,3.766881573E-1,4.611255343E0
1.238931454E1,1.447517703E0,-4.564364605E0,9.863633001E-1,4.888930794E0
1.239934154E1,2.445180017E0,-3.999297870E0,1.415262415E0,4.896555573E0
1.240936754E1,2.747488521E0,-5.770856863E0,9.874451812E-1,6.467343357E0
1.241939354E1,3.473286443E0,-7.831825549E0,-2.001700723E-1,8.569788691E0
1.242941954E1,3.368311673E0,-8.030638483E0,-1.131284128E0,8.781599043E0
1.243944554E1,2.863921788E0,-8.187927999E0,-1.976357721E0,8.896639970E0
1.244947254E1,2.664797490E0,-8.269841058E0,-2.567991865E0,9.060132395E0
1.245949854E1,1.963999046E0,-7.657584955E0,-2.257102425E0,8.221338756E0
1.246952454E1,2.162447406E0,-6.927653051E0,-8.096674597E-1,7.302336405E0
1.247955054E1,1.491261601E0,-7.061199948E0,-3.909272238E-1,7.227532772E0
1.248957654E1,1.836401398E0,-5.193668266E0,-9.680088902E-1,5.593174534E0
1.249960354E1,2.349009838E0,-3.975060577E0,5.574957597E-1,4.650780078E0
1.250962954E1,-1.772995654E-1,-6.193262646E0,1.397305616E0,6.351409317E0
1.251965554E1,-2.209468375E0,-4.750762146E0,4.650980580E-1,5.260019740E0
1.252968154E1,-3.992244667E0,-6.192469763E0,-3.658866543E0,8.226299510E0
1.253970754E1,-7.732450365E0,-5.063869434E0,-2.055623746E0,9.468851634E0
1.254973454E1,-3.702123660E0,5.494692868E-1,-4.725676421E0,6.028238028E0
1.255976054E1,-1.412068666E0,2.167741767E0,-7.341076341E0,7.783600974E0
1.256978654E1,-1.833311437E0,2.482957562E0,-3.378186743E0,4.575833777E0
1.257981254E1,-1.163134277E0,5.654005521E0,7.817879355E-1,5.825105334E0
1.258983954E1,4.121643841E0,4.551957398E0,-5.527412133E0,8.261994250E0
1.259986554E1,1.075046383E1,5.016028100E0,-1.725532401E1,2.093989535E1
1.260989154E1,9.314324512E0,8.169268364E0,-1.291422364E1,1.789611016E1
1.261991754E1,1.057512688E1,8.728720018E0,-7.577893252E0,1.566679060E1
1.262994354E1,1.074138193E1,6.896436521E0,-4.993635018E0,1.370673240E1
1.263996954E1,8.525505885E0,5.348176262E0,-3.143307599E0,1.054360577E1
1.264999654E1,5.262589397E0,3.874144067E0,-1.940421026E0,6.816822806E0
1.266002254E1,1.122982909E0,3.102991632E0,-1.025523857E0,3.455625394E0
1.267004896E1,-1.839881954E0,2.348288584E0,4.844070259E-1,3.022296319E0
1.268007496E1,-2.822938069E0,1.475340802E0,2.372384959E0,3.971626898E0
1.269010096E1,-2.395022455E0,1.597766295E0,3.284094226E0,4.367409367E0
1.270012796E1,-6.769695783E-1,2.859538130E0,3.728926712E0,4.747645790E0
1.271015396E1,2.187513542E0,3.492054251E0,5.104249721E0,6.559956067E0
1.272017996E1,4.220643634E0,2.766875550E0,8.075931600E0,9.523135208E0
1.273020596E1,3.547313363E0,8.657136065E-1,1.090770832E1,1.150265156E1
1.274023296E1,9.490685892E-1,-1.255418835E0,1.194165860E1,1.204491668E1
1.275025896E1,-8.597009146E-1,-3.545521776E0,1.004539019E1,1.068736050E1
1.276028496E1,-2.259364128E-1,-5.627441036E0,5.674708757E0,7.995089703E0
1.277031096E1,-4.011125618E-1,-6.438782553E0,5.755554700E-1,6.476887845E0
1.278033696E1,-2.475414653E0,-6.831418406E0,-3.718762497E0,8.162423026E0
1.279036396E1,-5.758076019E0,-7.643239980E0,-5.648546560E0,1.111218408E1
1.280038996E1,-8.310023124E0,-8.348843374E0,-6.020173368E0,1.322883810E1
1.281041596E1,-8.842099283E0,-8.043657893E0,-5.579636539E0,1.319149332E1
1.282044196E1,-8.368716890E0,-6.633889521E0,-4.555368079E0,1.161013742E1
1.283046796E1,-7.951290012E0,-4.847679745E0,-3.605942810E0,9.986282357E0
1.284049496E1,-6.545141067E0,-3.618763415E0,-3.111298186E0,8.100277566E0
1.285052096E1,-4.231342285E0,-3.335955228E0,-2.825662871E0,6.084178291E0
1.286054696E1,-2.360345542E0,-3.332410061E0,-2.871606199E0,4.992224961E0
1.287057296E1,-1.365906945E0,-3.494461842E0,-3.135986300E0,4.889925912E0
1.288059896E1,-8.698475879E-1,-3.113169588E0,-3.076135955E0,4.462182439E0
1.289062596E1,-9.632703066E-1,-2.202404062E0,-2.911829195E0,3.775873753E0
1.290065196E1,-1.307592079E0,-1.389532620E0,-2.483831136E0,3.132094356E0
1.291067796E1,-7.607452682E-1,-1.618882345E0,-2.061105511E0,2.729041835E0
1.292070396E1,1.775237476E0,-3.705264199E0,-1.421687336E0,4.347602301E0
1.293072996E1,1.017678180E1,-5.754917938E0,2.340803563E0,1.192331035E1
1.294075696E1,7.027099571E0,-5.516923982E0,4.827845405E0,1.015503175E1
1.295078296E1,3.241267757E0,-5.374540772E0,6.393778288E-1,6.308748623E0
1.296080896E1,2.185720786E0,-4.803061689E0,1.470934925E0,5.478177297E0
1.297083496E1,-1.361582637E-1,-3.815361423E0,1.227383190E-1,3.819762631E0
1.298086096E1,-2.885376684E0,-2.517351469E0,-1.521115145E0,4.120224303E0
1.299088796E1,-4.692890206E0,-1.107290152E0,-1.910307573E0,5.186384578E0
1.300091396E1,-4.672917286E0,-9.443487167E-2,-2.007697043E0,5.086838048E0
1.301093996E1,-4.050217763E0,2.920923954E-1,-2.270618264E0,4.652449806E0
1.302096596E1,-2.137965114E0,-9.099846303E-1,-2.509467668E0,3.419999244E0
1.303099196E1,-4.008120149E-2,-2.237040628E0,-2.426522575E0,3.300601321E0
1.304101896E1,1.691146621E0,-2.433741547E0,-2.262726277E0,3.728673359E0
1.305104496E1,3.089047192E0,-1.725011648E0,-1.758914974E0,3.951159276E0
1.306107096E1,3.663711546E0,-9.915404248E-1,-7.212885493E-1,3.863443008E0
1.307109696E1,3.254896447E0,-9.270988458E-1,1.567042100E-1,3.387981606E0
1.308112296E1,3.152216124E0,-1.273211913E0,2.757710624E-1,3.410804120E0
1.309114996E1,2.665029917E0,-1.264061020E0,2.051068765E-1,2.956738668E0
1.310117596E1,8.130828184E-1,-8.380059904E-1,-1.665994531E-1,1.179454572E0
1.311120196E1,-5.456551480E-1,-5.400611168E-1,-8.845147437E-1,1.171226657E0
1.312122796E1,-9.555199684E-1,-4.670317322E-1,-1.513147729E0,1.849527804E0
1.313125396E1,-6.734252885E-1,-5.214219475E-1,-1.564672809E0,1.781455434E0
1.314128096E1,1.817307316E-1,-4.387241918E-1,-1.298983516E0,1.383062959E0
1.315130696E1,7.774168494E-1,-2.808768511E-1,-1.321023425E0,1.558323347E0
1.316133296E1,9.672364730E-1,-3.055608720E-1,-1.412873243E0,1.739288545E0
1.317135896E1,1.011186192E0,-3.118103760E-1,-1.292900657E0,1.670722998E0
1.318138496E1,9.180043790E-1,-3.049463296E-1,-8.766917539E-1,1.305493292E0
1.319141196E1,6.100576968E-1,-4.476400262E-1,-1.103012913E-1,7.646687920E-1
1.320143796E1,1.615150067E-1,-4.683257210E-1,4.621142238E-1,6.774700246E-1
1.321146396E1,2.547940300E-1,-3.944607693E-1,8.268173432E-1,9.508660344E-1
1.322148996E1,6.976788081E-1,-3.611924511E-1,7.365445197E-1,1.076899965E0
1.323151596E1,5.715197217E-1,-3.603867048E-1,1.677712351E-1,6.961756651E-1
1.324154296E1,3.006011175E-1,-2.799342799E-1,-2.280086660E-1,4.698001540E-1
1.325156896E1,2.768028036E-1,-1.809029120E-1,-2.684597039E-1,4.259298866E-1
1.326159496E1,3.329080072E-1,-1.410605693E-1,-8.133067667E-2,3.705947982E-1
1.327162096E1,4.912927070E-1,-1.794662511E-1,2.683287263E-2,5.237333886E-1
1.328164696E1,3.741437414E-1,-1.910911006E-1,5.455627620E-2,4.236457662E-1
1.329167396E1,9.441937655E-2,-2.621564054E-1,5.876217842E-2,2.847700708E-1
1.330169996E1,-9.339625999E-2,-2.981366622E-1,1.229827327E-1,3.357574769E-1
1.331172596E1,-7.617767170E-2,-3.061455935E-1,7.020927250E-2,3.231988615E-1
1.332175196E1,1.531536345E-1,-7.231076181E-2,-5.934689999E-2,1.794629114E-1
1.333177796E1,7.308562021E-1,1.626929283E-2,2.143320286E-1,7.618094883E-1
1.334180496E1,6.995028470E-1,-6.217402875E-2,5.556258202E-1,8.954830512E-1
1.335183096E1,2.812105809E-1,-1.531672293E-1,3.013602322E-1,4.397244370E-1
1.336185696E1,-2.625268266E-2,-2.013079405E-1,-4.572019780E-1,5.002476776E-1
1.337188296E1,3.090952215E-1,-1.925792170E-1,-2.900937002E0,2.923706911E0
1.338190896E1,5.899723649E-1,-2.734719372E-1,-5.038861477E-1,8.226515311E-1
1.339193596E1,4.258306427E-1,-2.717511016E-1,9.329653573E-1,1.060945218E0
1.340196196E1,2.774421966E-1,-2.272239697E-1,1.119299163E0,1.175344852E0
1.341198796E1,2.441879117E-1,-3.237427890E-2,1.034374788E0,1.063300067E0
1.342201396E1,3.771951109E-1,5.356049538E-4,5.800613344E-1,6.919158838E-1
1.343203996E1,4.118908806E-1,-3.592763186E-2,2.763394117E-1,4.973010786E-1
1.344206696E1,4.491673189E-1,1.424533761E-1,-7.233181179E-2,4.767348694E-1