"Time (s)","Linear Acceleration x (m/s^2)","Linear Acceleration y (m/s^2)","Linear Acceleration z (m/s^2)","Absolute acceleration (m/s^2)"
3.387624980E-3,1.256709900E-1,4.993393528E-1,1.029812205E0,1.151367085E0
1.341362495E-2,4.808720917E-1,1.380533463E-1,-1.973183852E-1,5.378022314E-1
2.343962505E-2,3.111072484E-1,-7.635294199E-2,-1.398618316E0,1.434834724E0
3.346562502E-2,-1.771440294E-1,1.604376572E-1,-1.775605266E0,1.791617791E0
4.349262500E-2,-4.917949829E-1,6.261701381E-1,-1.361597840E0,1.577307841E0
5.351862498E-2,-3.994118991E-1,8.581818080E-1,-6.543192190E-1,1.150712614E0
6.354462507E-2,-1.572135025E-1,7.643299037E-1,-1.266302258E-1,7.905387411E-1
7.357062504E-2,9.277192354E-2,5.534956795E-1,1.137821388E-1,5.726346760E-1
8.359662502E-2,2.802585080E-1,4.361163336E-1,1.679945987E-1,5.449444678E-1
9.362262499E-2,3.644399947E-1,4.667013645E-1,-9.092712700E-2,5.990779714E-1
1.036496250E-1,2.445843530E-1,4.981143612E-1,-6.729180425E-1,8.722144888E-1
1.136756251E-1,-3.104397887E-1,5.317291269E-1,-1.444574507E0,1.570319787E0
1.237016250E-1,-7.316009912E-1,6.077660269E-1,-1.943757740E0,2.163980985E0
1.337276250E-1,-9.170607845E-1,7.029084116E-1,-2.152579937E0,2.443088435E0
1.437536250E-1,-4.743077150E-1,1.338068059E0,-9.050390553E-1,1.683594260E0
1.537796250E-1,-4.416023375E-1,1.518596749E0,1.079835720E0,1.914991878E0
1.638066251E-1,-1.051208191E0,4.494690353E-1,1.721043143E0,2.066168089E0
1.738326250E-1,7.255488306E-2,-1.114329907E0,8.412149423E-1,1.398083664E0
1.838586250E-1,9.557398237E-1,-1.883683446E0,2.838460672E-1,2.131260314E0
1.938846250E-1,3.597446805E-1,-1.800283440E0,2.364906371E-2,1.836027227E0
2.039106250E-1,-4.743436754E-1,-1.357412987E0,-3.007644010E-1,1.469023882E0
2.139366250E-1,-1.335016543E0,-6.571057096E-1,-6.804638743E-1,1.636180971E0
2.239636250E-1,-1.601993101E0,-6.561511517E-2,-1.398784377E0,2.127741754E0
2.339896250E-1,-1.827588475E0,-6.580281079E-2,-1.985350739E0,2.699264196E0
2.440156250E-1,-1.756268232E0,-5.355040893E-1,-2.101381717E0,2.790528239E0
2.540416251E-1,-7.921542449E-1,-6.320059517E-1,-1.503513857E0,1.813144723E0
2.640676250E-1,1.728511864E-1,-4.871014228E-1,-2.609173805E-1,5.789846356E-1
2.740946250E-1,1.384793598E0,-7.254137599E-1,-1.289088857E-1,1.568596804E0
2.841206250E-1,1.809259062E0,-6.456308413E-1,-1.278762090E0,2.307702324E0
2.941466250E-1,1.715914111E0,-7.544881627E-1,-1.579355167E0,2.451117372E0
3.041726251E-1,5.986562110E-1,-4.620452267E-1,-1.914648546E0,2.058580604E0
3.141986250E-1,-1.236623399E0,-3.959076628E-1,-2.320988519E0,2.659505219E0
3.242246250E-1,-2.229148934E0,-7.547249749E-1,-2.090700608E0,3.147974553E0
3.342516250E-1,-1.935729220E0,-9.844322571E-1,-2.609785423E0,3.395163389E0
3.442776250E-1,-1.456726191E0,-1.469383951E0,-2.634675266E0,3.350023007E0
3.543036251E-1,-4.405575132E-1,-1.874932211E0,-2.839647657E0,3.431189376E0
3.643296250E-1,5.358878859E-1,-1.766595291E0,-2.701631148E0,3.272131661E0
3.743556250E-1,9.822948805E-1,-1.647629596E0,-1.813465987E0,2.639743436E0
3.843823751E-1,1.213084190E0,-1.925785007E0,3.363341832E-1,2.300726369E0
3.944093750E-1,1.628680670E0,-2.366160306E0,-2.056536496E0,3.532797430E0
4.044353750E-1,-2.030641517E-1,-3.041638552E0,-4.093502946E0,5.103877595E0
4.144613750E-1,-2.236701782E0,-3.162564526E0,-7.765120513E0,8.677657854E0
4.244873750E-1,-1.120381775E0,-3.276338772E0,-9.119070779E0,9.754337648E0
4.345133750E-1,-7.296085525E-1,-3.189476629E0,-8.460863162E0,9.071454969E0
4.445393750E-1,-1.531098973E0,-3.395133728E0,-9.966548674E0,1.063970345E1
4.545663750E-1,-2.184272431E0,-4.062276476E0,-1.064854218E1,1.160450718E1
4.645923750E-1,-3.146691383E0,-4.906686922E0,-1.109244876E1,1.253074869E1
4.746183751E-1,-3.437291569E0,-6.035635160E0,-1.092402673E1,1.294520085E1
4.846443750E-1,-3.478904448E0,-7.333652716E0,-9.961711857E0,1.284993936E1
4.946703750E-1,-3.942674019E0,-8.698231466E0,-8.814130881E0,1.299587674E1
5.046963750E-1,-4.401650627E0,-1.037704192E1,-8.389235355E0,1.405122049E1
5.147233750E-1,-4.930511402E0,-1.192740660E1,-8.252563705E0,1.531919641E1
5.247493751E-1,-5.726768857E0,-1.297385588E1,-8.105037285E0,1.633427217E1
5.347753750E-1,-5.604477265E0,-1.354933768E1,-7.012333013E0,1.625323141E1
5.448013750E-1,-4.678719771E0,-1.402226516E1,-5.879539061E0,1.590859260E1
5.548273750E-1,-3.039254642E0,-1.475954994E1,-5.105587564E0,1.591063819E1
5.648533750E-1,-9.038432997E-1,-1.529846324E1,-3.913189434E0,1.581685689E1
5.748803751E-1,2.759307498E0,-1.594904317E1,-2.466674820E0,1.637285072E1
5.849063750E-1,7.424268186E0,-1.561219911E1,-7.517917923E-1,1.730392181E1
5.949323750E-1,1.264046870E1,-1.402599217E1,7.394551905E-1,1.889594399E1
6.049583750E-1,1.645820701E1,-1.133571515E1,1.298439140E0,2.002640657E1
6.149843750E-1,1.876762097E1,-7.957740076E0,1.018282081E0,2.041044150E1
6.250103750E-1,1.909630466E1,-4.906263583E0,5.208307940E-1,1.972337543E1
6.350373750E-1,1.749452308E1,-3.798088748E0,-1.057855452E0,1.793328955E1
6.450633750E-1,1.590727183E1,-3.889683042E0,-3.301998108E0,1.670551175E1
6.550893750E-1,1.530112957E1,-3.894057929E0,-4.957229669E0,1.654878785E1
6.651153750E-1,1.626438000E1,-2.976872452E0,-4.927916408E0,1.725329495E1
6.751413750E-1,1.870806006E1,-1.103395906E0,-2.712524511E0,1.893585971E1
6.851673750E-1,2.174044130E1,1.146310961E0,-3.200184781E-2,2.177066469E1
6.951943750E-1,2.397407300E1,3.461408409E0,1.896068434E0,2.429676110E1
7.052203750E-1,2.482479610E1,5.375042464E0,2.011138129E0,2.547952628E1
7.152463751E-1,2.415311241E1,7.016468748E0,3.404810286E-1,2.515391818E1
7.252723750E-1,2.190846455E1,7.911135428E0,-1.714734582E0,2.335609551E1
7.352983750E-1,1.826535216E1,7.576305149E0,-3.403023376E0,2.006499582E1
7.453253750E-1,1.548231374E1,6.890186432E0,-3.589106922E0,1.732219375E1
7.553513750E-1,1.367904179E1,6.740764344E0,-2.253863652E0,1.541538159E1
7.653773751E-1,1.177655077E1,7.078671429E0,-1.647798581E0,1.383871300E1
7.754033750E-1,9.230991164E0,7.287523447E0,-2.280658518E0,1.198000831E1
7.854293750E-1,6.981990641E0,7.290162295E0,-3.490690681E0,1.068080433E1
7.954553750E-1,6.327080269E0,7.693259987E0,-4.586450123E0,1.096602566E1
8.054823750E-1,5.137979384E0,7.566615143E0,-5.352185698E0,1.059709340E1
8.155083751E-1,3.835133198E0,6.614048749E0,-5.938440987E0,9.680855792E0
8.255343750E-1,2.084079221E0,5.385668024E0,-5.844550492E0,8.216299454E0
8.355603750E-1,-3.951232588E-1,3.459150215E0,-7.426644495E0,8.202249146E0
8.455863750E-1,-5.223048770E0,3.993560582E-1,-1.318088240E1,1.418363087E1
8.556123750E-1,-8.140978950E0,-4.104020333E-1,-1.352535708E1,1.579174633E1
8.656393751E-1,-7.862183708E0,4.815357506E-1,-7.405812035E0,1.081165395E1
8.756653750E-1,-5.359695861E0,-2.462812150E-1,-4.365173941E0,6.916772202E0
8.856913750E-1,-3.489228877E0,-7.253482711E-1,-2.013768353E0,4.093422926E0
8.957173750E-1,-3.407509945E0,-9.560411015E-1,-5.360102389E-1,3.579447665E0
9.057433750E-1,-4.641331505E0,-1.776352248E0,-1.483010010E0,5.186203248E0
9.157693750E-1,-5.715031741E0,-2.421633133E0,-8.372101843E-1,6.263131463E0
9.257963750E-1,-6.203122221E0,-2.109216693E0,1.854713416E-1,6.554534306E0
9.358223750E-1,-6.099006114E0,-4.702567640E-1,1.455647964E0,6.287919211E0
9.458483750E-1,-5.501195557E0,9.882604292E-1,1.596072357E0,5.812680810E0
9.558743751E-1,-4.977599030E0,2.325057742E0,9.570045034E-1,5.576579886E0
9.659003750E-1,-4.927051020E0,2.726499941E0,4.486674551E-1,5.648976559E0
9.759263750E-1,-4.464848503E0,2.809816917E0,-3.017082147E-1,5.284029817E0
9.859533750E-1,-3.635074223E0,2.784496134E0,-6.527515074E-1,4.625285705E0
9.959793750E-1,-3.365648559E0,2.300820302E0,-1.437070191E-1,4.079462709E0
1.006005375E0,-3.573149285E0,1.674346548E0,-6.324487321E-1,3.996351283E0
1.016031375E0,-3.732456676E0,1.409238468E0,-2.515708401E0,4.716563861E0
1.026057375E0,-2.266957322E0,1.523580185E0,-3.368032469E0,4.336361930E0
1.036083375E0,-3.643049240E-1,5.578489316E-1,1.429574060E-1,6.814325557E-1
1.046110375E0,2.238231121E0,-1.366494298E0,3.585951179E0,4.442525304E0
1.056136375E0,3.706174026E0,-2.469688475E0,5.396407020E0,6.996877575E0
1.066162375E0,2.624077188E0,-2.998565330E0,4.785377662E0,6.227119278E0
1.076188375E0,1.631563202E0,-3.100803604E0,2.579158877E0,4.350751887E0
1.086214375E0,4.497794055E0,-3.075853827E0,-7.246534757E-1,5.496921937E0
1.096240375E0,1.169310983E0,-2.223285053E0,-1.382743710E0,2.867449175E0
1.106267375E0,-9.966087914E-1,-1.016108671E-1,-2.236049087E0,2.450197822E0
1.116293375E0,-8.962658930E-1,-1.738593853E0,-4.993621570E0,5.363045545E0
1.126319375E0,-5.843425487E0,-5.240011543E0,-1.688559959E0,8.028360800E0
1.136345375E0,-7.247850673E0,-6.197251031E0,1.018156804E0,9.590302550E0
1.146371375E0,-6.596784845E0,-5.659629958E0,2.060855834E0,8.932866747E0
1.156397375E0,-4.528535206E0,-4.297811093E0,1.438646600E0,6.406911530E0
1.166424375E0,-1.036131291E0,-1.757179520E0,-1.747451361E-1,2.047384620E0
1.176450375E0,1.374778633E0,6.966396117E-1,-7.516467083E-1,1.714729079E0
1.186476375E0,2.728923027E0,2.428184938E0,-8.278008449E-1,3.745444863E0
1.196502375E0,3.608447757E0,3.458269624E0,-1.494044291E0,5.216578606E0
1.206528375E0,3.913763630E0,3.656433517E0,-2.153627758E0,5.772795193E0
1.216554375E0,3.898828087E0,3.766508521E0,-2.693243902E0,6.053181776E0
1.226581375E0,4.444334131E0,5.124711467E0,-2.802435976E0,7.339510944E0
1.236607375E0,4.598411772E0,5.181144699E0,-1.375226384E0,7.062641066E0
1.246633375E0,4.680503756E0,3.577506046E0,-5.497701260E-1,5.916748441E0
1.256659375E0,6.995346851E0,2.684266087E0,-7.402689621E0,1.053280474E1
1.266685375E0,8.452059009E0,1.670247211E0,-1.018343009E1,1.333901329E1
1.276711375E0,7.274709274E0,1.359030912E0,-5.885053570E0,9.455274483E0
1.286738375E0,5.584425409E0,1.038153259E0,-1.788526151E0,5.955031077E0
1.296764375E0,3.982166698E0,1.103554366E0,1.098841802E0,4.275855137E0
1.306790375E0,2.593088114E0,2.112347585E0,2.282598040E0,4.049243398E0
1.316816375E0,1.321550844E0,3.084398655E0,2.875179724E0,4.418899201E0
1.326842375E0,1.086453599E-1,3.509569001E0,3.348073583E0,4.851646638E0
1.336868375E0,-8.605183554E-1,3.882155337E0,3.567119637E0,5.341906439E0
1.346895375E0,-1.586474152E0,4.553595788E0,3.310131000E0,5.848854766E0
1.356921375E0,-2.423665918E0,5.223856271E0,2.316155649E0,6.207045014E0
1.366947375E0,-3.143690007E0,5.731863536E0,-1.916132569E-1,6.540165296E0
1.376973375E0,-3.443873779E0,6.289556347E0,-2.377270747E0,7.554482236E0
1.386999000E0,-3.371166869E0,7.039362937E0,-4.167918706E-1,7.816080352E0
1.397025000E0,-3.657168804E0,6.393456692E0,1.123507551E0,7.450734282E0
1.407052000E0,-5.178574848E0,3.135691600E0,-3.283328533E-2,6.054029839E0
1.417078000E0,-6.974769330E0,-1.200682465E0,-1.557807008E0,7.246779165E0
1.427104000E0,-8.335506459E0,-8.952666623E0,-3.428737092E0,1.270382406E1
1.437130000E0,-1.049783370E1,-1.974570578E1,-5.620932500E0,2.305845380E1
1.447156000E0,-1.161971558E1,-2.576985584E1,-4.190808801E0,2.857737109E1
1.457182000E0,-7.730527800E0,-1.876277597E1,6.748096168E-1,2.030414219E1
1.467209000E0,-3.660568960E0,-7.393222979E0,4.386014003E0,9.343266557E0
1.477235000E0,-1.292362421E0,-9.661325186E-1,5.329067561E0,5.567995487E0
1.487261000E0,1.176045002E0,2.597453061E0,4.959762683E0,5.720934375E0
1.497287000E0,3.131711401E0,4.775996389E0,4.143385251E0,7.055876923E0
1.507313000E0,5.114468899E0,6.594283991E0,3.955219805E0,9.235049387E0
1.517339000E0,6.239877234E0,5.917699159E0,3.808352950E0,9.405252970E0
1.527366000E0,5.851071306E0,3.207782507E0,3.992858917E0,7.776106119E0
1.537392000E0,6.315551314E0,2.265726483E0,5.369358385E0,8.593585652E0
1.547418000E0,6.900643008E0,1.453885029E0,6.425939729E0,9.540720989E0
1.557444000E0,6.710203287E0,4.658581960E-1,7.083042222E0,9.767975181E0
1.567470000E0,5.306714240E0,-3.976995420E-1,6.817515482E0,8.648577819E0
1.577496000E0,2.727150151E0,-9.834443700E-1,5.807867984E0,6.491212621E0
1.587523000E0,5.783194488E-1,-1.136438522E0,4.314986705E0,4.499450651E0
1.597549000E0,-8.899071921E-1,-1.297566150E0,2.661875929E0,3.092118398E0
1.607575000E0,-2.053845169E0,-1.453815447E0,1.269855026E0,2.818579628E0
1.617601000E0,-2.522874164E0,-1.355254195E0,-2.923607826E-6,2.863844965E0
1.627627000E0,-2.134398458E0,-1.022789699E0,-1.107494220E0,2.613101413E0
1.637653000E0,-1.312686465E0,-7.093321627E-1,-1.886143370E0,2.404960433E0
1.647680000E0,-4.980343639E-1,-5.654625911E-1,-2.870262801E0,2.967523330E0
1.657706000E0,-1.173590268E-1,-8.737441725E-1,-7.649866045E0,7.700496901E0
1.667732000E0,5.254173865E-1,-1.471071750E0,-1.011962878E1,1.023948251E1
1.677758000E0,8.275661523E-1,-1.500566860E0,-6.242315522E0,6.473258045E0
1.687784000E0,1.300861056E0,-9.462256730E-1,-3.081457213E0,3.476055389E0
1.697811000E0,1.834070114E0,-1.436947399E-1,-1.450461484E0,2.342712077E0
1.707837000E0,1.817732262E0,8.756468564E-1,-1.285143741E0,2.392175250E0
1.717863000E0,1.072483723E0,1.525708718E0,-1.646488804E0,2.487756783E0
1.727889000E0,-8.422720458E-2,1.697703981E0,-2.055968439E0,2.667639266E0
1.737915000E0,-1.007347934E0,1.511300009E0,-2.272931423E0,2.909466416E0
1.747941000E0,-1.032022014E0,1.052860175E0,-2.025859956E0,2.505532389E0
1.757968000E0,-2.393727662E-1,7.389015323E-1,-1.658194053E0,1.831087740E0
1.767994000E0,7.575421634E-1,6.764579469E-1,-1.716364785E0,1.994335368E0
1.778020000E0,1.271320192E0,5.137275964E-1,-2.231060973E0,2.618740946E0
1.788046000E0,9.770961942E-1,-2.288471568E-1,-3.030602517E0,3.192434746E0
1.798072000E0,3.120964511E-1,-1.408411818E0,-3.875592130E0,4.135364844E0
1.808098000E0,-1.479384663E-1,-2.465793060E0,-4.471084266E0,5.108093159E0
1.818125000E0,9.604762146E-1,-2.102401471E0,-4.345037592E0,4.921580862E0
1.828151000E0,2.851763672E0,-5.176048851E-1,-3.417661588E0,4.481169668E0
1.838177000E0,4.199784862E0,9.520190942E-1,-2.860162613E0,5.169628943E0
1.848203000E0,6.067798355E0,1.435609556E0,-2.546891310E0,6.735414391E0
1.858229000E0,5.727598577E0,-6.520364660E-1,-1.551751047E0,5.969796339E0
1.868255000E0,4.879764587E0,-1.655733252E0,-1.493780874E0,5.365159487E0
1.878281000E0,5.559481187E0,-3.094272848E0,-1.180140027E0,6.471096198E0
1.888308000E0,6.728495716E0,-3.755085400E0,-2.375872824E-1,7.709070546E0
1.898334000E0,7.629566267E0,-3.692495635E0,8.030136207E-1,8.514084584E0
1.908360000E0,7.500596570E0,-3.286504156E0,1.428266623E0,8.312641218E0
1.918386000E0,6.292400433E0,-2.869070846E0,1.373339049E0,7.050668824E0
1.928412000E0,5.144982010E0,-2.729280877E0,9.223611394E-1,5.896657023E0
1.938439000E0,4.452760554E0,-3.044068655E0,3.714092910E-2,5.393960509E0
1.948465000E0,4.716502140E0,-3.809886675E0,-1.313959404E0,6.203798693E0
1.958491000E0,5.726289970E0,-4.473039867E0,-2.862358242E0,7.809710442E0
1.968517000E0,6.580909654E0,-4.346898469E0,-1.913822334E1,2.069964954E1
1.978543000E0,8.585670226E0,-4.463892483E0,-3.337050178E1,3.474522209E1
1.988569000E0,8.221825477E0,-3.861395382E0,-4.824329474E0,1.028508354E1
1.998596000E0,6.008854328E0,-2.481396355E0,1.139609467E0,6.600179387E0
2.008622000E0,5.084976128E0,-1.466008061E0,2.759819130E0,5.968480836E0
2.018648000E0,4.322030845E0,-9.984196740E-1,3.699253262E0,5.775921326E0
2.028674000E0,3.304540770E0,-8.869126868E-1,3.825620363E0,5.132443373E0
2.038700000E0,2.248691205E0,-9.372922969E-1,3.843170196E0,4.550284182E0
2.048726000E0,8.619401059E-1,-1.030637248E0,3.687843590E0,3.924964232E0
2.058753000E0,-5.790041578E-1,-1.251792977E0,3.392296075E0,3.661953595E0
2.068779000E0,-1.742651820E0,-1.619189324E0,3.165336399E0,3.959540877E0
2.078805000E0,-2.416791346E0,-1.992860903E0,2.864943881E0,4.245029850E0
2.088831000E0,-2.587973262E0,-2.216449074E0,2.339155233E0,4.133025442E0
2.098857000E0,-2.470715831E0,-2.260386806E0,1.762582347E0,3.784241240E0
2.108883000E0,-1.794677714E0,-2.046672828E0,-1.325170856E0,3.027509795E0
2.118910000E0,-4.455633876E-1,-1.694282776E0,-5.821769739E0,6.079648325E0
2.128936000E0,-1.367692392E0,-1.890599533E0,-2.642426920E0,3.525247381E0
2.138962000E0,-2.934737124E0,-1.959195558E0,1.796615481E0,3.959666200E0
2.148988000E0,-3.993677527E0,-1.401649513E0,4.253644735E0,6.000631223E0
2.159014000E0,-4.517153016E0,-6.719140756E-1,5.155998749E0,6.887703753E0
2.169040000E0,-4.525526229E0,-1.442683518E-2,5.631398431E0,7.224489191E0
2.179067000E0,-4.118029093E0,6.912285984E-1,5.549391232E0,6.944904868E0
2.189093000E0,-2.790410885E0,1.530891105E0,2.603431839E0,4.111918995E0
2.199119000E0,-1.197049005E0,2.074676898E0,-2.874853742E-1,2.412438267E0
2.209145000E0,-5.679309931E-1,2.050536668E0,-2.236782181E-1,2.139457451E0
2.219171000E0,3.620712876E-2,1.824498514E0,3.827797135E-1,1.864571289E0
2.229197000E0,2.165820372E-1,1.518779767E0,7.338653255E-1,1.700634610E0
2.239224000E0,1.992924052E-1,1.220248418E0,4.837155926E-1,1.327668799E0
2.249250000E0,-4.003553474E-1,1.044655362E0,1.733501367E-1,1.132095182E0
2.259276000E0,-1.413642152E0,9.648204035E-1,4.445396863E-2,1.712086067E0
2.269302000E0,-2.502673203E0,1.038883576E0,1.277873898E-1,2.712744342E0
2.279328000E0,-3.948810087E0,1.253955862E0,5.482829598E-1,4.179248809E0
2.289354000E0,-5.438647306E0,1.503382294E0,1.096799516E0,5.748218160E0
2.299381000E0,-6.245488222E0,1.634064056E0,1.424895996E0,6.611098022E0
2.309407000E0,-6.657719264E0,1.886804690E0,1.663641611E0,7.117089373E0
2.319433000E0,-7.137325433E0,2.405227016E0,1.869996868E0,7.760374967E0
2.329459000E0,-7.565010082E0,3.084983377E0,2.015976115E0,8.414906992E0
2.339485000E0,-7.838457461E0,3.839332083E0,1.932812337E0,8.939667205E0
2.349511000E0,-7.851151766E0,4.605357680E0,1.730255431E0,9.265186845E0
2.359538000E0,-7.480080444E0,5.324390958E0,1.535207520E0,9.309006642E0
2.369564000E0,-6.649036734E0,5.992451718E0,1.114570374E0,9.020057328E0
2.379590000E0,-4.924408078E0,6.427827210E0,2.292799238E-1,8.100575711E0
2.389616167E0,-2.307132079E0,6.068309986E0,-8.900549074E-1,6.552819413E0
2.399642167E0,4.330377746E-1,5.052797731E0,-2.628692980E0,5.712119870E0
2.409668167E0,4.200252639E0,3.426066669E0,-5.164785944E0,7.486993315E0
2.419695167E0,8.829611385E0,6.715521330E-1,-7.025649462E0,1.130366179E1
2.429721167E0,1.313382869E1,-3.430801744E0,-6.525604935E0,1.506158612E1
2.439747167E0,1.750725597E1,-8.038847973E0,-4.238430279E0,1.972539935E1
2.449773167E0,1.855290887E1,-1.094389206E1,-9.248540998E-2,2.154037499E1
2.459799167E0,1.475810567E1,-1.074933064E1,1.247097663E0,1.830041106E1
2.469825167E0,9.734439940E0,-7.101933407E0,-2.264813002E-1,1.205189084E1
2.479852167E0,5.349950307E0,-8.999525625E-1,-8.602937492E-1,5.492903443E0
2.489878167E0,3.698860914E0,2.510716048E0,-1.537508984E0,4.727494157E0
2.499904167E0,2.625278791E0,3.543446015E0,-2.211112174E-1,4.415539441E0
2.509930167E0,5.826545745E-1,4.023894768E0,2.767266144E0,4.918229088E0
2.519956167E0,-1.915613337E0,3.766271709E0,5.086436763E0,6.612580130E0
2.529982167E0,-4.299387503E0,2.195090364E0,6.017809339E0,7.714738093E0
2.540009167E0,-5.961483695E0,6.237049520E-2,4.414615073E0,7.418355894E0
2.550035167E0,-6.466556827E0,-2.783534852E0,2.209648762E0,7.378819087E0
2.560061167E0,-5.966100072E0,-7.430313038E0,-3.241761847E0,1.006543202E1
2.570087167E0,-3.005872888E0,-1.578632919E1,-1.411482541E1,2.138858942E1
2.580113167E0,-1.905069053E0,-1.852535562E1,-4.142320765E0,1.907817890E1
2.590139167E0,-4.968946320E0,-1.560338735E1,-2.243930987E0,1.652850116E1
2.600166167E0,-8.407693845E0,-9.466298325E0,-2.594148214E0,1.292399802E1
2.610192167E0,-1.001898767E1,-3.792152070E0,1.745855437E-1,1.071405672E1
2.620218167E0,-9.383691786E0,-4.905831474E-1,1.959278589E0,9.598599687E0
2.630244167E0,-8.092628324E0,1.137118553E0,1.794252037E0,8.366780275E0
2.640270167E0,-7.628436000E0,1.943122732E0,1.839275597E0,8.084039614E0
2.650296167E0,-7.046677219E0,2.020476133E0,2.413544095E0,7.717718492E0
2.660322167E0,-6.323215259E0,1.497414626E0,3.239862671E0,7.260992488E0
2.670349167E0,-5.616801442E0,2.476272440E-1,4.192129687E0,7.013111221E0
2.680375167E0,-5.109575949E0,-8.573555964E-1,5.036606791E0,7.225664881E0
2.690401167E0,-4.690941329E0,-1.417241113E0,5.257290065E0,7.186974451E0
2.700427167E0,-4.141857958E0,-1.476633621E0,4.854629745E0,6.550027799E0
2.710453167E0,-3.546205608E0,-9.735982436E-1,4.358768317E0,5.702835171E0
2.720479167E0,-3.107856515E0,-2.294178450E-1,4.027891924E0,5.092672974E0
2.730506167E0,-2.570379283E0,4.257416189E-1,3.893414150E0,4.684738982E0
2.740532167E0,-2.122170323E0,1.136633819E0,3.656839314E0,4.378129404E0
2.750558167E0,-1.692722154E0,1.728536350E0,3.193983078E0,4.006828435E0
2.760584167E0,-1.248919363E0,2.184391129E0,2.755828990E0,3.731749938E0
2.770610167E0,-6.606774813E-1,2.536806325E0,2.408818960E0,3.560096887E0
2.780637167E0,3.637903690E-2,2.744343304E0,2.306226053E0,3.584888034E0
2.790663167E0,9.820132640E-1,2.758612849E0,2.373387757E0,3.769252492E0
2.800689167E0,2.522937606E0,2.650722365E0,1.386864243E0,3.913430164E0
2.810715167E0,4.810253764E0,2.156335019E0,-8.441058058E-1,5.338617480E0
2.820741167E0,6.096005908E0,1.523287970E0,-7.397114448E-1,6.326837068E0
2.830767167E0,6.265334841E0,1.144208887E0,-9.108482641E-1,6.433760891E0
2.840793167E0,5.513096395E0,1.051167406E0,-6.060309241E0,8.259935403E0
2.850820167E0,4.202258526E0,1.112577789E0,-9.694560176E0,1.062456131E1
2.860846167E0,4.291718295E0,1.137353026E0,-6.882038337E0,8.189924877E0
2.870872167E0,4.877407282E0,1.240925927E0,-4.386780573E0,6.676289594E0
2.880898167E0,4.585421013E0,1.628672338E0,-2.941654673E0,5.686122727E0
2.890924167E0,3.154386318E0,1.877364945E0,-2.897887971E0,4.676794508E0
2.900950167E0,2.090712595E0,1.740612019E0,-2.965367471E0,4.024203473E0
2.910977167E0,1.556850988E0,1.440667398E0,-2.677073427E0,3.415557009E0
2.921003167E0,1.350814258E0,1.112665497E0,-2.048715992E0,2.694431458E0
2.931029167E0,1.576956347E0,9.076252788E-1,-1.142907004E0,2.148676659E0
2.941055167E0,2.564208424E0,8.181956238E-1,-5.564613873E-1,2.748501081E0
2.951081167E0,3.283853028E0,5.333911979E-1,-5.188235910E-1,3.367101840E0
2.961107167E0,3.303395593E0,-8.631367385E-2,-8.969829078E-1,3.424098542E0
2.971134167E0,3.476293666E0,-8.852602637E-1,-1.206016880E0,3.784544900E0
2.981160167E0,4.194589026E0,-1.777872816E0,-1.090672950E0,4.684546545E0
2.991186167E0,4.916240103E0,-2.407280558E0,-6.708938827E-1,5.514935633E0
3.001212167E0,5.265493709E0,-2.340065060E0,-1.946982479E-1,5.765347855E0
3.011238167E0,5.338312594E0,-1.430510784E0,1.511639732E-1,5.528724355E0
3.021264167E0,5.518344855E0,-1.655516320E-1,5.228246945E-1,5.545528194E0
3.031291167E0,6.151084925E0,7.714991748E-1,7.265639073E-1,6.241710650E0
3.041317167E0,7.203848037E0,1.232098970E0,3.694376099E-1,7.317785085E0
3.051343167E0,7.919005780E0,9.920994186E-1,-6.600687861E-1,8.008158628E0
3.061369167E0,8.421818379E0,3.963383102E-1,-5.811221947E0,1.023984421E1
3.071395167E0,1.005563919E1,-2.648841316E-1,-1.158675015E1,1.534401584E1
3.081421167E0,1.052703002E1,-5.180861109E-1,-5.246411905E0,1.177334329E1
3.091448167E0,8.687763780E0,-4.791682130E-1,-2.529903687E0,9.061305333E0
3.101474167E0,6.939717611E0,-6.256123137E-1,-2.516766163E0,7.408453496E0
3.111500167E0,5.548210094E0,-1.182080133E0,-1.943100659E0,5.996297929E0
3.121526167E0,4.098022552E0,-2.013179977E0,-1.313668213E0,4.751042689E0
3.131552167E0,2.700101809E0,-2.916295883E0,-4.635964930E-1,4.001281440E0
3.141578167E0,7.982124719E-1,-4.114697934E0,-4.859375711E-1,4.219480722E0
3.151605167E0,-8.839981422E-1,-5.333507937E0,5.035078329E-1,5.429666635E0
3.161631167E0,-1.422956766E0,-6.172521402E0,3.487168318E0,7.230848449E0
3.171657167E0,-1.324939891E0,-6.824157334E0,5.274199044E0,8.725924855E0
3.181683167E0,-1.750332431E0,-7.981912465E0,5.027257093E0,9.594159895E0
3.191709167E0,-2.271919854E0,-9.447214183E0,3.896745894E0,1.046881580E1
3.201735167E0,-2.334680943E0,-1.061477568E1,9.040036596E-2,1.086887161E1
3.211762167E0,-1.568587812E0,-1.062332197E1,-7.046057414E0,1.284376746E1
3.221788167E0,-2.322446229E0,-9.280397213E0,-6.699338576E0,1.167906958E1
3.231814167E0,-3.614893143E0,-7.495750982E0,-2.394230157E0,8.659449940E0
3.241840167E0,-4.700797103E0,-5.655366753E0,6.555336857E-1,7.383115259E0
3.251866167E0,-5.282840059E0,-4.204545665E0,2.055346588E0,7.057694590E0
3.261892167E0,-5.454634763E0,-2.588796843E0,3.074794604E0,6.775638077E0
3.271919167E0,-5.539064464E0,-7.767312634E-1,4.035508507E0,6.897091815E0
3.281945167E0,-6.012555615E0,6.541870719E-1,4.255310022E0,7.395028677E0
3.291971167E0,-6.448734514E0,1.970727437E0,4.207865714E0,7.948338023E0
3.301997167E0,-6.791993555E0,3.148667157E0,4.769466219E0,8.876547151E0
3.312023167E0,-5.899709616E0,4.108081809E0,4.679429623E0,8.577876853E0
3.322049167E0,-4.768862202E0,4.969217631E0,4.334012375E0,8.137495550E0
3.332076167E0,-3.108466964E0,5.697917526E0,1.458548183E0,6.652532886E0
3.342102167E0,2.308422267E-2,6.838312858E0,-5.769855820E0,8.947306400E0
3.352128167E0,7.173703301E-1,7.237918008E0,-4.784584780E0,8.705993843E0
3.362154167E0,3.158584034E-1,6.753558052E0,-1.516813349E0,6.928999612E0
3.372180167E0,4.583690822E-2,5.969269847E0,6.091817109E-1,6.000448807E0
3.382206167E0,-8.410512203E-1,5.037237121E0,2.305620282E0,5.603303477E0
3.392232792E0,-2.870209883E0,4.222719980E0,3.603917334E0,6.249615105E0
3.402258792E0,-5.801610294E0,3.664123190E0,3.863054237E0,7.874494828E0
3.412284792E0,-8.303829169E0,3.323253906E0,3.330733080E0,9.544180334E0
3.422310792E0,-9.092954190E0,3.221947972E0,2.685818230E0,1.001380967E1
3.432336792E0,-8.720356745E0,3.311065970E0,2.289372039E0,9.604634504E0
3.442362792E0,-8.324155844E0,3.519964181E0,2.249552500E0,9.313549528E0
3.452389792E0,-8.024186665E0,3.848827962E0,2.336838566E0,9.201188119E0
3.462415792E0,-7.737150941E0,4.151333663E0,2.225866599E0,9.058231505E0
3.472441792E0,-7.338436323E0,4.309275144E0,1.762182398E0,8.690672398E0
3.482467792E0,-6.518637977E0,4.096294407E0,8.945199144E-1,7.750640930E0
3.492493792E0,-4.557578619E0,3.313004322E0,-7.676446903E-1,5.686545425E0
3.502519792E0,-1.747134004E0,2.292302079E0,-3.629932766E0,4.635033757E0
3.512546792E0,2.359108272E0,6.387977850E-1,-7.761816251E0,8.137520873E0
3.522572792E0,8.627639201E0,-2.013036135E0,-1.124955175E1,1.431924884E1
3.532598792E0,1.458015853E1,-5.774173989E0,-1.016450967E1,1.868794705E1
3.542624792E0,1.852966034E1,-9.505017418E0,-4.809478716E0,2.137345910E1
3.552650792E0,1.864070131E1,-1.091427474E1,3.909802873E-2,2.160089505E1
3.562676792E0,1.537600200E1,-9.416390001E0,2.546510364E0,1.820918870E1
3.572702792E0,1.255043678E1,-5.035592299E0,2.562877890E0,1.376368396E1
3.582729792E0,8.700731151E0,1.610009195E0,-2.578236004E-1,8.852193241E0
3.592755792E0,5.734573721E0,4.055974347E0,-2.102934737E0,7.332025516E0
3.602781792E0,3.787372556E0,4.439061112E0,-6.437152934E-1,5.870589733E0
3.612807792E0,1.608643870E0,4.446998123E0,3.066206213E0,5.636057838E0
3.622833792E0,-5.174820936E-1,4.271769349E0,7.059444029E0,8.267499688E0
3.632860792E0,-3.457220049E0,4.337952814E0,7.214627963E0,9.100607767E0
3.642886792E0,-5.977952378E0,4.463004291E0,5.070500761E0,9.020216178E0
3.652912792E0,-7.303839517E0,3.387327695E0,3.229234772E0,8.674561535E0
3.662938792E0,-7.762087562E0,1.080533878E0,1.614092306E0,8.001428045E0
3.672964792E0,-7.043340213E0,-2.418241163E0,2.521635139E-1,7.451182330E0
3.682990792E0,-4.498367082E0,-9.425572468E0,-1.603700634E0,1.056638909E1
3.693016792E0,9.858236021E-1,-1.797564718E1,-1.948953575E0,1.810784802E1
3.703043792E0,1.591365348E0,-2.451769800E1,-8.040546005E0,2.585150554E1
3.713069792E0,-6.693505978E0,-2.460125705E1,-1.663249146E1,3.044116691E1
3.723095792E0,-8.227615390E0,-1.345382107E1,-3.572183910E0,1.616970792E1
3.733121792E0,-9.129903916E0,-4.925793284E0,1.781263032E0,1.052575332E1
3.743147792E0,-8.851975815E0,-7.123551732E-1,2.202505803E0,9.149642482E0
3.753173792E0,-7.597494873E0,1.649668520E0,1.444671571E0,7.907617247E0
3.763200792E0,-7.314234697E0,2.988763350E0,1.279226943E0,8.004196221E0
3.773226792E0,-7.201732514E0,3.814463875E0,1.642716181E0,8.313459106E0
3.783252792E0,-6.622324898E0,4.063126076E0,2.576224160E0,8.185420667E0
3.793278792E0,-5.668551639E0,3.239995403E0,3.650905559E0,7.480585492E0
3.803304792E0,-4.676157521E0,1.356690856E0,4.843605405E0,6.867865211E0
3.813330792E0,-4.074111241E0,-6.543636578E-1,5.577280111E0,6.937768203E0
3.823357792E0,-3.740334337E0,-1.986429550E0,5.414891238E0,6.874376367E0
3.833383792E0,-3.579400836E0,-2.246081008E0,4.769489608E0,6.372206946E0
3.843409792E0,-3.475812441E0,-1.672755666E0,4.034498109E0,5.581806037E0
3.853435792E0,-2.908905295E0,-6.991445589E-1,3.555991216E0,4.647107343E0
3.863461792E0,-2.191818847E0,2.257656741E-1,3.255318031E0,3.930920437E0
3.873487792E0,-1.687230156E0,9.555280083E-1,2.967913349E0,3.545178278E0
3.883514792E0,-1.339259429E0,1.541632440E0,2.600371406E0,3.306384407E0
3.893540792E0,-9.722463673E-1,1.993791195E0,2.234191865E0,3.148345536E0
3.903566792E0,-5.816959235E-1,2.304245601E0,1.943174772E0,3.069828356E0
3.913592792E0,-6.779846549E-3,2.473413736E0,1.754238955E0,3.032354826E0
3.923618792E0,6.387454525E-1,2.542013855E0,1.782198002E0,3.169552005E0
3.933644792E0,1.404918691E0,2.432869143E0,1.895757946E0,3.389180872E0
3.943671792E0,2.409845439E0,2.121636472E0,1.104560598E0,3.395401371E0
3.953697792E0,3.799231001E0,1.519017164E0,-8.988084816E-1,4.189203508E0
3.963723792E0,4.826159360E0,9.841179693E-1,-1.407772717E0,5.122706938E0
3.973749792E0,5.007913334E0,7.412176144E-1,-1.691334025E0,5.337528482E0
3.983775792E0,4.407388207E0,6.412448448E-1,-4.812536809E0,6.557192715E0
3.993801792E0,1.968171619E0,5.913219023E-1,-1.525277544E1,1.539059842E1
4.003828792E0,2.395151971E0,4.798973608E-1,-1.236626586E1,1.260522057E1
4.013854792E0,4.731717179E0,6.131138903E-1,-5.605136247E0,7.360883673E0
4.023880792E0,4.889257541E0,1.358621022E0,-3.518538630E0,6.175014533E0
4.033906792E0,3.125191463E0,1.927597205E0,-2.810222421E0,4.623829876E0
4.043932792E0,2.069622711E0,1.843180368E0,-1.481714998E0,3.142631281E0
4.053958792E0,1.688077126E0,1.559478142E0,-8.270790061E-1,2.442465177E0
4.063984792E0,2.572392187E0,1.144973702E0,-6.722181308E-1,2.894830489E0
4.074011792E0,3.927808935E0,5.539558554E-1,-7.529015207E-1,4.037500566E0
4.084037792E0,4.462739997E0,-2.243559104E-1,-9.700514688E-1,4.572459262E0
4.094063792E0,4.694451705E0,-1.233135096E0,-1.064581065E0,4.969087624E0
4.104089792E0,4.958181596E0,-2.027133772E0,-9.024715430E-1,5.432061391E0
4.114115792E0,5.256793637E0,-1.974886562E0,-2.769580472E-1,5.622344887E0
4.124141792E0,5.127709919E0,-1.035039032E0,2.925578338E-1,5.239303856E0
4.134168792E0,5.089479654E0,3.726056314E-1,8.801258236E-1,5.178441809E0
4.144194792E0,5.601537870E0,1.515545087E0,1.342904145E0,5.956298764E0
4.154220792E0,6.983750069E0,1.961171333E0,8.322248483E-1,7.301476304E0
4.164246792E0,8.688790551E0,1.655329210E0,-5.317721039E-1,8.861037050E0
4.174272792E0,9.232061205E0,9.142747325E-1,-2.031901738E0,9.497129938E0
4.184298792E0,8.276896893E0,2.383120447E-1,-1.589272045E1,1.792044581E1
4.194325792E0,8.766709378E0,-4.750535274E-1,-1.480759885E1,1.721469874E1
4.204351792E0,9.029673868E0,-5.813237482E-1,-1.135394209E0,9.119323850E0
4.214377792E0,6.742713806E0,-4.656137824E-2,8.782909673E-1,6.799834737E0
4.224403792E0,4.149047987E0,1.173425084E-1,1.885358089E0,4.558831384E0
4.234429792E0,2.286793417E0,-5.520233506E-1,1.077448814E0,2.587479441E0
4.244455792E0,1.083848079E0,-1.837714975E0,-2.177014866E0,3.048166124E0
4.254482792E0,2.086445004E0,-3.075344827E0,-7.177170700E-1,3.784985647E0
4.264508792E0,3.349700278E0,-4.011156608E0,2.559411660E0,5.818973908E0
4.274534792E0,3.064764582E0,-5.201298298E0,3.083611620E0,6.779007785E0
4.284560792E0,1.358384795E0,-6.231354917E0,2.590556270E0,6.883747173E0
4.294586792E0,-6.517809427E-1,-7.099469390E0,1.692181871E0,7.327398140E0
4.304612792E0,-1.823304513E0,-8.477488550E0,2.250488237E-1,8.674266449E0
4.314639792E0,-2.159104553E0,-1.043902709E1,-1.142487466E0,1.072102125E1
4.324665792E0,-2.435284043E0,-1.239610888E1,-2.175137326E0,1.281894481E1
4.334691792E0,-2.925892918E0,-1.322266427E1,-2.617378618E0,1.379312765E1
4.344717792E0,-3.761748010E0,-1.203682086E1,-2.318808092E0,1.282235063E1
4.354743792E0,-4.484338442E0,-9.806348414E0,-1.401244301E0,1.087369514E1
4.364769792E0,-4.588493725E0,-7.333439292E0,-1.716976404E-1,8.652345728E0
4.374796792E0,-4.605748274E0,-4.981070521E0,9.373905301E-1,6.848553256E0
4.384822875E0,-4.734389942E0,-3.184280793E0,2.155190134E0,6.099093113E0
4.394848875E0,-5.120524276E0,-1.645186629E0,3.555977182E0,6.447587272E0
4.404874875E0,-5.832517506E0,-3.379129314E-1,4.101154028E0,7.138060659E0
4.414900875E0,-6.934971426E0,1.035517918E0,4.302706382E0,8.226749556E0
4.424926875E0,-7.131203399E0,2.346758367E0,5.450682045E0,9.277460402E0
4.434953875E0,-5.707204658E0,3.385424427E0,6.091518170E0,9.007767602E0
4.444979875E0,-4.707426676E0,4.192506248E0,6.163186322E0,8.815999104E0
4.455005875E0,-3.621300521E0,4.872038661E0,4.087849858E0,7.318544571E0
4.465031875E0,-8.010486639E-1,5.892540345E0,-5.852976914E0,8.343922904E0
4.475057875E0,3.287147934E0,7.234790917E0,-1.314647738E1,1.536155620E1
4.485083875E0,1.610696243E0,6.987296405E0,-2.934132814E0,7.747631174E0
4.495110875E0,1.065121202E0,6.592073159E0,6.508336937E-1,6.709209804E0
4.505136875E0,-2.078907359E-1,6.268884101E0,2.045568874E0,6.597460000E0
4.515162875E0,-3.280794350E0,5.796714420E0,2.928200229E0,7.275978712E0
4.525188875E0,-6.249282480E0,5.421087533E0,3.453931575E0,8.965007801E0
4.535214875E0,-8.116092616E0,5.207744853E0,3.277294207E0,1.018490172E1
4.545240875E0,-8.643503866E0,4.728878356E0,1.755109606E0,1.000764005E1
4.555266875E0,-8.243612788E0,4.143480853E0,-3.862822688E-1,9.234435519E0
4.565293875E0,-8.002782932E0,3.811478872E0,-1.586571801E0,9.004949524E0
4.575319875E0,-8.189155914E0,3.582454544E0,-2.079038336E0,9.177072276E0
4.585345875E0,-8.437757889E0,3.347372501E0,-1.893344800E0,9.272832113E0
4.595371875E0,-8.291561126E0,2.971212932E0,-9.997545934E-1,8.864400794E0
4.605397875E0,-7.651826617E0,2.401046256E0,-1.792662764E-1,8.021696210E0
4.615423875E0,-6.690321584E0,1.569179258E0,-2.130771979E-1,6.875182058E0
4.625450875E0,-4.932079040E0,4.005933291E-1,-1.738450888E0,5.244815551E0
4.635476875E0,-1.683056121E0,-9.606957775E-1,-4.400842541E0,4.808641114E0
4.645502875E0,3.910320205E0,-2.249319196E0,-7.047878237E0,8.367952473E0
4.655528875E0,1.105115338E1,-3.449112300E0,-4.789289449E0,1.252843407E1
4.665554875E0,1.596582468E1,-6.315173584E0,2.729042895E0,1.738495471E1
4.675580875E0,2.006956668E1,-1.055862136E1,1.391032723E0,2.272018847E1
4.685607875E0,2.162898401E1,-1.106542761E1,-3.847672552E0,2.459799223E1
4.695633875E0,1.677286674E1,-5.132950779E0,-3.313848660E0,1.785098976E1
4.705659875E0,1.080865649E1,2.074355886E0,-9.052612495E-1,1.104307499E1
4.715685875E0,6.301122724E0,4.717155274E0,2.050383471E0,8.133865861E0
4.725711875E0,1.785342050E0,5.039065545E0,3.552341384E0,6.418625796E0
4.735737875E0,-1.647823724E0,4.691888870E0,3.666091948E0,6.178136803E0
4.745764875E0,-4.289443728E0,4.037273782E0,2.500816712E0,6.399452423E0
4.755790875E0,-6.180304046E0,2.878601223E0,1.248592796E0,6.931196655E0
4.765816875E0,-6.994238219E0,9.632393163E-1,-7.093473655E-1,7.095799598E0
4.775842875E0,-6.845237716E0,-2.655644551E0,-4.539332090E0,8.632222378E0
4.785868875E0,-6.186633657E0,-9.302313162E0,-1.195592464E1,1.636311706E1
4.795894875E0,-2.142995181E0,-1.342298520E1,-2.874563136E0,1.389359828E1
4.805921875E0,7.009449166E-1,-1.484452518E1,5.453824339E0,1.583020693E1
4.815947875E0,1.544676501E-1,-1.639493546E1,5.071905262E0,1.716222573E1
4.825973875E0,-3.484421296E0,-1.315610892E1,3.199385321E0,1.398071744E1
4.835999875E0,-6.273098189E0,-6.542606299E0,5.334596103E-1,9.079759756E0
4.846025875E0,-7.765727454E0,-1.898587414E0,-1.729230999E0,8.179327411E0
4.856051875E0,-8.134189748E0,3.324732667E-1,-1.668777806E-1,8.142691786E0
4.866078875E0,-7.866012465E0,1.594725158E0,1.089629806E0,8.099666261E0
4.876104875E0,-6.826814309E0,2.263229138E0,1.356722431E0,7.319036514E0
4.886130875E0,-5.831203052E0,2.270379113E0,1.522631328E0,6.440182957E0
4.896156875E0,-4.861518350E0,1.656234943E0,2.053484834E0,5.531209165E0
4.906182875E0,-3.891938313E0,5.536716807E-1,2.698232746E0,4.768039022E0
4.916208875E0,-3.459251956E0,-6.599272835E-1,3.061959965E0,4.666639792E0
4.926234875E0,-3.594872861E0,-1.382608055E0,2.971007695E0,4.864319340E0
4.936261875E0,-4.116481919E0,-1.461516815E0,2.388200508E0,4.978449202E0
4.946287875E0,-4.465025089E0,-1.055466864E0,1.798900573E0,4.928133786E0
4.956313875E0,-4.342221866E0,-3.743890321E-1,1.557701758E0,4.628335840E0
4.966339875E0,-3.977506759E0,3.164179820E-1,1.466756505E0,4.251123970E0
4.976365875E0,-3.441339304E0,7.984764737E-1,1.556608329E0,3.860493540E0
4.986391875E0,-2.978511427E0,1.165309149E0,1.739857144E0,3.640958475E0
4.996418875E0,-2.786410220E0,1.485114423E0,1.812250936E0,3.640590641E0
5.006444875E0,-2.421158632E0,1.651829651E0,1.787240641E0,3.432896652E0
5.016470875E0,-1.887632948E0,1.653591417E0,1.842994426E0,3.113543187E0
5.026496875E0,-1.310396403E0,1.606478062E0,2.166774638E0,2.998803566E0
5.036522875E0,-5.868446892E-1,1.476580997E0,2.546189936E0,3.001293275E0
5.046548875E0,-2.796460122E-2,1.236565658E0,2.528189868E0,2.814537378E0
5.056575875E0,4.388692027E-1,1.005017087E0,2.398565868E0,2.637381987E0
5.066601875E0,1.188205384E0,7.534096438E-1,2.335442836E0,2.726490668E0
5.076627875E0,2.191127999E0,3.989333045E-1,2.255055900E0,3.169458439E0
5.086653875E0,3.715512907E0,4.067674041E-2,1.668414109E0,4.073118755E0
5.096679875E0,5.647237369E0,-1.122139156E-2,-1.283086252E0,5.791176577E0
5.106705875E0,6.063570818E0,3.416311759E-1,-2.941374006E0,6.747983696E0
5.116732875E0,5.106949965E0,9.083310378E-1,-6.982243241E0,8.698144854E0
5.126758875E0,2.698644682E0,1.669967714E0,-1.919498811E1,1.945556589E1
5.136784875E0,4.234072057E0,1.479188855E0,-7.396422576E0,8.649996114E0
5.146810875E0,5.495658828E0,1.909148655E0,-1.708918941E-1,5.820336638E0
5.156836875E0,2.951080969E0,2.442741582E0,-2.585488488E0,4.621754650E0
5.166862875E0,1.376019997E0,2.274186820E0,-3.173689731E0,4.139766085E0
5.176888875E0,1.515606922E0,1.741231239E0,-1.702837544E0,2.868554736E0
5.186915875E0,2.344353700E0,1.005791259E0,-8.308261943E-1,2.682886970E0
5.196941875E0,3.818157269E0,4.795108598E-1,-2.157651812E-1,3.854193847E0
5.206967875E0,5.234992293E0,1.876500142E-1,1.553494102E-1,5.240657428E0
5.216993875E0,5.875718490E0,-4.560477376E-2,2.726888488E-1,5.882219545E0
5.227019875E0,5.801638361E0,-2.214662164E-1,2.742067860E-1,5.812335530E0
5.237045875E0,5.712503405E0,-1.846691036E-1,4.496951763E-1,5.733151279E0
5.247072875E0,5.997476816E0,5.151806295E-2,8.802923231E-1,6.061954869E0
5.257098875E0,6.497150044E0,1.721671718E-1,1.155044362E0,6.601267129E0
5.267124875E0,6.542454856E0,2.626247674E-1,8.824759658E-1,6.606924484E0
5.277150875E0,6.587921051E0,2.485452569E-1,3.270540673E-1,6.600715331E0
5.287176875E0,6.989483848E0,-4.966975808E-2,3.164901951E-1,6.996821964E0
5.297202875E0,7.393947449E0,-5.466485900E-1,-1.080812497E-1,7.414915045E0
5.307229875E0,7.289270010E0,-1.189399678E0,-1.976154823E0,7.645476882E0
5.317255875E0,6.220704213E0,-2.079582127E0,-1.195781913E1,1.363859455E1
5.327281875E0,7.050976676E0,-2.535378435E0,-1.230632839E1,1.440798856E1
5.337307875E0,7.802584793E0,-2.063160222E0,-3.908555223E0,8.967372162E0
5.347333875E0,6.369755588E0,-5.447809893E-1,-3.956489235E-1,6.405240873E0
5.357359875E0,4.815614199E0,-9.172176361E-2,1.771655472E0,5.131989488E0
5.367386875E0,4.082637650E0,-5.781867170E-1,2.422900225E0,4.782538611E0
5.377412875E0,3.436268891E0,-1.693505681E0,6.010060608E-1,3.877771739E0
5.387439500E0,1.794180116E0,-3.253248117E0,-3.219638321E0,4.916174989E0
5.397465500E0,2.742411384E-1,-4.061646146E0,-1.578627189E0,4.366261721E0
5.407491500E0,-2.238805318E-1,-4.347973187E0,2.701939881E0,5.124009411E0
5.417517500E0,-6.714340192E-1,-4.718206603E0,4.764004920E0,6.738548810E0
5.427544500E0,-1.580039584E0,-5.821761553E0,4.792563890E0,7.704420894E0
5.437570500E0,-2.414726987E0,-7.373993826E0,4.280684599E0,8.861769124E0
5.447596500E0,-2.765666345E0,-9.153482813E0,3.118223044E0,1.005775685E1
5.457622500E0,-2.447060628E0,-1.067959674E1,-2.932834733E-1,1.096028775E1
5.467648500E0,-2.108556250E0,-1.105534701E1,-4.313853514E0,1.205305103E1
5.477674500E0,-2.856876478E0,-9.976498296E0,-5.280895275E0,1.164388751E1
5.487700500E0,-3.574593840E0,-8.099235678E0,-4.089940238E0,9.752074181E0
5.497727500E0,-4.551300756E0,-6.108047079E0,-1.659912257E0,7.796017341E0
5.507753500E0,-5.318584088E0,-4.297294199E0,6.887984955E-1,6.872300743E0
5.517779500E0,-5.713592741E0,-2.614761989E0,2.793318998E0,6.876391008E0
5.527805500E0,-6.098877475E0,-1.075826284E0,4.240115447E0,7.505483839E0
5.537831500E0,-6.730596621E0,1.968231261E-1,4.866031816E0,8.307703404E0
5.547857500E0,-6.679753911E0,1.573412057E0,5.233681347E0,8.630536383E0
5.557884500E0,-5.932071615E0,2.799125867E0,5.181175105E0,8.358777108E0
5.567910500E0,-4.608586512E0,3.815225767E0,4.482966101E0,7.476095395E0
5.577936500E0,-2.581622309E0,4.652315499E0,7.063208467E-1,5.367280726E0
5.587962500E0,1.368159000E0,5.856420924E0,-8.467355325E0,1.038583802E1
5.597988500E0,2.206151542E0,6.119899385E0,-6.485173777E0,9.185736336E0
5.608014500E0,1.410595753E0,5.521952003E0,-2.107832365E0,6.076569063E0
5.618041500E0,-9.104874909E-2,4.969343930E0,-6.899487890E-2,4.970656825E0
5.628067500E0,-2.577949088E0,4.693240746E0,1.121718083E0,5.470884907E0
5.638093500E0,-5.105604520E0,4.745442349E0,2.184270676E0,7.304619018E0
5.648119500E0,-6.786763220E0,5.099887698E0,2.667212098E0,8.898484698E0
5.658145500E0,-7.631543210E0,5.419640347E0,2.341335075E0,9.648564825E0
5.668171500E0,-8.065853339E0,5.393679879E0,1.312999291E0,9.791513665E0
5.678198500E0,-8.076102338E0,5.197803417E0,7.101338160E-1,9.630414289E0
5.688224500E0,-7.981291491E0,5.173925727E0,6.764234483E-1,9.535621111E0
5.698250500E0,-8.080775433E0,5.215248585E0,7.203828156E-1,9.644516618E0
5.708276500E0,-8.211130335E0,5.159453284E0,6.890312147E-1,9.722005122E0
5.718302500E0,-8.067359582E0,4.917594318E0,5.070459465E-1,9.461612975E0
5.728328500E0,-7.387832431E0,4.388549355E0,3.664286327E-1,8.600796673E0
5.738354500E0,-6.537724459E0,3.406193737E0,-2.427144134E-1,7.375832641E0
5.748381500E0,-5.199590911E0,1.704187959E0,-1.992017734E0,5.823069370E0
5.758407500E0,-2.351284405E0,-8.760579157E-1,-5.614263750E0,6.149469350E0
5.768433500E0,3.693016621E0,-4.548233306E0,-1.025456731E1,1.181020528E1
5.778459500E0,1.232439044E1,-8.343756881E0,-8.992686721E0,1.738899920E1
5.788485500E0,1.765675641E1,-1.167020746E1,2.967864232E0,2.137201458E1
5.798511500E0,2.003243686E1,-1.388917785E1,5.262475376E0,2.493795170E1
5.808538500E0,1.665546400E1,-1.161417710E1,3.364216576E0,2.058182558E1
5.818564500E0,1.226213396E1,-5.976697565E0,4.038633260E0,1.422643321E1
5.828590500E0,9.121443579E0,2.348398511E0,2.814883529E0,9.830527850E0
5.838616500E0,6.563998922E0,7.447468768E0,-1.773261702E-1,9.928862849E0
5.848642500E0,4.399861963E0,8.593073970E0,-6.142272002E-1,9.673519556E0
5.858668500E0,2.009461148E0,6.914492723E0,-2.793800004E-1,7.205983410E0
5.868695500E0,1.424106914E-1,1.947535626E0,-2.722692234E0,3.350556494E0
5.878721500E0,-1.428170144E0,-4.580946724E0,-6.454963553E0,8.043090035E0
5.888747500E0,-2.584064691E0,-1.057356918E1,-6.557574586E0,1.270746001E1
5.898773500E0,-3.430223454E0,-1.416271645E1,-2.743470899E0,1.482820295E1
5.908799500E0,-4.068222510E0,-1.403023491E1,2.302577391E0,1.478850191E1
5.918825500E0,-6.071141793E0,-1.007818488E1,2.555518584E0,1.203990234E1
5.928851500E0,-8.151398689E0,-4.921093876E0,5.565600590E-1,9.537936078E0
5.938878500E0,-9.545419339E0,-8.906671840E-1,-2.887367953E0,1.001225310E1
5.948904500E0,-1.013654828E1,1.432837976E0,-5.603316008E0,1.167046640E1
5.958930500E0,-9.771580285E0,1.991770982E0,-4.254195542E0,1.084200685E1
5.968956500E0,-8.309105111E0,1.261239154E0,-1.004037752E0,8.464044173E0
5.978982500E0,-6.621540787E0,-1.904824054E-1,1.784189417E-1,6.626682372E0
5.989008500E0,-5.372277315E0,-2.071743350E0,6.940147235E-1,5.799581062E0
5.999035500E0,-4.970497001E0,-4.235048835E0,1.669680031E0,6.740126889E0
6.009061500E0,-4.415983906E0,-5.827476037E0,2.743403072E0,7.809395062E0
6.019087500E0,-3.671223464E0,-6.265185152E0,3.506448927E0,8.063845906E0
6.029113500E0,-2.992684493E0,-5.207719710E0,3.639372511E0,7.022929398E0
6.039139500E0,-2.573149401E0,-3.248248163E0,3.218369476E0,5.246914908E0
6.049165500E0,-2.480361398E0,-1.407090347E0,2.742507863E0,3.956443515E0
6.059192500E0,-2.472356560E0,-4.100652337E-3,2.408918363E0,3.451876512E0
6.069218500E0,-2.477066199E0,1.023831089E0,2.404266318E0,3.600636552E0
6.079244500E0,-2.477102745E0,1.702638447E0,2.791274811E0,4.101978883E0
6.089270500E0,-1.984381563E0,1.707201614E0,2.548089112E0,3.653089878E0
6.099296500E0,-8.077846563E-1,1.178940178E0,1.809807969E0,2.306040086E0
6.109322500E0,-4.053348362E-2,8.326692367E-1,1.460213470E0,1.681429273E0
6.119349500E0,7.452802598E-2,1.037456270E0,1.163540951E0,1.560672126E0
6.129375500E0,3.092835018E-1,1.516920937E0,1.002622653E0,1.844439643E0
6.139401500E0,9.239065585E-1,2.150294845E0,9.607232594E-1,2.529893364E0
6.149427500E0,2.159218281E0,2.751134260E0,6.819899245E-1,3.563155001E0
6.159453500E0,3.676955197E0,3.146549295E0,6.154171085E-1,4.878474168E0
6.169479500E0,4.758675767E0,3.479890873E0,9.779398012E-1,5.975868289E0
6.179506500E0,5.238277844E0,3.741008813E0,1.007495722E0,6.515347216E0
6.189532500E0,5.023953416E0,3.915920084E0,1.123660894E-1,6.370805614E0
6.199558500E0,4.076402180E0,3.863563530E0,-1.631508238E0,5.848589318E0
6.209584500E0,2.561202663E0,3.593880004E0,-4.905348494E0,6.598346490E0
6.219610500E0,1.804860640E0,3.297173570E0,-5.746317269E0,6.866515684E0
6.229636500E0,2.197385981E0,2.963938411E0,-4.252405125E0,5.629954298E0
6.239662500E0,2.245123234E0,2.595322920E0,-3.742398697E0,5.077580861E0
6.249689500E0,1.994489498E0,1.974898841E0,-3.272014171E0,4.310950072E0
6.259715500E0,1.909128482E0,1.046502498E0,-2.666064289E0,3.442068830E0
6.269741500E0,1.673753348E0,-5.272609770E-2,-2.247286266E0,2.802592705E0
6.279767500E0,1.553701532E0,-1.017526036E0,-1.956606558E0,2.697713273E0
6.289793500E0,2.551691582E0,-1.488896402E0,-1.650836209E0,3.384258059E0
6.299819500E0,3.276007819E0,-1.537047054E0,-1.794117551E0,4.039009614E0
6.309846500E0,2.991340218E0,-1.286424866E0,-1.887275537E0,3.763617168E0
6.319872500E0,2.846414639E0,-7.016816658E-1,-8.633563015E-1,3.056111510E0
6.329898500E0,2.993011645E0,2.331466144E-1,3.942543626E-2,3.002337492E0
6.339924500E0,3.418346005E0,1.281058291E0,8.568924969E-1,3.749728591E0
6.349950500E0,4.058775748E0,1.714964962E0,2.114478018E0,4.887308327E0
6.359976500E0,5.293180275E0,1.714045195E0,3.467455892E0,6.555833945E0
6.370003500E0,6.903370734E0,1.489834296E0,4.450412020E0,8.347592519E0
6.380029500E0,8.100433772E0,8.341848350E-1,3.919099507E0,9.037269089E0
6.390055000E0,9.369887094E0,-4.207457578E-1,1.652325495E0,9.523759273E0
6.400081000E0,8.887239788E0,-8.966594106E-1,7.387376641E-1,8.962854595E0
6.410107000E0,7.317438387E0,-8.428124017E-1,-3.352523898E0,8.092876731E0
6.420133000E0,5.073469393E0,-1.438437270E0,-1.847401590E1,1.921193527E1
6.430159000E0,7.082387919E0,-2.420313417E0,-7.929319099E0,1.090377169E1
6.440186000E0,7.911600866E0,-2.559572459E0,-3.186848013E-1,8.321442149E0
6.450212000E0,5.304337932E0,-1.820234140E0,-7.075013995E-1,5.652416426E0
6.460238000E0,4.143655685E0,-2.157221457E0,-2.314130466E0,5.213318200E0
6.470264000E0,3.774702224E0,-2.717476518E0,-1.040623269E0,4.766125501E0
6.480290000E0,2.439663023E0,-3.233198599E0,8.397378626E-1,4.136506802E0
6.490316000E0,4.946837997E-1,-4.132738933E0,-1.020877075E-1,4.163491930E0
6.500343000E0,-1.581927650E0,-4.874777496E0,-9.873883170E-1,5.219280259E0
6.510369000E0,-2.929314709E0,-4.804761182E0,4.037613505E-1,5.641776131E0
6.520395000E0,-2.676258033E0,-4.067162409E0,2.050789268E0,5.282982467E0
6.530421000E0,-2.236578698E0,-4.130780700E0,2.046540681E0,5.123862042E0
6.540447000E0,-2.512703225E0,-5.023532417E0,9.824199378E-1,5.702166638E0
6.550473000E0,-1.749613808E0,-5.765632961E0,-9.119797003E-1,6.093880446E0
6.560500000E0,-1.709748661E0,-6.213572364E0,-2.638684702E0,6.963790560E0
6.570526000E0,-2.344403109E0,-6.562410818E0,-3.017812318E0,7.593987942E0
6.580552000E0,-2.631455204E0,-6.731110007E0,-2.586162672E0,7.675977839E0
6.590578000E0,-2.674812893E0,-6.521855115E0,-1.933564289E0,7.309438352E0
6.600604000E0,-3.019324408E0,-5.851530898E0,-3.321382213E-1,6.592954537E0
6.610630000E0,-3.097374212E0,-4.438402716E0,1.725529711E0,5.680721650E0
6.620657000E0,-3.221797698E0,-2.706267990E0,3.192902513E0,5.281902431E0
6.630683000E0,-3.595043015E0,-9.455392098E-1,3.906773869E0,5.392704399E0
6.640709000E0,-4.200358474E0,6.227752447E-1,4.161974427E0,5.945829752E0
6.650735000E0,-4.540688644E0,1.870714906E0,4.108280615E0,6.402764812E0
6.660761000E0,-4.113914992E0,2.798204931E0,3.591010190E0,6.135927117E0
6.670787000E0,-2.959795659E0,3.611538595E0,1.630432935E0,4.945898596E0
6.680813000E0,-5.509866393E-1,4.497833816E0,-3.341557446E0,5.630284315E0
6.690840000E0,-3.196193326E-1,4.620719485E0,-3.063407736E0,5.553167747E0
6.700866000E0,-1.302921031E0,4.317636663E0,-1.080988791E0,4.637685450E0
6.710892000E0,-2.038265117E0,4.223241552E0,-2.814651541E-1,4.697820402E0
6.720918000E0,-3.000502805E0,4.096181556E0,2.550521115E-1,5.083972069E0
6.730944000E0,-4.270283571E0,3.873293297E0,3.961395049E-1,5.778810366E0
6.740970000E0,-5.467805032E0,3.508269165E0,4.353462553E-1,6.511095972E0
6.750997000E0,-6.262934559E0,3.245402323E0,8.025818038E-1,7.099374837E0
6.761023000E0,-6.947002072E0,3.183238819E0,1.476842952E0,7.782988647E0
6.771049000E0,-7.614373446E0,3.236105250E0,2.018627243E0,8.516214894E0
6.781075000E0,-8.201772451E0,3.222592919E0,2.271802325E0,9.100289131E0
6.791101000E0,-8.784831653E0,3.184787747E0,2.121721841E0,9.582162790E0
6.801127000E0,-9.236997424E0,3.298262907E0,1.614657147E0,9.940210125E0
6.811154000E0,-9.675787690E0,3.604737114E0,7.783486032E-1,1.035474884E1
6.821180000E0,-9.912656057E0,4.037268519E0,-1.413073218E-1,1.070421669E1
6.831206000E0,-9.011475579E0,4.290029619E0,-8.542571568E-1,1.001702558E1
6.841232000E0,-5.623669581E0,3.887127224E0,-1.270397648E0,6.953368090E0
6.851258000E0,-2.658946766E0,2.771410650E0,-2.698830332E0,4.694081386E0
6.861284000E0,-2.338120276E-1,7.527114862E-1,-5.799558506E0,5.852872928E0
6.871310000E0,4.554819902E0,-2.205365676E0,-1.116613303E1,1.225938616E1
6.881337000E0,1.166399304E1,-4.976046594E0,-1.194549554E1,1.742138448E1
6.891363000E0,1.597665372E1,-7.478905739E0,5.282584389E-1,1.764841500E1
6.901389000E0,1.952110253E1,-1.028712461E1,5.655514687E0,2.277900839E1
6.911415000E0,1.981289497E1,-1.070447548E1,8.761867006E-1,2.253673236E1
6.921441000E0,1.766818772E1,-8.597948794E0,5.352962208E-1,1.965645245E1
6.931467000E0,1.084877189E1,-2.501830620E0,4.990201314E-1,1.114468614E1
6.941494000E0,4.261191736E0,2.083603258E0,-3.308354616E-1,4.754851170E0
6.951520000E0,1.373651290E0,2.770983803E0,8.502272558E-1,3.207515470E0
6.961546000E0,-7.184041178E-1,1.844093703E0,1.384766847E0,2.415443082E0
6.971572000E0,-3.680710571E0,4.725029719E-1,-3.098286377E0,4.834280489E0
6.981598000E0,-7.497553679E0,-2.553242848E0,-1.208309456E1,1.444761345E1
6.991624000E0,-1.028037575E1,-7.698031899E0,-1.898557593E1,2.292156003E1
7.001651000E0,-6.940279528E0,-1.046578161E1,-5.130727082E0,1.356556025E1
7.011677000E0,-2.521897679E0,-9.606139165E0,6.981586014E0,1.214003381E1
7.021703000E0,-2.481097562E0,-9.002968465E0,5.758760144E0,1.097144497E1
7.031729000E0,-3.621055523E0,-7.838997159E0,4.395385920E0,9.689238202E0
7.041755000E0,-4.610240690E0,-4.768002076E0,3.813847579E0,7.650725218E0
7.051781000E0,-4.926189140E0,-1.448389231E0,3.264741404E0,6.084710942E0
7.061807000E0,-5.215148597E0,1.137297478E0,2.833385289E0,6.043119446E0
7.071834000E0,-5.418960900E0,2.872082162E0,2.796483511E0,6.740497994E0
7.081860000E0,-5.145370849E0,3.834765993E0,3.108210272E0,7.130304516E0
7.091886000E0,-3.636440132E0,3.794730692E0,3.523513441E0,6.327623948E0
7.101912000E0,-1.578619587E0,2.435471739E0,4.273231738E0,5.165662772E0
7.111938000E0,-1.308367127E-1,6.028982198E-1,4.793041023E0,4.832581790E0
7.121964000E0,6.006233606E-1,-6.533316243E-1,4.935908382E0,5.015055552E0
7.131991000E0,5.361215553E-1,-1.198631846E0,4.779363216E0,4.956456131E0
7.142017000E0,6.397847950E-2,-1.102177346E0,4.452903811E0,4.587727160E0
7.152043000E0,-1.644029465E-1,-4.180279720E-1,4.172759031E0,4.196867123E0
7.162069000E0,-2.778976947E-2,6.512377363E-1,4.054115517E0,4.106182593E0
7.172095000E0,-1.478117645E-2,1.873585889E0,4.138352845E0,4.542742215E0
7.182121000E0,-1.504389185E-1,2.816151790E0,3.515516789E0,4.506905930E0
7.192147000E0,-4.942130989E-1,3.178506083E0,2.124639602E0,3.855028008E0
7.202174000E0,-8.595053253E-1,3.205294517E0,9.847576547E-1,3.461561784E0
7.212200000E0,-1.136424488E0,3.187758132E0,1.491110158E-1,3.387550239E0
7.222226000E0,-1.530518053E0,2.919335266E0,-9.907943201E-1,3.441900244E0
7.232252000E0,-1.767413609E0,2.345778374E0,-2.105812152E0,3.613982826E0
7.242278000E0,-1.776736995E0,1.628909735E0,-2.980600052E0,3.833290746E0
7.252304000E0,-2.383485314E0,7.096566832E-1,-5.166476374E0,5.733854984E0
7.262331000E0,-1.935419610E0,1.593214238E-1,-3.927109315E0,4.381029555E0
7.272357000E0,-7.194153938E-1,9.577212989E-2,-1.265686546E0,1.459004195E0
7.282383000E0,5.022515586E-1,6.046377665E-1,-7.961209229E-1,1.118772533E0
7.292409000E0,1.005024981E0,1.201875882E0,-1.267909073E0,2.015483630E0
7.302435000E0,1.277876529E0,1.351807262E0,-1.140083676E0,2.181774985E0
7.312461000E0,1.630753947E0,1.266488784E0,-8.449646156E-1,2.230990246E0
7.322488000E0,1.857857756E0,8.988269734E-1,-1.082622503E0,2.330578652E0
7.332514000E0,1.903914227E0,2.754903960E-1,-1.688544903E0,2.559681276E0
7.342540000E0,2.071941278E0,-3.073156214E-1,-2.170227565E0,3.016168303E0
7.352566000E0,2.474887235E0,-5.036335480E-1,-2.487358176E0,3.544808072E0
7.362592000E0,2.409875991E0,-4.782800210E-1,-2.903019780E0,3.803127386E0
7.372618000E0,2.140775870E0,-3.385081780E-1,-3.123427943E0,3.801751074E0
7.382645000E0,2.171915510E0,9.236671150E-2,-2.846186598E0,3.581414070E0
7.392670375E0,2.207409863E0,6.088898617E-1,-2.292303833E0,3.240071300E0
7.402696375E0,2.249911519E0,8.959782100E-1,-1.732635248E0,2.977734659E0
7.412722375E0,2.452032223E0,8.641196555E-1,-1.308418583E0,2.910519539E0
7.422748375E0,2.842305216E0,6.687980944E-1,-9.028217912E-1,3.056317559E0
7.432774375E0,3.535083327E0,5.033183831E-1,-1.165643902E-1,3.572636390E0
7.442800375E0,4.100005635E0,6.083419776E-1,8.453857613E-1,4.230224965E0
7.452827375E0,4.367553173E0,1.063211501E0,1.679231896E0,4.798516352E0
7.462853375E0,4.553803656E0,1.569396189E0,2.098954391E0,5.254116641E0
7.472879375E0,5.067036871E0,1.631093085E0,1.951127424E0,5.669411392E0
7.482905375E0,6.063471415E0,1.100507382E0,1.425310271E0,6.325212365E0
7.492931375E0,7.414181739E0,1.951993543E-1,1.117009978E0,7.500393652E0
7.502957375E0,8.617554508E0,-7.511333227E-1,7.646251881E-1,8.683956393E0
7.512984375E0,8.733051635E0,-1.515850897E0,-3.452299032E0,9.512221791E0
7.523010375E0,9.045750788E0,-2.349482000E0,-1.028217319E1,1.389491844E1
7.533036375E0,1.019232370E1,-2.930399952E0,-5.146628585E0,1.178806567E1
7.543062375E0,1.050587012E1,-3.653192405E0,-1.132022704E0,1.118036659E1
7.553088375E0,7.545085695E0,-4.218440403E0,-5.394188002E-2,8.644447195E0
7.563114375E0,2.289059505E0,-4.625084431E0,-7.809482753E-2,5.161133424E0
7.573140375E0,-1.488159068E0,-5.624187645E0,-7.075305625E-1,5.860606076E0
7.583167375E0,-3.765069229E0,-6.528495798E0,7.524160556E-3,7.536382441E0
7.593193375E0,-4.779525476E0,-7.086223108E0,1.585384231E0,8.693207973E0
7.603219375E0,-4.605757922E0,-7.242725004E0,2.131202517E0,8.843760268E0
7.613245375E0,-4.278107438E0,-7.310220584E0,1.909998840E0,8.682719839E0
7.623271375E0,-3.881310414E0,-7.038811544E0,1.209684838E0,8.128516217E0
7.633297375E0,-2.857535751E0,-6.558171587E0,2.077328610E-1,7.156694633E0
7.643324375E0,-2.158988193E0,-5.995096414E0,-3.031840519E-1,6.379210892E0
7.653350375E0,-2.468957573E0,-5.248915683E0,-5.408813350E-1,5.825754884E0
7.663376375E0,-3.321825432E0,-4.432727993E0,-3.147391733E-1,5.548212542E0
7.673402375E0,-4.319824691E0,-3.739159339E0,7.482026982E-1,5.762118117E0
7.683428375E0,-4.761896998E0,-3.045109459E0,2.063637940E0,6.017221634E0
7.693454375E0,-4.532376827E0,-2.206703519E0,2.811637155E0,5.772112578E0
7.703481375E0,-4.167675462E0,-1.298042114E0,3.087604684E0,5.346749926E0
7.713507375E0,-4.340156044E0,-3.770693958E-1,3.306621501E0,5.469267005E0
7.723533375E0,-4.594797316E0,5.048456758E-1,3.055525689E0,5.541053038E0
7.733559375E0,-4.679292798E0,1.389272711E0,2.704355950E0,5.580268888E0
7.743585375E0,-4.675566075E0,2.139262319E0,2.466573079E0,5.702748823E0
7.753611375E0,-4.891652561E0,2.797496833E0,2.452284822E0,6.145563779E0
7.763637375E0,-4.949562800E0,3.431790508E0,3.393481890E0,6.913109094E0
7.773664375E0,-3.538977865E0,3.849941272E0,3.074121004E0,6.066022756E0
7.783690375E0,-1.206379407E0,4.118703861E0,8.479491806E-1,4.374710343E0
7.793716375E0,3.113840556E0,4.475323790E0,-6.558492014E0,8.528677713E0
7.803742375E0,4.272223093E0,3.808513749E0,-4.337254071E0,7.181116905E0
7.813768375E0,3.253512411E0,2.642018200E0,-9.834736061E-1,4.304976598E0
7.823794375E0,1.319484438E0,1.771465437E0,1.216026728E0,2.521477738E0
7.833821375E0,-7.434494966E-1,1.405909794E0,2.219179723E0,2.730212107E0
7.843847375E0,-2.454914900E0,1.588186802E0,1.477662731E0,3.276039016E0
7.853873375E0,-3.334583471E0,1.771663658E0,4.986856707E-1,3.808795931E0
7.863899375E0,-3.533551941E0,1.418914002E0,4.300194784E-1,3.831999871E0
7.873925375E0,-4.410725505E0,1.076316281E0,6.317472124E-1,4.583891443E0
7.883951375E0,-5.550796317E0,9.682071108E-1,5.497447272E-1,5.661358850E0
7.893978375E0,-6.253762617E0,1.066799937E0,5.185860844E-1,6.365260442E0
7.904004375E0,-6.966075690E0,1.206712114E0,3.594412100E-1,7.078952085E0
7.914030375E0,-7.744032530E0,1.380572054E0,4.328213910E-1,7.878029790E0
7.924056375E0,-8.078590329E0,1.535218629E0,7.048596275E-1,8.253323272E0
7.934082375E0,-7.709978930E0,1.816104251E0,6.472271311E-1,7.947384017E0
7.944108375E0,-7.501646730E0,2.094705951E0,1.421060514E-1,7.789909551E0
7.954134375E0,-7.233801568E0,2.223510756E0,-7.643655717E-1,7.606322366E0
7.964161375E0,-6.640461792E0,2.241110875E0,-1.577935463E0,7.183884123E0
7.974187375E0,-5.090976541E0,2.332182428E0,-2.014347081E0,5.951026061E0
7.984213375E0,-2.046800882E0,2.232561076E0,-2.398881032E0,3.863722689E0
7.994239375E0,1.103815151E0,1.865514393E0,-3.160667982E0,3.832541446E0
8.004265375E0,4.611846043E0,1.331430885E0,-4.253297410E0,6.413452345E0
8.014291375E0,8.879229687E0,6.046886373E-1,-5.359064362E0,1.038874097E1
8.024318375E0,1.244356722E1,-1.007250139E0,-3.498768024E0,1.296527268E1
8.034344375E0,1.448914896E1,-3.774917986E0,-5.911078942E-1,1.498448704E1
8.044370375E0,1.543838712E1,-6.321645282E0,-5.984683692E-1,1.669326691E1
8.054396375E0,1.387731736E1,-6.794460495E0,-7.225486243E-1,1.546824835E1
8.064422375E0,9.362994981E0,-4.365052904E0,1.106246424E-1,1.033109867E1
8.074448375E0,4.867488942E0,-6.947685027E-1,1.101204954E0,5.038631186E0
8.084474375E0,3.102808614E0,2.005316641E0,1.529262071E0,3.998419514E0
8.094501375E0,2.467370639E0,3.910207939E0,1.722305557E0,4.933961940E0
8.104527375E0,1.801180403E0,4.501768407E0,1.454224752E0,5.062108184E0
8.114553375E0,7.841078183E-1,3.893355094E0,1.076597459E0,4.114863430E0
8.124579375E0,1.601260006E-3,2.609601821E0,1.072785147E0,2.821505307E0
8.134605375E0,-2.648627892E-1,6.092617446E-1,5.463054315E-1,8.601173147E-1
8.144631375E0,-3.687973398E-1,-2.338284582E0,-5.761717665E-1,2.436300509E0
8.154658375E0,-2.102793235E-1,-6.496662971E0,-1.798998806E0,6.744423168E0
8.164684375E0,6.870156795E-2,-1.146420654E1,-2.656011171E0,1.176805621E1
8.174710375E0,-9.897348046E-1,-1.029644741E1,-3.747990389E0,1.100199238E1
8.184736375E0,-3.741200894E0,-1.333921214E0,-4.483898731E0,5.990098311E0
8.194762375E0,-4.268221843E0,-5.655103043E0,-3.554359843E0,7.926624882E0
8.204788375E0,-5.338183955E0,-9.100003594E0,-3.163751804E0,1.101433606E1
8.214814375E0,-7.975123263E0,-6.701700851E0,-2.402610533E0,1.069055297E1
8.224841375E0,-9.901478519E0,-6.375401074E0,-1.618497598E-1,1.177757238E1
8.234867375E0,-1.083535721E1,-6.989103194E0,2.709584531E0,1.317552191E1
8.244893375E0,-1.079462785E1,-6.064352006E0,4.607863504E0,1.321108480E1
8.254919375E0,-1.021177856E1,-4.186926835E0,5.672896121E0,1.240937259E1
8.264945375E0,-9.513850222E0,-2.665242755E0,6.239305376E0,1.168528119E1
8.274971375E0,-8.489442013E0,-9.234770805E-1,7.233307478E0,1.119125429E1
8.284998375E0,-7.694285588E0,5.604152745E-1,7.878406223E0,1.102657611E1
8.295024375E0,-7.067710823E0,1.493136803E0,7.260805764E0,1.024213328E1
8.305050375E0,-6.819105340E0,8.404337543E-1,6.300982976E0,9.322494998E0
8.315076375E0,-6.401074444E0,-5.484308213E-1,5.237294927E0,8.288774852E0
8.325102375E0,-5.918630036E0,-1.446376619E0,4.153150101E0,7.373658698E0
8.335128375E0,-5.661564217E0,-3.001757033E0,3.240980659E0,7.181073060E0
8.345155375E0,-5.738588419E0,-4.805130141E0,2.084939785E0,7.769661938E0
8.355181375E0,-6.071638806E0,-4.635866697E0,1.075898205E0,7.714506774E0
8.365207375E0,-5.605022811E0,-3.197610691E0,5.120241563E-1,6.473265295E0
8.375233375E0,-3.433490878E0,-2.369467199E0,5.756700754E-1,4.211250462E0
8.385259375E0,-1.631539520E0,-5.324352951E0,8.690564597E-1,5.636125858E0
8.395285792E0,-7.715395206E-1,-9.973240228E0,-1.348262680E-1,1.000394782E1
8.405311792E0,1.477204602E0,-4.807255604E0,1.113247880E0,5.150840778E0
8.415338792E0,7.121402881E0,7.740576240E0,1.968885418E-1,1.051996505E1