"Time (s)","Linear Acceleration x (m/s^2)","Linear Acceleration y (m/s^2)","Linear Acceleration z (m/s^2)","Absolute acceleration (m/s^2)"
-1.126999967E-3,-6.552676374E-1,3.623928845E-2,-2.289186097E0,2.381399158E0
8.899000008E-3,-6.617276412E-1,2.656754060E-1,-2.445050647E0,2.546907843E0
1.892499998E-2,-9.574067187E-1,2.090022916E-1,-2.718652977E0,2.889876052E0
2.895099996E-2,-1.176512707E0,3.840894167E-1,-2.678328824E0,2.950449477E0
3.897700005E-2,-9.497164607E-1,5.483024749E-1,-2.557292045E0,2.782505986E0
4.900300002E-2,-1.044895098E0,7.465391654E-1,-1.651085300E0,2.091700065E0
5.902900000E-2,-6.733814344E-1,7.669536956E-1,-8.302473199E-1,1.315663764E0
6.905499997E-2,-9.197933346E-2,5.109833519E-1,-2.619002974E-1,5.815117793E-1
7.908100006E-2,4.794541419E-2,1.306681667E-1,1.439910768E0,1.446622257E0
8.910700004E-2,2.702023204E-1,-2.406768049E-1,2.996555935E0,3.018324384E0
9.913300001E-2,1.131850650E0,-4.556732234E-1,3.138097730E0,3.366954312E0
1.091590000E-1,1.082117888E0,-8.491309029E-1,3.033088753E0,3.330409855E0
1.191850000E-1,1.204336098E0,-8.558594401E-1,2.416175927E0,2.832106447E0
1.292110001E-1,9.226375665E-1,-5.655602761E-1,1.917466319E0,2.201771012E0
1.392370000E-1,4.999258286E-1,-2.745593000E-1,2.475649711E0,2.540501946E0
1.492630000E-1,3.600478587E-1,8.546856847E-2,2.795069069E0,2.819459246E0
1.592890000E-1,6.139830789E-1,3.294073157E-1,2.601866539E0,2.693546712E0
1.693150001E-1,1.150643017E0,3.921758601E-1,2.734277322E0,2.992332490E0
1.793410000E-1,1.347244826E0,3.311307460E-2,2.581687213E0,2.912262688E0
1.893670000E-1,1.002906827E0,-7.146798800E-1,8.746639395E-1,1.510505360E0
1.993930000E-1,3.751766521E-1,-1.696379587E0,-8.878587663E-1,1.951090570E0
2.094190000E-1,6.181191069E-1,-1.973347721E0,-1.520445054E0,2.566695467E0
2.194450001E-1,2.559559010E0,-9.335687169E-1,-1.656098703E0,3.188346874E0
2.294710000E-1,2.199605438E0,5.758155980E-1,-1.001343282E0,2.484454881E0
2.394970000E-1,2.849514833E-1,1.629934313E0,-1.053133240E0,1.961370143E0
2.495230000E-1,-6.973512179E-1,1.372158350E0,-1.412461599E0,2.089058407E0
2.595490000E-1,-6.023016576E-1,3.095306928E-1,-4.639724690E-1,8.208818359E-1
2.695748750E-1,-4.868694346E-1,-3.956841164E-1,4.671703112E-1,7.822121618E-1
2.796008750E-1,-6.992973905E-1,-7.542190446E-1,-6.474803156E-1,1.215357547E0
2.896268750E-1,-1.483553216E0,-9.788875618E-1,5.422415435E-2,1.778227000E0
2.996528751E-1,-1.235558036E0,-8.041864260E-1,1.090891635E-1,1.478248935E0
3.096788750E-1,-8.510354872E-1,-7.000999939E-1,2.304188883E-1,1.125830478E0
3.197048750E-1,-4.117580757E-1,-4.717434551E-1,5.023109078E-1,8.027470638E-1
3.297308750E-1,4.734414135E-1,1.989116784E-1,6.283412093E-1,8.114957197E-1
3.397568749E-1,1.191546190E0,6.522526668E-1,-3.276879054E-1,1.397352936E0
3.497828750E-1,1.379390771E0,-3.130720590E-1,-1.585311726E0,2.124604970E0
3.598088750E-1,1.939478163E0,-1.095855922E0,-1.712519072E0,2.809839375E0
3.698348750E-1,2.273142799E0,-1.637029763E0,-9.000402707E-1,2.942297932E0
3.798608750E-1,1.711649737E0,-1.883467684E0,-1.001060277E0,2.734834001E0
3.898868751E-1,-5.723857529E0,-1.085406362E0,-1.121907606E0,5.932902212E0
3.999128750E-1,-7.880699501E0,-7.539491956E-1,-3.426649636E-1,7.924095109E0
4.099388750E-1,-3.176225084E0,-2.127670798E0,-3.382339436E-1,3.837940986E0
4.199648750E-1,-6.237067062E-1,-3.151416225E0,-1.003966928E-3,3.212543430E0
4.299908750E-1,1.383882456E0,-2.298295767E0,-3.495307642E-1,2.705451134E0
4.400168750E-1,2.161565061E0,-1.554263303E0,-6.398953074E-1,2.738167988E0
4.500428750E-1,1.615782736E0,-1.481773032E0,-9.249915093E-1,2.379498783E0
4.600688750E-1,1.128034026E0,-1.922698554E0,-1.238544356E0,2.550141685E0
4.700948750E-1,9.716736326E-1,-2.871038726E0,-1.522796220E0,3.392037934E0
4.801218749E-1,7.825088972E-1,-3.877988319E0,-1.519234096E0,4.237827959E0
4.901478750E-1,3.864038908E-1,-4.167629561E0,-1.316715782E0,4.387731142E0
5.001738750E-1,-5.448400462E-1,-3.672375365E0,-1.438830203E0,3.981635826E0
5.101998750E-1,-1.612198977E0,-2.846150345E0,-1.332541856E0,3.532056784E0
5.202258750E-1,-1.923176710E0,-1.964612858E0,-1.154084249E0,2.981647664E0
5.302518751E-1,-1.820852190E0,-8.571936285E-1,-9.192893046E-1,2.212549760E0
5.402778750E-1,-2.586125250E0,-7.373110896E-1,-5.435992670E-1,2.743569138E0
5.503038750E-1,-3.670662716E0,-4.409325390E-1,2.525447524E-1,3.705666624E0
5.603298750E-1,-3.898477255E0,-7.387717241E-1,7.920445365E-1,4.046139285E0
5.703558750E-1,-2.708636112E0,-2.521585438E0,6.543034315E-1,3.758086706E0
5.803818750E-1,-1.809037306E0,-4.392925704E0,2.258650768E-1,4.756198823E0
5.904078750E-1,-2.343619582E0,-4.875241473E0,-3.163694501E-1,5.418544250E0
6.004338750E-1,-2.372529386E0,-3.750031652E0,-4.485328960E-1,4.460136190E0
6.104598750E-1,-1.399235197E0,-2.354635444E0,-6.934335834E-1,2.825423392E0
6.204858751E-1,-8.647821450E-1,-2.152155429E0,-6.990393090E-1,2.422452704E0
6.305118750E-1,-1.937845035E0,-3.333885606E0,1.267419076E-1,3.858250916E0
6.405378750E-1,-3.032845509E0,-3.753361934E0,1.301309246E0,4.997927914E0
6.505638750E-1,-2.028217846E0,-3.680220575E0,1.957291120E0,4.635588381E0
6.605898750E-1,-3.224067003E-1,-3.662472521E0,2.648246361E0,4.531099187E0
6.706158750E-1,6.398871213E-1,-3.734043902E0,3.175032544E0,4.943012346E0
6.806418750E-1,1.176250459E0,-3.095781430E0,2.719762194E0,4.285386120E0
6.906678750E-1,1.803048003E0,-2.574416201E0,1.522728392E0,3.492463691E0
7.006938750E-1,2.656642671E0,-2.675304059E0,6.233555809E-1,3.821462321E0
7.107198751E-1,3.434911167E0,-2.295452266E0,3.296765435E-1,4.144442357E0
7.207458750E-1,3.929255244E0,-1.684013603E0,2.503909305E-1,4.282247564E0
7.307718750E-1,4.358786443E0,-1.165938017E0,5.821020126E-2,4.512407245E0
7.407978750E-1,4.918457367E0,-4.599770665E-1,-4.221315479E-1,4.957922631E0
7.508238750E-1,5.558984174E0,-7.917685479E-2,-9.389862353E-1,5.638286013E0
7.608498750E-1,5.829443625E0,2.704945350E-1,-6.428721249E-1,5.871019063E0
7.708758750E-1,5.763582342E0,5.964212590E-1,-7.085655928E-3,5.794363636E0
7.809018750E-1,5.721630324E0,8.589600724E-1,4.370767388E-1,5.802232505E0
7.909278750E-1,5.384565824E0,1.001247972E0,-6.215034753E-1,5.512015347E0
8.009538751E-1,4.491492510E0,1.259933470E0,-1.409329830E0,4.873104544E0
8.109798750E-1,4.066743164E0,1.736182461E0,-2.029238770E0,4.865237865E0
8.210058750E-1,4.175363966E0,2.164661454E0,-2.672468160E0,5.409390864E0
8.310318750E-1,3.932602190E0,2.522091222E0,-2.686292732E0,5.389106861E0
8.410578750E-1,3.711514288E0,2.878228170E0,-3.547424460E0,5.885894665E0
8.510838751E-1,3.590268179E0,2.834550639E0,-3.420163320E0,5.711586474E0
8.611098750E-1,5.562440463E0,3.594942735E0,-4.937786508E0,8.261119341E0
8.711358750E-1,7.318569823E0,4.814389207E0,-6.331275646E0,1.080855490E1
8.811618750E-1,5.511057470E0,4.151825999E0,-3.927984644E0,7.939677382E0
8.911878749E-1,2.891279156E0,1.970562253E0,-1.818238485E0,3.943171558E0
9.012138750E-1,1.356292076E0,9.044046324E-1,-3.321855837E-1,1.663677612E0
9.112398750E-1,7.784041518E-1,8.508710343E-1,6.217128056E-1,1.310122648E0
9.212658750E-1,1.613866603E-1,9.104430521E-1,1.397097455E0,1.675360709E0
9.312918750E-1,-2.194255382E-1,5.659742224E-1,1.551984643E0,1.666472538E0
9.413178751E-1,-8.344093680E-1,-4.824713051E-2,8.386412904E-1,1.184012666E0
9.513448750E-1,-8.500535935E-1,3.832206666E-2,5.241558132E-1,9.993993241E-1
9.613708750E-1,1.999104559E-1,8.742335844E-1,5.483051062E-1,1.051136071E0
9.713968750E-1,1.108488831E0,1.383272299E0,7.108509770E-1,1.909842625E0
9.814228750E-1,1.089650856E0,2.065623654E0,1.307417539E0,2.676467951E0
9.914488751E-1,1.151248350E0,2.161850697E0,8.581177810E-1,2.595252844E0
1.001474875E0,8.961442709E-1,1.321645569E0,5.441360414E-1,1.686981208E0
1.011500875E0,4.336388683E-1,4.743729115E-1,1.069894284E-1,6.515512758E-1
1.021526875E0,-5.864739758E-1,-6.133729219E-3,-3.526514232E-1,6.843627497E-1
1.031552875E0,-1.219250883E0,1.110433030E-1,-2.945108038E-1,1.259221960E0
1.041578875E0,-1.576665448E0,5.162120783E-1,-3.732301140E-1,1.700485096E0
1.051604875E0,-2.006080288E0,8.989462566E-1,-4.553870022E-1,2.244958756E0
1.061630875E0,-2.510327793E0,1.475927278E0,-4.018791318E-2,2.912339614E0
1.071656875E0,-2.455650480E0,2.031850721E0,2.805573007E-1,3.199585759E0
1.081682875E0,-1.773548216E0,2.379433193E0,-3.919547988E-1,2.993460232E0
1.091708875E0,-1.612184359E0,2.541504562E0,-1.032349020E0,3.181843546E0
1.101734875E0,-1.904314762E0,2.325432987E0,-1.695795450E0,3.451054259E0
1.111760875E0,-1.949428954E0,1.864019845E0,-2.199994132E0,3.480634627E0
1.121786875E0,-1.294293464E0,1.067009268E0,-2.366252400E0,2.900492159E0
1.131812875E0,-1.864884063E0,1.265702333E0,-1.553312400E0,2.737256725E0
1.141838875E0,-1.523216050E0,2.417659950E-1,-1.329926396E0,2.036502430E0
1.151864875E0,-2.145459198E0,-2.443188894E-1,-2.174059245E0,3.064183495E0
1.161890875E0,-4.664719782E0,7.729071844E-1,-1.036082248E0,4.840502308E0
1.171916875E0,-4.406601464E0,1.889003243E0,-1.662148379E0,5.074367640E0
1.181942875E0,-1.296400800E0,2.203447205E0,-2.049799334E0,3.276814296E0
1.191968875E0,2.483766232E0,1.177272552E0,-1.169695145E0,2.987181295E0
1.201994875E0,7.704750935E0,-2.343213201E-1,2.513850156E0,8.107868774E0
1.212020875E0,1.142287725E1,-8.187329829E-1,3.479195055E0,1.196901193E1
1.222046875E0,1.132381256E1,-1.069381483E0,4.783273834E-1,1.138424809E1
1.232072875E0,7.988394104E0,-2.775065160E-1,-2.206215861E0,8.292094949E0
1.242098875E0,5.058340892E0,9.336430496E-1,-1.795712671E0,5.448218600E0
1.252124875E0,2.981223950E0,1.982487942E0,-8.931218451E-1,3.689935137E0
1.262150875E0,9.114014107E-1,2.459890881E0,-7.080463600E-1,2.717175983E0
1.272176750E0,-1.443438393E0,3.776421890E0,-3.789697409E-2,4.043057367E0
1.282202750E0,-3.642409555E0,4.251553770E0,1.224475955E0,5.730811303E0
1.292228750E0,-5.593352938E0,4.148062731E0,3.293945907E0,7.703382448E0
1.302254750E0,-6.426722671E0,4.046879003E0,3.676702890E0,8.437898915E0
1.312280750E0,-6.284556978E0,4.537166281E0,2.449896820E0,8.129177615E0
1.322306750E0,-5.332349018E0,5.571413600E0,8.029618728E-1,7.753666444E0
1.332332750E0,-4.474725327E0,6.405065753E0,-6.043927316E-1,7.836665403E0
1.342358750E0,-3.905728094E0,6.769094689E0,-1.476358802E0,7.953300583E0
1.352384750E0,-3.739669216E0,6.956853461E0,-1.125090246E0,7.978017548E0
1.362410750E0,-3.694603848E0,7.035584466E0,-2.049893475E-1,7.949312360E0
1.372436750E0,-3.652749186E0,6.951707911E0,5.137006992E-1,7.869733662E0
1.382462750E0,-3.104589091E0,6.782632163E0,3.461510005E-1,7.467422112E0
1.392488750E0,-2.624013453E0,4.072939458E0,-1.513778644E0,5.076003173E0
1.402514750E0,-1.883175469E0,4.674068896E0,3.133096752E-1,5.048904123E0
1.412540750E0,-2.363694535E0,6.905102679E0,5.049471835E0,8.874945672E0
1.422567750E0,-2.445656857E0,7.194654459E0,6.225543954E0,9.823527257E0
1.432593750E0,-1.800289433E0,7.335294029E0,5.929060884E0,9.602153066E0
1.442619750E0,-1.591237002E0,7.209239754E0,5.418883717E0,9.158027832E0
1.452645750E0,-1.294654968E0,6.053313047E0,1.771950756E0,6.438830625E0
1.462671750E0,-8.411044300E-2,-3.036600357E1,-1.095063624E1,3.228029866E1
1.472697750E0,1.882856357E0,-6.868333165E1,-7.755976052E0,6.914550137E1
1.482723750E0,3.410378881E0,-5.933114057E1,-2.372843966E-2,5.942907949E1
1.492749750E0,7.609846532E0,-2.519379517E1,1.155343739E0,2.634334638E1
1.502775750E0,6.145488555E0,-5.219637505E0,3.399916166E0,8.750489997E0
1.512801750E0,4.347410392E0,4.913141663E0,4.296010151E0,7.841851907E0
1.522827750E0,1.785549626E0,1.005352718E1,2.845392546E0,1.059989882E1
1.532853750E0,-2.801675838E-1,1.108200797E1,-1.150701781E0,1.114511145E1
1.542879750E0,-1.533231161E0,1.177517668E1,-4.115052275E0,1.256738790E1
1.552905750E0,-8.847519945E-1,1.161176922E1,-2.310906896E0,1.187250021E1
1.562931750E0,-8.229988921E-2,8.269648685E0,-6.052239498E-1,8.292174544E0
1.572957750E0,-4.830168138E-1,7.079826838E0,9.492812817E-1,7.159496369E0
1.582983750E0,-1.611930006E0,6.620820410E0,2.306382174E0,7.193954404E0
1.593009750E0,-1.707465908E0,1.709218318E0,1.638199791E0,2.919000795E0
1.603035750E0,-2.603155558E0,-8.543926953E0,-8.690900812E-1,8.973874537E0
1.613061750E0,-4.843262758E0,-1.164956211E1,-7.417479569E-1,1.263802522E1
1.623087750E0,-2.153308646E0,-7.579506499E0,1.340657791E0,7.992685419E0
1.633113750E0,1.292304241E0,-2.135677975E0,1.789542105E0,3.071421757E0
1.643139750E0,1.327984974E0,1.165294531E0,1.048935524E0,2.054682742E0
1.653165750E0,5.697850721E-1,2.467759479E0,-3.896126966E-1,2.562477303E0
1.663191750E0,4.383819469E-1,2.447576644E0,-1.170064105E0,2.748064805E0
1.673217750E0,5.204966987E-1,1.415054839E0,-1.243921894E0,1.954645413E0
1.683243750E0,1.559838331E-1,-2.362859845E-3,-7.994954972E-1,8.145732560E-1
1.693269750E0,8.126712475E-2,-7.850851804E-1,-3.376054410E-1,8.584523981E-1
1.703295750E0,1.978399934E-1,-9.822328269E-1,-2.727609158E-1,1.038422123E0
1.713321750E0,2.820754937E-1,-5.394658703E-1,-3.567969529E-1,7.056160960E-1
1.723347750E0,2.785144298E-1,-1.073332447E-1,-4.596260874E-1,5.480390983E-1
1.733373750E0,4.275281260E-1,9.028217912E-2,-5.331239802E-1,6.893129540E-1
1.743399750E0,5.391580144E-1,1.138838804E-1,-6.365483612E-1,8.419351037E-1
1.753425750E0,6.010069379E-1,-1.345017475E-1,-7.309808940E-1,9.558415804E-1
1.763451750E0,6.501919618E-1,-4.772590971E-1,-8.611539477E-1,1.179877941E0
1.773477750E0,6.338201234E-1,-8.297631705E-1,-1.061323289E0,1.488839142E0
1.783503750E0,5.627146921E-1,-8.330802959E-1,-1.249985456E0,1.604099201E0
1.793529750E0,5.532685152E-1,-4.707990932E-1,-1.422862480E0,1.597590521E0
1.803555750E0,4.996140258E-1,3.901905477E-2,-1.494968736E0,1.576727047E0
1.813581750E0,4.393506844E-1,4.111726964E-1,-1.450743905E0,1.570589026E0
1.823607750E0,4.564585776E-1,5.442366135E-1,-1.441797665E0,1.607273602E0
1.833633750E0,4.351522008E-1,3.770430833E-1,-1.383550041E0,1.498575871E0
1.843659750E0,4.466824716E-1,1.134652197E-2,-1.286951115E0,1.362313160E0
1.853685750E0,4.798168154E-1,-2.533943528E-1,-1.171252844E0,1.290839300E0
1.863711750E0,4.948956151E-1,-3.522082043E-1,-1.103564306E0,1.259693005E0
1.873737750E0,4.274483480E-1,-4.171181452E-1,-1.214417063E0,1.353332346E0
1.883763750E0,3.690245041E-1,-4.721088696E-1,-1.452879893E0,1.571599775E0
1.893790750E0,2.994087240E-1,-3.606311184E-1,-1.815600221E0,1.875127876E0
1.903816750E0,2.847232957E-1,-1.819402081E-1,-2.094977846E0,2.122051312E0
1.913842750E0,2.752380156E-1,-7.034258902E-2,-2.207887580E0,2.226088860E0
1.923868750E0,1.815984383E-1,-1.221430725E-1,-2.325212547E0,2.335489309E0
1.933894750E0,1.084362488E-1,-2.856505179E-1,-2.507469090E0,2.526015810E0
1.943920750E0,4.397546905E-1,-8.917167592E-1,-2.497768559E0,2.688380691E0
1.953946750E0,5.157332645E-1,-2.091665983E0,-2.645097928E0,3.411391275E0
1.963972750E0,1.682273179E-2,-2.968536077E0,-3.379896469E0,4.498465248E0
1.973998750E0,-7.032631183E-1,-3.469833663E0,-4.558486984E0,5.771839242E0
1.984024750E0,-3.006907991E-1,-3.643542160E0,-3.085447061E0,4.783910325E0
1.994050750E0,4.562048815E-2,-3.318524094E0,-2.058207484E-1,3.325213613E0
2.004076750E0,-8.390966423E-2,-2.531919222E0,4.812495294E-1,2.578615304E0
2.014102750E0,-4.633897208E-1,-1.710119959E0,1.102439740E0,2.086771116E0
2.024128750E0,-5.395596450E-1,-9.820340216E-1,9.807549432E-1,1.489092236E0
2.034154750E0,7.905362472E-2,-4.331827855E-1,1.011142338E0,1.102862471E0
2.044180750E0,8.311582430E-1,2.119206369E-2,9.759877083E-1,1.282117442E0
2.054206750E0,6.574662635E-1,-1.120788449E-1,8.428966016E-2,6.722561283E-1
2.064232750E0,3.509084413E-1,1.263992608E-2,-4.511898708E-1,5.717244104E-1
2.074258750E0,-8.089579001E-2,2.545573640E-1,-6.579912704E-1,7.101380798E-1
2.084284750E0,-4.784741485E-1,5.771172613E-1,-5.799835664E-1,9.478305658E-1
2.094310750E0,-4.701038593E-1,7.510380131E-1,-2.184791663E-1,9.125726721E-1
2.104336750E0,-2.051366973E-1,9.617798513E-1,-1.782675719E-1,9.994402804E-1
2.114362750E0,1.676509286E-1,1.143637614E0,-1.275087699E-1,1.162872440E0
2.124388750E0,6.134613611E-1,1.304371140E0,2.884960654E-1,1.470016630E0
2.134414750E0,8.162378298E-1,1.525678312E0,7.501045051E-1,1.885893760E0
2.144440750E0,7.903218006E-1,1.711978204E0,1.000647463E0,2.134659988E0
2.154466750E0,5.976971215E-1,1.816899472E0,1.012357682E0,2.164078007E0
2.164492750E0,4.135586527E-1,1.910571867E0,7.955496499E-1,2.110501093E0
2.174518750E0,1.858052176E-1,1.924799897E0,7.191212788E-1,2.063131997E0
2.184544750E0,-3.812530786E-3,1.973069247E0,7.299804354E-1,2.103779510E0
2.194570750E0,-2.222438961E-1,2.024752201E0,5.182469094E-1,2.101807243E0
2.204596750E0,-5.071692131E-1,2.110850113E0,5.651421636E-1,2.243277619E0
2.214622750E0,-7.182140833E-1,2.232965119E0,7.144066688E-1,2.452007663E0
2.224648750E0,-9.194185281E-1,2.314961209E0,7.217142266E-1,2.593308168E0
2.234674750E0,-1.054942515E0,2.507985399E0,6.130662355E-1,2.789040100E0
2.244700750E0,-9.135914853E-1,2.709977463E0,4.783905333E-1,2.899566305E0
2.254726750E0,-7.504477367E-1,2.795370786E0,2.715721768E-1,2.907063997E0
2.264752750E0,-8.799694106E-1,2.578581172E0,-6.896878570E-2,2.725469449E0
2.274778958E0,-7.497896326E-1,2.374132107E0,-2.834636593E-1,2.505801150E0
2.284804958E0,-5.727486603E-1,2.275899469E0,-4.167433387E-1,2.383575976E0
2.294830958E0,-5.653308825E-1,2.158945216E0,-5.051865685E-1,2.288199493E0
2.304856958E0,-5.444637778E-1,1.945368063E0,-6.308332926E-1,2.116328979E0
2.314882958E0,-6.788313317E-1,1.768671638E0,-6.110065538E-1,1.990562822E0
2.324909958E0,-9.422080511E-1,1.594921625E0,-6.582628736E-1,1.965919889E0
2.334935958E0,-1.070271137E0,1.442613351E0,-9.334658790E-1,2.024344866E0
2.344961958E0,-1.185102120E0,1.359331459E0,-1.246256248E0,2.192123100E0
2.354987958E0,-1.351952857E0,1.198248854E0,-1.550665804E0,2.380785853E0
2.365013958E0,-1.617292633E0,9.799605989E-1,-1.780278361E0,2.597181025E0
2.375039958E0,-1.742817297E0,8.165741909E-1,-2.153417843E0,2.888150610E0
2.385065958E0,-1.969923153E0,5.762208831E-1,-2.566420133E0,3.286204503E0
2.395091958E0,-2.248935619E0,3.116431457E-1,-2.919727322E0,3.698599803E0
2.405117958E0,-2.585762722E0,-3.995987177E-2,-3.132091177E0,4.061743566E0
2.415143958E0,-2.856512488E0,-4.753131437E-1,-3.205543023E0,4.319848638E0
2.425169958E0,-2.825148901E0,-8.814712679E-1,-3.187223697E0,4.349350848E0
2.435195958E0,-2.439082394E0,-1.240075157E0,-3.074295544E0,4.115604744E0
2.445221958E0,-1.731140553E0,-1.536837139E0,-2.907542017E0,3.716519418E0
2.455247958E0,-1.070633080E0,-1.776006385E0,-2.732905273E0,3.430630424E0
2.465273958E0,-6.821619058E-1,-2.144841732E0,-2.660488969E0,3.484808815E0
2.475299958E0,-8.775324373E-1,-2.899841818E0,-2.908386062E0,4.199744663E0
2.485325958E0,-1.002042316E0,-3.729043656E0,-3.125421843E0,4.967707428E0
2.495351958E0,-6.865816699E-1,-3.917777744E0,-2.917705062E0,4.932887559E0
2.505377958E0,2.362769213E-1,-3.081180348E0,-2.855789188E0,4.207734664E0
2.515403958E0,1.147943065E0,-1.743054401E0,-3.355523228E0,3.951651308E0
2.525429958E0,1.565221131E0,-6.219730067E-1,-3.340187151E0,3.740804434E0
2.535455958E0,1.729107330E0,2.265778524E-1,-9.462943777E-1,1.984092420E0
2.545481958E0,1.896347200E0,1.891961349E0,3.421243593E0,4.345176426E0
2.555507958E0,8.948568602E-1,4.391227965E0,6.760271240E0,8.110790287E0
2.565533958E0,-1.425976122E0,6.368611287E0,8.707133267E0,1.088148829E1
2.575559958E0,-2.907175981E0,6.748910100E0,8.480418005E0,1.122127218E1
2.585585958E0,-3.861164417E0,5.082141398E0,5.861162431E0,8.665447299E0
2.595611958E0,-3.210690327E0,1.973461595E0,2.682801067E0,4.626067943E0
2.605637958E0,-1.277573935E0,-1.642201626E0,-5.421991512E-1,2.150116569E0
2.615663958E0,6.865464404E-2,-4.601350583E0,-2.284176788E0,5.137567931E0
2.625689958E0,1.832408920E0,-5.366623642E0,3.017990658E-1,5.678860312E0
2.635715958E0,3.638737503E0,-3.402941515E0,3.340450860E0,5.998252539E0
2.645741958E0,4.381347924E0,-7.680276829E-1,4.523929647E0,6.344447620E0
2.655767958E0,3.107733724E0,6.488438863E-1,3.993594496E0,5.101745220E0
2.665793958E0,9.469654919E-1,9.660582590E-1,2.187969625E0,2.572396409E0
2.675819958E0,-2.282179233E-1,1.019518182E0,3.385457464E-1,1.098232201E0
2.685845958E0,-2.629083574E-2,1.027695513E0,4.075509310E-3,1.028039827E0
2.695871958E0,2.843939148E-1,7.980238992E-1,1.021859261E0,1.327372741E0
2.705897958E0,1.222247508E-1,6.785746390E-1,2.364721452E0,2.463191015E0
2.715923958E0,3.659769353E-1,5.901179606E-1,1.477187937E0,1.632256882E0
2.725949958E0,3.378114823E-1,2.975917017E-1,7.060489511E-1,8.373664311E-1
2.735975958E0,3.806197520E-1,-1.209613502E-2,1.123568362E0,1.186348842E0
2.746001958E0,4.429794299E-1,-1.856017345E-1,1.314014368E0,1.399039863E0
2.756028958E0,1.038952792E0,-3.131774551E-1,1.187876989E0,1.608898619E0
2.766054958E0,9.963287097E-1,-2.282174116E-1,7.190391254E-1,1.249708505E0
2.776080958E0,8.481453547E-1,4.505460924E-1,1.930259808E-1,9.795924424E-1
2.786106958E0,7.039275813E-1,1.121393051E0,1.834154971E-1,1.336666622E0
2.796132958E0,1.473990972E-1,1.557756137E0,1.029075146E-1,1.568094587E0
2.806158958E0,-3.935243743E-1,1.695410703E0,-2.032164717E-1,1.752305858E0
2.816184958E0,-6.185706581E-1,1.701752594E0,-2.906902331E-1,1.833873594E0
2.826210958E0,-4.355628216E-1,1.324446386E0,-3.263448000E-1,1.431912752E0
2.836236958E0,-2.202201748E-1,6.793371159E-1,-4.071667324E-1,8.220587512E-1
2.846262958E0,1.833670749E-1,2.939126337E-1,-6.371512091E-1,7.252377428E-1
2.856288958E0,5.292363857E-1,1.474182469E-1,-8.374505049E-1,1.001572084E0
2.866314958E0,7.412623456E-1,2.336494750E-1,-9.574248451E-1,1.233176498E0
2.876340958E0,7.730828932E-1,4.824069858E-1,-1.066915128E0,1.403097128E0
2.886366958E0,7.937821828E-1,7.609519672E-1,-1.210266051E0,1.635200894E0
2.896392958E0,8.801845150E-1,9.894605702E-1,-1.324742255E0,1.873152167E0
2.906418958E0,8.488348876E-1,9.915749234E-1,-1.272152982E0,1.822666921E0
2.916444958E0,6.333350238E-1,9.532458401E-1,-1.268755165E0,1.708663382E0
2.926470958E0,7.762315457E-1,8.433561927E-1,-1.373893365E0,1.789236725E0
2.936496958E0,1.097201000E0,5.770845169E-1,-1.537933491E0,1.975377432E0
2.946522958E0,1.217197487E0,-1.343655074E-1,-1.864737298E0,2.230889733E0
2.956548958E0,1.447061036E0,-6.343650109E-1,-2.289486644E0,2.781753710E0
2.966574958E0,9.830026129E-1,-5.222855812E-1,-3.093151352E0,3.287348727E0
2.976600958E0,2.481066060E-1,-5.676009178E-2,-3.870645677E0,3.879004583E0
2.986626958E0,-1.858040596E-2,2.349674374E-1,-3.794232509E0,3.801546430E0
2.996652958E0,8.393553816E-2,1.970932674E-1,-3.200725210E0,3.207886033E0
3.006678958E0,4.011325520E-1,7.031218350E-2,-2.956221841E0,2.984141200E0
3.016704958E0,9.286249691E-1,-1.571322262E-1,-2.841072038E0,2.993112961E0
3.026730958E0,1.564864013E0,-6.363372767E-1,-2.510686812E0,3.026098607E0
3.036756958E0,2.051848053E0,-1.538989499E0,-2.140853931E0,3.340931705E0
3.046782958E0,2.429915860E0,-2.625529636E0,-1.930584548E0,4.065101924E0
3.056808958E0,2.509742195E0,-3.445103449E0,-2.335009557E0,4.860021943E0
3.066834958E0,2.203442089E0,-3.468409865E0,-3.338501106E0,5.294394551E0
3.076860958E0,1.999508602E0,-3.253514165E0,-4.084960749E0,5.591984746E0
3.086886958E0,2.013925497E0,-3.642629410E0,-4.337860427E0,6.011794908E0
3.096912958E0,2.194689391E0,-4.671835844E0,-4.493406304E0,6.843494129E0
3.106938958E0,2.568572786E0,-5.803293123E0,-4.764533800E0,7.935777187E0
3.116964958E0,3.022524004E0,-6.229079765E0,-5.044507549E0,8.566454487E0
3.126990958E0,3.261365514E0,-5.822832178E0,-4.740075482E0,8.185975517E0
3.137016958E0,3.126645665E0,-4.914394721E0,-4.449047572E0,7.329475622E0
3.147042958E0,2.681426679E0,-3.567541221E0,-3.857004123E0,5.898633757E0
3.157068958E0,1.794493965E0,-2.352035480E0,-2.935269513E0,4.167503642E0
3.167094958E0,3.176008372E-1,-1.280732017E0,-3.186302176E0,3.448719522E0
3.177120958E0,-2.054825309E0,-1.048565395E0,-4.695926957E0,5.231971562E0
3.187146958E0,-4.039264466E0,-1.150816825E0,-4.222715303E0,5.955783855E0
3.197173958E0,-4.508842369E0,-1.396223881E0,-1.919268431E0,5.095359844E0
3.207199958E0,-4.357052159E0,-1.711532062E0,-1.617421528E-1,4.683951968E0
3.217225958E0,-3.692845883E0,-2.006596597E0,1.085903960E0,4.340821124E0
3.227251958E0,-3.264779411E0,-2.590165091E0,2.148048345E0,4.688480723E0
3.237277958E0,-2.887530506E0,-3.820929142E0,2.286632180E0,5.307166725E0
3.247303958E0,-2.449921378E0,-4.375131165E0,2.545513998E0,5.623480149E0
3.257329958E0,-2.416470919E0,-4.094487033E0,2.949541397E0,5.594993317E0
3.267355958E0,-2.687930537E0,-3.877603279E0,4.160306801E0,6.290383966E0
3.277381458E0,-2.443346476E0,-4.185752714E0,6.533888100E0,8.135241944E0
3.287407458E0,-8.542624193E-1,-3.293641267E0,4.979622166E0,6.031125434E0
3.297433458E0,7.874219653E-2,-1.931317204E0,3.205381055E0,3.743080841E0
3.307459458E0,4.945937526E-1,-1.283142239E0,1.398134898E0,1.961085969E0
3.317485458E0,7.332833813E-1,-1.139579646E0,3.582309826E-1,1.401668907E0
3.327511458E0,1.276231853E0,-1.135039868E0,1.053659197E0,2.006808648E0
3.337537458E0,3.303663395E0,-1.214233387E0,1.903042992E0,4.001265697E0
3.347563458E0,4.414830251E0,-1.116690136E0,3.224023441E0,5.579610215E0
3.357589458E0,5.159135195E0,-1.115872110E0,3.371964429E0,6.263544574E0
3.367615458E0,4.543614006E0,-8.849503613E-1,3.409192189E0,5.748926575E0
3.377641458E0,2.797388075E0,-9.022019863E-2,3.747538984E0,4.677346273E0
3.387667458E0,1.278184239E0,1.016094638E0,4.263322461E0,4.565317258E0
3.397693458E0,6.342737943E-1,2.053207676E0,4.568512035E0,5.048689654E0
3.407719458E0,3.537668892E-1,3.080685089E0,5.000076896E0,5.883582293E0
3.417745458E0,1.749190908E-1,3.840621395E0,5.524156403E0,6.730324907E0
3.427771458E0,-9.413147427E-2,4.241410021E0,5.688512864E0,7.096308780E0
3.437797458E0,-4.531018373E-1,4.602797769E0,5.617493168E0,7.276488031E0
3.447823458E0,-9.630011154E-1,5.013746517E0,5.455851569E0,7.472037314E0
3.457849458E0,-1.277698043E0,5.260114270E0,5.437069727E0,7.672225338E0
3.467875458E0,-1.292688111E0,5.222091581E0,5.453732538E0,7.660579719E0
3.477901458E0,-1.426497256E0,4.981186296E0,5.161596873E0,7.313630673E0
3.487927458E0,-1.600529251E0,4.569338831E0,4.987049884E0,6.950627150E0
3.497953458E0,-1.637008275E0,4.168535587E0,4.950503617E0,6.675625146E0
3.507979458E0,-1.464568330E0,3.883628835E0,4.698127849E0,6.268966311E0
3.518005458E0,-1.266275799E0,3.919396838E0,4.282490219E0,5.941788321E0
3.528031458E0,-9.117263697E-1,4.184625955E0,3.796796513E0,5.723460764E0
3.538057458E0,-5.985106154E-1,4.618278272E0,3.062756941E0,5.573794868E0
3.548083458E0,-6.727429184E-1,4.750773840E0,2.052773228E0,5.218842117E0
3.558109458E0,-8.576969276E-1,4.339968933E0,7.238420284E-1,4.482735955E0
3.568135458E0,-9.427587126E-1,3.397400694E0,-9.633954370E-1,3.655031632E0
3.578161458E0,-1.073918045E0,1.872524620E0,-2.896163627E0,3.612120177E0
3.588188458E0,-1.657163043E0,-4.330266649E-1,-4.983900574E0,5.270006297E0
3.598214458E0,-2.187130257E0,-3.497122033E0,-7.539871148E0,8.594362001E0
3.608240458E0,-2.549557348E0,-7.167032797E0,-1.043183618E1,1.291084071E1
3.618266458E0,-2.944142078E0,-1.067237894E1,-1.215838565E1,1.644366098E1
3.628292458E0,-2.658920453E0,-1.176636492E1,-1.193365493E1,1.696848023E1
3.638318458E0,-1.459830916E0,-9.079640665E0,-9.659196800E0,1.333683110E1
3.648344458E0,-1.058084955E0,-5.017229118E0,-6.147668982E0,8.005371054E0
3.658370458E0,-8.440008482E-1,-1.671204400E0,-3.028199311E0,3.560232106E0
3.668396458E0,-1.796608172E-1,9.007565546E-1,-9.034386724E-1,1.288348483E0
3.678422458E0,-4.780003779E-1,1.853111279E0,-2.247348100E-1,1.926917618E0
3.688448458E0,-1.821263396E0,7.476717710E-1,-9.096405217E-1,2.168746023E0
3.698474458E0,-1.699899611E0,-1.338089109E0,-1.106144097E0,2.429752233E0
3.708500458E0,4.500645742E-2,-3.088109298E0,7.448095590E-1,3.176977479E0
3.718526458E0,2.399409475E0,-4.333760360E0,7.736717078E-1,5.013702484E0
3.728552458E0,4.814121405E0,-5.321174989E0,1.491807438E0,7.329130753E0
3.738578458E0,4.866435859E0,-4.867452689E0,6.222059598E0,9.278379131E0
3.748604458E0,3.630648465E0,-1.519427639E0,7.761461910E0,8.702330700E0
3.758630458E0,-3.066171715E-1,3.229169868E0,8.249593320E0,8.864386164E0
3.768656458E0,-3.481125513E0,6.641180415E0,1.037279568E1,1.279915631E1
3.778682458E0,-4.925868128E0,7.910433762E0,8.288222365E0,1.247131786E1
3.788708458E0,-7.153724535E0,6.951107987E0,4.264893608E0,1.084817932E1
3.798734458E0,-8.384271069E0,4.315822272E0,4.666756368E-1,9.441403994E0
3.808760458E0,-4.740518993E0,9.039263302E-1,-2.142992842E-1,4.830686009E0
3.818786458E0,-1.211370810E0,-1.191659626E0,2.238472904E0,2.810379484E0
3.828812458E0,1.294874239E0,-2.144573345E0,4.683758901E0,5.311637372E0
3.838838458E0,2.325030406E0,-2.206423438E0,6.267361486E0,7.039452448E0
3.848864458E0,1.884167303E0,-1.487902375E0,5.981368321E0,6.445208057E0
3.858890458E0,1.769437769E0,-9.753377903E-1,3.702721245E0,4.218096543E0
3.868916458E0,2.575004430E0,-9.361784023E-1,7.177271564E-1,2.832350630E0
3.878942458E0,2.709183119E0,-1.094640870E0,-6.578279869E-1,2.995104250E0
3.888968458E0,1.800299081E0,-1.562101788E0,4.977044713E-1,2.434943227E0
3.898994458E0,1.621347531E0,-1.707567649E0,2.172211379E0,3.203600688E0
3.909020458E0,2.051106772E0,-1.262464730E0,3.058897194E0,3.893290154E0
3.919046458E0,1.735844492E0,-2.413777399E-1,2.769892713E0,3.277762187E0
3.929072458E0,8.470635467E-1,6.105873084E-1,2.054436761E0,2.304570224E0
3.939098458E0,1.362043196E-1,1.157169240E0,1.648955745E0,2.019070904E0
3.949124458E0,-2.094499690E-1,1.659369636E0,1.517726684E0,2.258510829E0
3.959150458E0,7.041854801E-2,2.218265803E0,1.200166740E0,2.523105656E0
3.969176458E0,5.607957638E-2,2.481198134E0,-2.977150415E-1,2.499624641E0
3.979202458E0,-5.218403340E-2,2.340049857E0,-1.169866469E0,2.616704810E0
3.989228458E0,1.635073358E-2,2.088444167E0,-1.415288728E0,2.522877042E0
3.999255458E0,5.797513954E-1,1.904249273E0,-1.524381984E0,2.507193133E0
4.009281458E0,1.271060722E0,1.932423497E0,-1.231883208E0,2.620570962E0
4.019307458E0,1.489245919E0,2.025474333E0,-5.918364573E-1,2.582764037E0
4.029333458E0,1.067665179E0,1.705115327E0,-3.022163377E-1,2.034370155E0
4.039359458E0,6.690740099E-1,9.728848833E-1,-1.046169791E0,1.577541207E0
4.049385458E0,5.200258699E-2,7.867200619E-1,-1.510340335E0,1.703748999E0
4.059411458E0,-6.120653383E-1,1.066316957E0,-1.569251325E0,1.993540958E0
4.069437458E0,-6.533445612E-1,1.125234672E0,-1.236415384E0,1.794919270E0
4.079463458E0,-4.218337785E-1,9.235244429E-1,-1.017884616E0,1.437682241E0
4.089489458E0,-1.564760590E-1,5.173300660E-1,-1.705490134E0,1.789081259E0
4.099515458E0,4.387232599E-2,-1.514013702E-1,-2.873659741E0,2.877979753E0
4.109541458E0,-5.770434402E-3,-9.810896963E-1,-4.001049404E0,4.119583307E0
4.119567458E0,5.112218818E-2,-1.479232709E0,-4.830700893E0,5.052367168E0
4.129593458E0,4.806940805E-1,-1.505918232E0,-5.163186146E0,5.399754411E0
4.139619458E0,1.013199535E0,-1.412206076E0,-4.936223547E0,5.233278342E0
4.149645458E0,1.499650016E0,-1.582454191E0,-4.280302191E0,4.803550591E0
4.159671458E0,2.242831711E0,-1.944865787E0,-4.047849933E0,5.019749605E0
4.169697458E0,3.315561602E0,-2.450626552E0,-4.324570876E0,5.974983891E0
4.179723458E0,4.179636526E0,-2.958786430E0,-4.404473370E0,6.754492157E0
4.189749458E0,4.395237401E0,-3.324120464E0,-4.590811854E0,7.172408392E0
4.199775458E0,3.867598109E0,-3.477972402E0,-5.010645154E0,7.222269173E0
4.209801458E0,3.015033721E0,-3.458519885E0,-5.436393789E0,7.113801063E0
4.219827458E0,2.583282626E0,-3.527308284E0,-5.498049170E0,7.024514042E0
4.229853458E0,2.489848798E0,-4.180649849E0,-5.526608140E0,7.363462347E0
4.239879458E0,2.420403756E0,-5.105889865E0,-6.113187366E0,8.324633651E0
4.249905458E0,2.228204754E0,-5.468087452E0,-6.549204297E0,8.817990346E0
4.259931458E0,2.020935724E0,-4.855492210E0,-6.999710044E0,8.755337029E0
4.269957458E0,1.359187910E0,-4.352790123E0,-6.019489828E0,7.551717118E0
4.279984000E0,3.675080287E-1,-4.435308369E0,-3.813953998E0,5.861166060E0
4.290010000E0,2.696151868E-1,-4.968187351E0,-1.002345568E0,5.075458062E0
4.300036000E0,9.352830474E-1,-5.444576967E0,1.741026002E0,5.792179579E0
4.310062000E0,4.938554320E-1,-4.976204469E0,3.285179762E0,5.983219047E0
4.320088000E0,-8.432624911E-1,-4.674289336E0,3.440392932E0,5.864842363E0
4.330114000E0,-2.354621118E0,-5.243018766E0,1.827011647E0,6.030875388E0
4.340140000E0,-3.749507741E0,-5.909481483E0,-9.877229970E-2,6.999323943E0
4.350166000E0,-4.443341274E0,-6.143436182E0,-6.692465758E-1,7.611371807E0
4.360192000E0,-4.343758514E0,-5.701548062E0,5.750023234E-1,7.190724303E0
4.370218000E0,-3.775544516E0,-4.469368985E0,2.278409533E0,6.278626085E0
4.380245000E0,-3.114392533E0,-3.439018836E0,3.000553676E0,5.525360962E0
4.390271000E0,-3.121808264E0,-2.923757515E0,2.013844221E0,4.727537772E0
4.400297000E0,-3.785409061E0,-2.584353544E0,5.465268217E-1,4.615939402E0
4.410323000E0,-3.967587250E0,-2.621450034E0,2.599443745E0,5.419488597E0
4.420349000E0,-2.669968183E0,-2.514517908E0,4.274091571E0,5.631996907E0
4.430375000E0,-2.252450380E0,-1.613309364E0,3.879449830E0,4.767224644E0
4.440401000E0,-1.189914013E0,-5.713752955E-1,2.135485310E0,2.510510425E0
4.450427000E0,7.274860863E-1,-4.510483682E-2,2.158849029E0,2.278574024E0
4.460453000E0,2.692559485E0,7.663068473E-2,2.643347564E0,3.773994593E0
4.470479000E0,4.154221311E0,6.021404207E-2,3.317535914E0,5.316693049E0
4.480505000E0,4.227886873E0,3.399740750E-1,4.434247977E0,6.136217475E0
4.490531000E0,3.373560719E0,1.039168920E0,5.236149457E0,6.314906579E0
4.500557000E0,2.233914707E0,1.974074383E0,6.162712113E0,6.845901342E0
4.510583000E0,1.458427438E0,2.908391032E0,6.760323281E0,7.502514235E0
4.520609000E0,1.247807807E0,3.752879831E0,7.153753186E0,8.174185953E0
4.530635000E0,1.310571235E0,4.487813442E0,7.700532169E0,9.008677047E0
4.540661000E0,1.161113772E0,4.829423568E0,8.178037434E0,9.568271184E0
4.550687000E0,7.758573239E-1,5.104219315E0,8.112909976E0,9.616356778E0
4.560713000E0,2.087995394E-1,5.484978304E0,7.899890648E0,9.619607917E0
4.570739000E0,-6.493198496E-1,5.772599918E0,7.339660730E0,9.360296241E0
4.580765000E0,-1.227398832E0,5.798014841E0,6.444317527E0,8.755153476E0
4.590791000E0,-1.697410159E0,5.474108915E0,5.851665384E0,8.190791013E0
4.600817000E0,-1.622727913E0,4.968157530E0,5.441909468E0,7.545211314E0
4.610843000E0,-1.005596693E0,4.574828197E0,5.220618083E0,7.013924074E0
4.620869000E0,-3.272262678E-1,4.518742874E0,4.894419463E0,6.669441961E0
4.630895000E0,-3.553361723E-1,4.909217597E0,4.229486378E0,6.489625277E0
4.640921000E0,-7.731941365E-1,5.431369861E0,3.259575974E0,6.381413893E0
4.650947000E0,-9.852815652E-1,5.759502740E0,2.313136293E0,6.284365607E0
4.660973000E0,-9.850370054E-1,5.398833030E0,8.269220084E-1,5.549909548E0
4.670999000E0,-1.092278741E0,4.088222326E0,-1.261226290E0,4.415577696E0
4.681025000E0,-1.408038473E0,1.921945871E0,-3.749575277E0,4.442495135E0
4.691051000E0,-1.992260832E0,-1.181219423E0,-6.768856707E0,7.154145908E0
4.701077000E0,-1.926919951E0,-5.425768229E0,-1.054585806E1,1.201528624E1
4.711103000E0,-1.728598330E0,-1.009816950E1,-1.343717522E1,1.689730030E1
4.721129000E0,-2.485388249E0,-1.349592804E1,-1.411269820E1,1.968465084E1
4.731155000E0,-2.594960393E0,-1.224972734E1,-1.322162580E1,1.820991566E1
4.741181000E0,-2.747598741E0,-7.040127168E0,-9.402683542E0,1.206329753E1
4.751207000E0,-2.957619326E0,-2.146229861E0,-4.845584688E0,6.069061349E0
4.761234000E0,-1.907327832E0,1.747956122E0,-9.273225018E-1,2.748304402E0
4.771260000E0,-1.081035861E0,4.789811606E0,1.950820884E0,5.283619581E0
4.781286000E0,-1.808683988E0,6.189155561E0,2.583481431E0,6.946319935E0
4.791312000E0,-3.865535211E0,4.182900442E0,7.376920357E-1,5.743100914E0
4.801338000E0,-4.838337649E0,-1.321687084E-1,-1.094182448E0,4.962279214E0
4.811364000E0,-2.613241712E0,-4.074489555E0,4.842108518E-1,4.864664175E0
4.821390000E0,1.624506489E0,-6.628424129E0,1.827752489E0,7.065104877E0
4.831416000E0,5.745948894E0,-8.593523036E0,5.194468165E0,1.156922929E1
4.841442000E0,4.113580239E0,-9.523837266E0,9.104320593E0,1.380266902E1
4.851468000E0,2.285654671E-1,-6.894612190E0,4.489203033E0,8.230483782E0
4.861494000E0,-2.094337430E0,-1.262393979E0,3.521806639E0,4.287541234E0
4.871520000E0,-1.708724083E0,4.000816977E0,6.609905997E0,7.913098746E0
4.881546000E0,-1.217923273E0,6.935437449E0,7.950653250E0,1.062057046E1
4.891572000E0,-2.028085845E0,7.254398970E0,6.331076256E0,9.839815200E0
4.901598000E0,-2.277118321E0,5.601797487E0,3.779833156E0,7.131096803E0
4.911624000E0,6.589113298E-1,2.734691890E0,3.458890306E0,4.458320987E0
4.921650000E0,2.322663454E0,2.079790288E-1,5.260686128E0,5.754375668E0
4.931676000E0,2.693552050E0,-1.370623017E0,7.459366683E0,8.048352714E0
4.941702000E0,2.757125610E0,-1.966920315E0,6.985293149E0,7.763043058E0
4.951728000E0,2.871967264E0,-2.853447086E0,3.973755186E0,5.672837607E0
4.961754000E0,3.650121155E0,-4.324522929E0,4.503621975E-1,5.676945404E0
4.971780000E0,3.688314583E0,-4.949820077E0,-1.028098387E0,6.257904566E0
4.981806000E0,3.189296827E0,-4.547976614E0,2.902547617E-1,5.562369401E0
4.991832000E0,2.881441508E0,-3.103272883E0,2.534439372E0,4.935219415E0
5.001858000E0,2.958125110E0,-1.528422410E0,2.801896863E0,4.351689932E0
5.011884000E0,2.376223072E0,2.537867010E-2,2.720020641E0,3.611868277E0
5.021910000E0,9.014136355E-1,1.651524426E0,1.905011165E0,2.677526286E0
5.031936000E0,-3.221896955E-1,3.000823817E0,1.035173517E0,3.190663566E0
5.041962000E0,-1.269867744E0,3.913777664E0,2.951639378E-1,4.125208048E0
5.051988000E0,-2.268155709E0,4.300214299E0,-3.041277194E-1,4.871228491E0
5.062014000E0,-2.743824656E0,4.109314987E0,-4.585398209E-1,4.962388757E0
5.072040000E0,-2.219996579E0,3.427813232E0,-4.125105393E-1,4.104686749E0
5.082066000E0,-1.174612069E0,2.510527183E0,-7.739175832E-1,2.877743678E0
5.092092000E0,-2.421890045E-1,1.782281032E0,-1.266254895E0,2.199677852E0
5.102118000E0,5.201053007E-1,1.399440435E0,-9.951218444E-1,1.794215856E0
5.112144000E0,8.800002547E-1,1.272768694E0,-3.434514507E-1,1.585023500E0
5.122170000E0,1.206691283E0,1.178292307E0,-1.607329782E-1,1.694199428E0
5.132197000E0,1.337522514E0,1.198435380E0,-3.235469073E-1,1.824800383E0
5.142223000E0,1.191862963E0,1.304365293E0,-5.678881623E-1,1.855910317E0
5.152249000E0,8.158613422E-1,1.422592485E0,-1.083239384E0,1.965402420E0
5.162275000E0,3.584853730E-1,1.449933481E0,-1.458645832E0,2.087694069E0
5.172301000E0,2.831787354E-1,1.177288340E0,-1.433151387E0,1.876198531E0
5.182327000E0,6.677159210E-1,5.071705288E-1,-1.246068553E0,1.501916554E0
5.192353000E0,9.299026588E-1,-2.956416553E-1,-1.518150022E0,1.804689013E0
5.202379000E0,9.946957286E-1,-1.349584735E0,-3.006344758E0,3.442224187E0
5.212405000E0,8.489372870E-1,-1.969869066E0,-4.606037711E0,5.081009944E0
5.222431000E0,6.649740154E-1,-1.865340731E0,-5.449217902E0,5.797901537E0
5.232457000E0,4.404275953E-1,-1.579634664E0,-5.641365010E0,5.874880536E0
5.242483000E0,2.935589502E-1,-1.662696117E0,-5.268284585E0,5.532228999E0
5.252509000E0,6.106674518E-1,-1.976431396E0,-4.740335391E0,5.172037840E0
5.262535000E0,1.669907341E0,-2.442385486E0,-4.145072465E0,5.092687221E0
5.272560708E0,2.747116931E0,-2.792056584E0,-4.035676615E0,5.623959205E0
5.282586708E0,3.543080564E0,-2.848937128E0,-4.175413667E0,6.172839049E0
5.292612708E0,3.687748280E0,-2.744802895E0,-4.682032219E0,6.561619922E0
5.302638708E0,3.049952708E0,-2.665897644E0,-5.210301840E0,6.599732346E0
5.312664708E0,2.177282377E0,-2.624353176E0,-5.664835149E0,6.611969858E0
5.322690708E0,1.537554007E0,-2.721913970E0,-6.474202062E0,7.189449236E0
5.332716708E0,1.362311054E0,-3.074791680E0,-6.844409165E0,7.626019414E0
5.342742708E0,1.814185926E0,-3.915623630E0,-6.153893927E0,7.516235058E0
5.352768708E0,2.662498365E0,-4.275372988E0,-5.290187670E0,7.304368372E0
5.362794708E0,2.734977526E0,-3.820870669E0,-6.152705188E0,7.741765682E0
5.372820708E0,2.137766601E0,-3.981908251E0,-4.321377127E0,6.252994453E0
5.382846708E0,2.665127565E0,-4.866667993E0,-8.038522576E-1,5.606562293E0
5.392872708E0,3.761081720E0,-5.998356237E0,1.014300127E0,7.152259643E0
5.402898708E0,3.897311027E0,-6.447924675E0,1.689765801E0,7.721403650E0
5.412924708E0,2.480649373E0,-6.143475358E0,2.335057504E0,7.024841944E0
5.422950708E0,1.138566104E0,-5.948214608E0,3.229271024E0,6.863365148E0
5.432976708E0,-6.578293025E-2,-6.096268448E0,3.201577442E0,6.886139303E0
5.443002708E0,-1.739764027E0,-5.987096254E0,2.710680299E0,6.798521023E0
5.453028708E0,-3.539373136E0,-5.762848517E0,1.572503400E0,6.943367495E0
5.463054708E0,-4.741118040E0,-5.238254455E0,-2.643409252E-2,7.065281931E0
5.473080708E0,-4.753112726E0,-4.240582640E0,-3.290697487E-1,6.378315499E0
5.483106708E0,-4.119285952E0,-3.460568749E0,8.092242408E-1,5.440486806E0
5.493132708E0,-3.556780297E0,-3.437754668E0,1.365454663E0,5.131599135E0
5.503159708E0,-3.668333770E0,-3.510543732E0,1.087655494E0,5.192647149E0
5.513185708E0,-4.267440655E0,-3.267163906E0,3.958940388E0,6.675224245E0
5.523211708E0,-3.591564506E0,-3.233205616E0,6.418803202E0,8.034549689E0
5.533237708E0,-2.036607285E0,-2.296840103E0,3.624715003E0,4.749926583E0
5.543263708E0,-1.153344503E0,-8.111134762E-1,9.920839235E-1,1.724047310E0
5.553289708E0,4.653566511E-1,3.089545959E-1,8.731299224E-1,1.036516096E0
5.563315708E0,2.295671975E0,3.013532156E-1,3.045950581E0,3.826060444E0
5.573341708E0,3.670178567E0,2.389341885E-1,4.310363311E0,5.666262625E0
5.583367708E0,3.406765010E0,9.796717465E-1,4.898110811E0,6.046262819E0
5.593393708E0,2.758686524E0,1.835504143E0,5.214431729E0,6.178165185E0
5.603419708E0,2.300695903E0,2.485225697E0,5.804730368E0,6.720449617E0
5.613445708E0,1.733513061E0,3.254535089E0,6.584991011E0,7.547130103E0
5.623471708E0,1.264514764E0,4.016835424E0,7.065636815E0,8.225398958E0
5.633497708E0,1.082011542E0,4.602592531E0,7.666557507E0,9.007258795E0
5.643523708E0,1.265237041E0,4.763641807E0,8.490997372E0,9.817848258E0
5.653549708E0,1.344561246E0,4.850108094E0,8.542158170E0,9.914628569E0
5.663575708E0,1.011435284E0,5.041343036E0,7.790419076E0,9.334279314E0
5.673601708E0,2.438344476E-1,5.171766350E0,6.903959548E0,8.629674378E0
5.683627708E0,-7.473829186E-1,5.150386006E0,6.239422320E0,8.124989116E0
5.693653708E0,-1.741545673E0,4.912252302E0,6.298017853E0,8.174853692E0
5.703679708E0,-2.350671324E0,4.649942699E0,6.549346384E0,8.369083632E0
5.713705708E0,-2.040504308E0,4.569171601E0,6.004602233E0,7.816408058E0
5.723731708E0,-9.039339316E-1,4.672035234E0,5.192544431E0,7.043261137E0
5.733757708E0,-2.047037110E-2,4.666492658E0,4.268362176E0,6.324198640E0
5.743783708E0,2.303621703E-1,4.705315831E0,3.260227938E0,5.729061879E0
5.753809708E0,1.091270243E-1,4.954558661E0,2.448412212E0,5.527592839E0
5.763835708E0,-2.642065854E-1,4.960883594E0,1.447305742E0,5.174443455E0
5.773861708E0,-4.767536053E-1,4.302288306E0,-1.335737944E-2,4.328643793E0
5.783887708E0,-5.997920327E-1,2.807726537E0,-1.600407775E0,3.287002257E0
5.793913708E0,-1.225253050E0,4.166725874E-1,-4.251074299E0,4.443702710E0
5.803939708E0,-2.886171320E0,-3.193882506E0,-8.183626787E0,9.246762555E0
5.813965708E0,-4.307048817E0,-8.115577476E0,-1.132495510E1,1.458313668E1
5.823991708E0,-4.077862229E0,-1.265816588E1,-1.309955933E1,1.866699168E1
5.834017708E0,-2.637191615E0,-1.373217894E1,-1.289348240E1,1.902023676E1
5.844044708E0,-1.676299956E0,-9.924458077E0,-1.147525193E1,1.526388734E1
5.854070708E0,-2.630044856E0,-4.980951823E0,-8.275056775E0,1.001017391E1
5.864096708E0,-3.441229668E0,-1.212527170E0,-4.692253444E0,5.943864580E0
5.874122708E0,-3.244958519E0,1.805723689E0,-1.225664401E0,3.910581422E0
5.884148708E0,-3.278714495E0,3.344837149E0,4.483411074E-1,4.705200744E0
5.894174708E0,-5.497804756E0,1.713522454E0,-8.839370388E-1,5.826093119E0
5.904200708E0,-6.843018113E0,-1.938628562E0,-1.969106881E0,7.379875304E0
5.914226708E0,-4.924444331E0,-4.814321380E0,-1.723772623E0,7.099241817E0
5.924252708E0,1.551242047E0,-4.934815537E0,3.509448841E0,6.250998916E0
5.934278708E0,7.570489508E0,-3.570170129E0,1.527408036E1,1.741711678E1
5.944304708E0,6.098930100E0,-2.070485614E0,1.534604087E1,1.664286121E1
5.954330708E0,3.302154229E0,1.752708739E-1,7.853469602E0,8.521263241E0
5.964356708E0,1.121173342E0,2.138911486E0,4.685629426E0,5.271346614E0
5.974382708E0,-6.487019451E-1,3.413657708E0,2.360795778E0,4.200860610E0
5.984408708E0,-1.450611758E0,3.174942205E0,1.734866838E0,3.897986072E0
5.994434708E0,-9.630405110E-1,1.613359065E0,3.746778846E0,4.191506438E0
6.004460708E0,6.337951997E-1,-2.380424881E-1,6.063441010E0,6.101121000E0
6.014486708E0,1.421796971E0,-1.246893010E0,7.233639600E0,7.476750007E0
6.024512708E0,1.331024503E0,-1.685860446E0,6.567162266E0,6.909513145E0
6.034538708E0,9.338793502E-1,-1.931359304E0,4.557345900E0,5.037030976E0
6.044564708E0,6.294436287E-1,-2.112703680E0,2.709180780E0,3.492760602E0
6.054590708E0,6.013044150E-1,-2.309958331E0,2.574312412E0,3.510635112E0
6.064616708E0,1.317884640E0,-2.480170194E0,3.128722596E0,4.204398792E0
6.074642708E0,2.051430708E0,-2.426254773E0,3.055506978E0,4.408083831E0
6.084668708E0,2.149978218E0,-2.210603027E0,2.189900522E0,3.782173499E0
6.094694708E0,1.785219404E0,-1.610648881E0,2.270737986E0,3.307181449E0
6.104720708E0,1.444575677E0,-6.440199333E-1,2.616616141E0,3.057489262E0
6.114746708E0,6.758795111E-1,5.819628489E-1,1.874714402E0,2.076065500E0
6.124772708E0,-2.932585130E-1,1.840917495E0,1.061339808E0,2.145092065E0
6.134798708E0,-8.700626193E-1,2.945985121E0,6.805410576E-1,3.146263406E0
6.144824708E0,-9.961110471E-1,3.748695563E0,1.381579749E-1,3.881242490E0
6.154850708E0,-8.143961761E-1,4.034706854E0,-3.656041753E-1,4.132283502E0
6.164876708E0,-2.242891791E-1,3.660489730E0,-9.665646279E-1,3.792589865E0
6.174902708E0,3.504282753E-1,2.896126497E0,-1.814000423E0,3.435250529E0
6.184928708E0,7.688086516E-1,2.096156060E0,-2.311262845E0,3.213545224E0
6.194954708E0,1.342825208E0,1.541381010E0,-2.084263993E0,2.919450522E0
6.204980708E0,1.938359883E0,1.126647359E0,-1.118250757E0,2.505405768E0
6.215007708E0,2.265758936E0,8.474580145E-1,-8.203269339E-1,2.554365854E0
6.225033708E0,2.108655507E0,9.124176568E-1,-1.200736259E0,2.592431598E0
6.235059708E0,1.374110296E0,1.315940441E0,-1.426930534E0,2.378236553E0
6.245085708E0,4.915364994E-1,1.692702858E0,-1.375345228E0,2.235715902E0
6.255111708E0,-1.352820219E-1,1.923959067E0,-1.260356809E0,2.304000652E0
6.265137708E0,-2.229022926E-1,1.682970167E0,-1.205184967E0,2.081956969E0
6.275164125E0,5.687827863E-2,9.372542900E-1,-1.598055148E0,1.853499662E0
6.285190125E0,7.402550348E-2,2.020797729E-1,-2.068294224E0,2.079460749E0
6.295216125E0,2.447190217E-1,-4.460273641E-1,-2.983556989E0,3.026621899E0
6.305242125E0,6.523321889E-1,-9.396639276E-1,-3.935156546E0,4.098043756E0
6.315268125E0,9.623160410E-1,-8.799433905E-1,-4.789226300E0,4.963571404E0
6.325294125E0,9.188878933E-1,-6.559301269E-1,-4.918153312E0,5.046070876E0
6.335320125E0,5.681324297E-1,-1.018414813E0,-4.098414608E0,4.261096747E0
6.345346125E0,6.239909539E-1,-1.676960399E0,-3.586373348E0,4.007946442E0
6.355372125E0,1.360961078E0,-2.276816313E0,-3.643510001E0,4.506802936E0
6.365398125E0,2.352917386E0,-2.870242043E0,-3.414084554E0,5.042864558E0
6.375424125E0,3.200615867E0,-3.369481409E0,-3.393509664E0,5.754411763E0
6.385450125E0,3.532068502E0,-3.506106280E0,-3.853047020E0,6.293986057E0
6.395476125E0,3.004014350E0,-3.204242603E0,-4.444908328E0,6.248878533E0
6.405502125E0,1.981125833E0,-3.088235013E0,-5.359653761E0,6.495224669E0
6.415528125E0,1.032260654E0,-3.226081368E0,-6.614773219E0,7.431580437E0
6.425554125E0,7.287604138E-1,-4.213129962E0,-6.754574883E0,7.994112688E0
6.435580125E0,8.037315126E-1,-5.333974544E0,-6.445130875E0,8.404580940E0
6.445606125E0,9.094980689E-1,-5.385582654E0,-6.497044210E0,8.487830743E0
6.455632125E0,1.004361322E0,-4.660146675E0,-7.104013261E0,8.555273994E0
6.465658125E0,1.581924141E0,-4.187426187E0,-6.989396140E0,8.299920509E0
6.475684125E0,2.196362718E0,-4.516070697E0,-5.324994391E0,7.319458244E0
6.485710125E0,2.642177829E0,-5.080409453E0,-1.660447862E0,5.962277333E0
6.495736125E0,3.750194789E0,-5.619161963E0,2.030678355E0,7.054260890E0
6.505762125E0,3.674495566E0,-5.368440372E0,4.267368734E0,7.780263852E0
6.515788125E0,2.211176639E0,-5.186765628E0,4.765058588E0,7.382250548E0
6.525814125E0,6.891809034E-1,-5.532193401E0,3.584923239E0,6.628107480E0
6.535840125E0,-7.797889186E-1,-5.730818054E0,2.560288743E0,6.324984172E0
6.545866125E0,-2.384771847E0,-5.589781458E0,1.698364717E0,6.310090033E0
6.555893125E0,-3.864911021E0,-5.102588527E0,6.465209337E-1,6.433656518E0
6.565919125E0,-4.477895395E0,-4.257566462E0,7.155670488E-1,6.220165235E0
6.575945125E0,-4.627305788E0,-3.519702811E0,1.293202958E0,5.955891254E0
6.585971125E0,-4.184829146E0,-3.121959414E0,8.962854812E-1,5.297428926E0
6.595997125E0,-2.913990034E0,-3.543462971E0,-3.978963009E-1,4.604974399E0
6.606023125E0,-3.524799829E0,-3.725666889E0,2.015909165E0,5.510780104E0
6.616049125E0,-3.325921114E0,-3.172260672E0,4.978291340E0,6.775571835E0
6.626075125E0,-2.685340220E0,-2.182496631E0,4.440277041E0,5.629423047E0
6.636101125E0,-1.857725463E0,-9.404714280E-1,2.740589684E0,3.441869001E0
6.646127125E0,-1.745597977E-1,-1.473381400E-2,2.520982882E0,2.527062108E0
6.656153125E0,1.943353989E0,4.613780594E-1,2.676779312E0,3.339856573E0
6.666179125E0,3.250378011E0,9.183128196E-1,2.729535230E0,4.342651059E0
6.676205125E0,3.791141671E0,1.260521116E0,3.898637468E0,5.582207696E0
6.686231125E0,3.390016830E0,1.676897834E0,5.383622668E0,6.579330778E0
6.696257125E0,2.383423479E0,2.432859787E0,6.203335644E0,7.076785099E0
6.706283125E0,2.264843846E0,3.176395238E0,7.251787019E0,8.234526053E0
6.716309125E0,2.326701687E0,3.791958527E0,7.846260570E0,9.019772455E0
6.726335125E0,1.643134695E0,4.410855314E0,8.009963897E0,9.290589748E0
6.736361125E0,1.503076777E0,4.904308274E0,8.291196844E0,9.749637150E0
6.746387125E0,1.489442094E0,5.428832754E0,8.515710045E0,1.020823101E1
6.756413125E0,9.858244792E-1,5.895088561E0,8.259771568E0,1.019547671E1
6.766439125E0,1.950210142E-1,6.186071740E0,7.637983333E0,9.830783599E0
6.776465125E0,-5.135353692E-1,6.194197615E0,6.791115888E0,9.206033765E0
6.786491125E0,-1.128476514E0,5.713766404E0,5.913302053E0,8.299863067E0
6.796517125E0,-1.061784634E0,5.015046937E0,5.359270184E0,7.416189001E0
6.806543125E0,-2.939738832E-1,4.675854635E0,5.277321457E0,7.056922769E0
6.816569125E0,1.026801766E-1,4.691308241E0,5.025477785E0,6.875634022E0
6.826595125E0,-1.315068036E-1,4.940428864E0,4.275865324E0,6.535147716E0
6.836621125E0,-5.089290789E-1,5.272769984E0,3.095484391E0,6.135400209E0
6.846647125E0,-6.473383744E-1,5.195538206E0,1.740762000E0,5.517509996E0
6.856673125E0,-6.637845455E-1,4.362474282E0,1.261843756E-1,4.414489130E0
6.866699125E0,-7.576841046E-1,2.698536217E0,-1.787771568E0,3.324501480E0
6.876725125E0,-1.073842763E0,4.554478133E-1,-3.886462688E0,4.057728825E0
6.886751125E0,-2.038221847E0,-2.409602487E0,-7.228311033E0,7.887269035E0
6.896778125E0,-3.111317774E0,-6.324143797E0,-1.119999660E1,1.323310307E1
6.906804125E0,-4.097925196E0,-1.131962244E1,-1.426168642E1,1.866340116E1
6.916830125E0,-4.828495615E0,-1.409934783E1,-1.428309191E1,2.064249727E1
6.926856125E0,-3.923419138E0,-1.150943242E1,-1.204913744E1,1.711846855E1
6.936882125E0,-2.661502876E0,-5.835701315E0,-7.801684906E0,1.009976707E1
6.946908125E0,-1.963900228E0,-1.369357095E0,-3.316374657E0,4.090279187E0
6.956934125E0,-1.264706260E0,1.920054882E0,-2.678931087E-1,2.314705033E0
6.966960125E0,-1.421798579E0,3.476901192E0,5.128049058E-1,3.791216424E0
6.976986125E0,-3.675516197E0,1.221610819E0,-9.403498060E-1,3.985725789E0
6.987012125E0,-4.519496873E0,-2.882878461E0,-1.535825863E0,5.576343003E0
6.997038125E0,-2.971632178E0,-5.973918384E0,-3.009784675E0,7.319638136E0
7.007064125E0,1.013066511E0,-8.700608944E0,-6.139617950E0,1.069681300E1
7.017090125E0,7.377810304E0,-9.750203449E0,3.362603329E0,1.268091690E1
7.027116125E0,8.792528928E0,-5.902578844E0,1.900716502E1,2.175824727E1
7.037142125E0,5.386897693E0,6.713778859E-1,1.694229566E1,1.779075033E1
7.047168125E0,6.679943946E-1,5.825341219E0,1.154555769E1,1.294915901E1
7.057194125E0,-2.067934912E0,7.954462126E0,5.770767401E0,1.004248868E1
7.067220125E0,-4.963852226E0,7.833767994E0,8.734570742E-2,9.274447648E0
7.077246125E0,-5.465890068E0,5.962171912E0,-6.163240117E-1,8.111923535E0
7.087272125E0,-1.199392423E0,1.978533470E0,3.838198308E0,4.481618361E0
7.097298125E0,1.481617934E0,-1.681650451E0,7.671659203E0,7.992339761E0
7.107324125E0,2.420696409E0,-3.111512779E0,8.771035148E0,9.616253972E0
7.117350125E0,2.462607497E0,-3.316906754E0,6.512129441E0,7.711947611E0
7.127376125E0,1.960402424E0,-3.029131358E0,2.144423364E0,4.197304612E0
7.137402125E0,2.359600315E0,-3.032875330E0,2.735561371E-1,3.852386192E0
7.147428125E0,2.538844664E0,-3.311275885E0,1.747160901E0,4.523588336E0
7.157454125E0,2.805473897E0,-3.581407308E0,3.171965972E0,5.546037344E0
7.167480125E0,3.882909920E0,-3.412692917E0,3.196695017E0,6.078019531E0
7.177506125E0,4.239061486E0,-2.409315974E0,3.165083799E0,5.813105986E0
7.187532125E0,3.689563548E0,-1.149705269E0,3.491394686E0,5.208122333E0
7.197558125E0,2.424889155E0,6.044722903E-1,2.409839884E0,3.471714624E0
7.207584125E0,9.806309822E-1,2.287324344E0,8.690752438E-1,2.636054164E0
7.217610125E0,2.026590858E-1,3.345886724E0,7.936671388E-1,3.444696823E0
7.227636125E0,-4.192418540E-1,3.948034161E0,1.263844088E0,4.166538053E0
7.237663125E0,-9.516722082E-1,4.203965036E0,2.258487046E-1,4.316249489E0
7.247689125E0,-1.418304868E0,3.859692088E0,-1.447535537E0,4.359377346E0
7.257715125E0,-1.322152377E0,2.956714177E0,-2.280694771E0,3.961289470E0
7.267741125E0,-8.913274808E-1,2.062723435E0,-2.344742832E0,3.247631690E0
7.277767083E0,-1.676855734E-1,1.461986346E0,-1.806290284E0,2.329851308E0
7.287793083E0,4.710875072E-1,1.329098430E0,-1.160680493E0,1.826363952E0
7.297819083E0,8.458082226E-1,1.174060677E0,-7.875562137E-1,1.647438864E0
7.307845083E0,7.054531930E-1,9.533727247E-1,-9.102050704E-1,1.495010712E0
7.317871083E0,2.417272572E-1,9.459333122E-1,-1.403914139E0,1.710028306E0
7.327897083E0,-2.969819468E-1,1.387347223E0,-1.948299857E0,2.410145831E0
7.337923083E0,-6.428930287E-1,1.653727072E0,-1.715973168E0,2.468337212E0
7.347949083E0,-4.672833817E-1,1.474928573E0,-9.421478248E-1,1.811466417E0
7.357975083E0,2.752436801E-1,9.164703619E-1,-1.039358224E0,1.412778300E0
7.368001083E0,1.240589127E0,3.377468705E-2,-1.984963068E0,2.340999892E0
7.378027083E0,1.631124368E0,-6.580088121E-1,-2.984802446E0,3.464475133E0
7.388053083E0,1.473771848E0,-1.023207775E0,-3.840661740E0,4.239061242E0
7.398079083E0,1.129055535E0,-1.202643036E0,-4.803588815E0,5.078935142E0
7.408105083E0,7.165754011E-1,-1.514767408E0,-5.592243721E0,5.837909766E0
7.418131083E0,5.471309122E-1,-1.947582403E0,-5.278259935E0,5.652650475E0
7.428157083E0,1.077644111E0,-2.446052860E0,-4.203320088E0,4.981203789E0
7.438183083E0,2.347335488E0,-2.965196148E0,-3.339676981E0,5.045375548E0
7.448209083E0,3.391137449E0,-3.241764770E0,-3.190400489E0,5.673403502E0
7.458235083E0,4.036709233E0,-3.478534319E0,-3.776162859E0,6.531051093E0
7.468261083E0,4.071699849E0,-3.635981711E0,-4.451960947E0,7.044079708E0
7.478287083E0,3.446081688E0,-3.575859470E0,-4.877295308E0,6.960622060E0
7.488313083E0,2.623095733E0,-3.747059512E0,-5.584943472E0,7.218911261E0
7.498339083E0,2.241910336E0,-4.245632880E0,-6.171596957E0,7.819217960E0
7.508365083E0,2.215897827E0,-4.987973744E0,-6.041808650E0,8.142084317E0
7.518391083E0,1.950195816E0,-5.253243207E0,-6.112811390E0,8.292544303E0
7.528417083E0,1.625272036E0,-4.604006973E0,-6.782374300E0,8.356972571E0
7.538443083E0,1.025787640E0,-3.827393823E0,-6.808258755E0,7.877408903E0
7.548469083E0,1.084530230E0,-3.765252539E0,-4.199625818E0,5.743708689E0
7.558496083E0,1.546053227E0,-4.635594801E0,-1.383527237E0,5.078697408E0
7.568521083E0,2.359112218E0,-5.819009854E0,1.001245049E0,6.358362823E0
7.578548083E0,2.387590205E0,-5.289773102E0,3.634932135E0,6.847993727E0
7.588574083E0,1.247030420E0,-4.401754122E0,4.297332791E0,6.276750221E0
7.598600083E0,-8.778841473E-2,-4.412002537E0,3.616045629E0,5.705195806E0
7.608626083E0,-1.627953423E0,-4.974821017E0,2.590375006E0,5.840301291E0
7.618652083E0,-3.528330962E0,-5.350495268E0,1.446112325E0,6.570248081E0
7.628678083E0,-4.804417951E0,-5.452002347E0,3.822839427E-1,7.276874497E0
7.638704083E0,-5.253054342E0,-5.059248379E0,2.341798174E-1,7.296945544E0
7.648730083E0,-4.891284771E0,-4.169951198E0,1.262212715E0,6.550293172E0
7.658756083E0,-3.841130979E0,-3.696890987E0,2.099697280E0,5.729748584E0
7.668782083E0,-4.071108111E0,-3.636420252E0,2.889510958E0,6.176305293E0
7.678808083E0,-4.489087258E0,-3.284691519E0,3.899463387E0,6.793152250E0
7.688834083E0,-3.136927117E0,-2.347713802E0,3.953846001E0,5.566414469E0
7.698860083E0,-1.522756312E0,-1.272031360E0,2.876306190E0,3.494279306E0
7.708886083E0,-6.060199021E-1,-1.935404992E-1,1.756364418E0,1.868029447E0
7.718912083E0,6.181598912E-1,1.285329098E-1,3.020571911E0,3.085854344E0
7.728938083E0,2.332878832E0,1.416704339E-1,3.672236786E0,4.352897560E0
7.738964083E0,4.159958307E0,3.121138465E-1,3.066133708E0,5.177242903E0
7.748990083E0,4.499426597E0,5.236748797E-1,3.297615620E0,5.602976340E0
7.759016083E0,3.592808794E0,1.130569087E0,4.334034010E0,5.741978081E0
7.769042083E0,2.702695341E0,1.792929397E0,5.768739586E0,6.617969050E0
7.779068083E0,2.030807578E0,2.736686375E0,6.791284872E0,7.598367058E0
7.789094083E0,1.389878044E0,3.614823561E0,7.515395873E0,8.454577782E0
7.799120083E0,1.144753262E0,4.271324376E0,8.044077723E0,9.179425819E0
7.809146083E0,9.342238243E-1,4.841540753E0,8.428648512E0,9.765009306E0
7.819172083E0,7.377383749E-1,5.468350577E0,8.612921759E0,1.022885806E1
7.829198083E0,3.646051785E-1,6.011802494E0,8.266304662E0,1.022773186E1
7.839224083E0,-3.729542716E-1,6.218604478E0,7.640810462E0,9.858606446E0
7.849250083E0,-1.137045170E0,6.019449483E0,6.917292954E0,9.239890995E0
7.859276083E0,-1.634130275E0,5.323775831E0,6.019994443E0,8.200811176E0
7.869302083E0,-1.196538835E0,4.609382318E0,5.604863766E0,7.354767731E0
7.879328083E0,-1.937682483E-1,4.261575898E0,5.405187199E0,6.885827759E0
7.889355083E0,3.858639005E-1,4.425487971E0,4.818737197E0,6.553934917E0
7.899381083E0,1.434418479E-1,4.963172779E0,4.024524513E0,6.391436236E0
7.909407083E0,-3.668119177E-1,5.621742924E0,3.104632360E0,6.432517903E0
7.919433083E0,-5.066132891E-1,6.007008947E0,2.195890263E0,6.415820100E0
7.929459083E0,-6.981230503E-1,5.587126822E0,8.592486325E-1,5.695758961E0
7.939485083E0,-9.796885572E-1,4.021733637E0,-1.173910403E0,4.302580243E0
7.949511083E0,-1.194788471E0,1.668287224E0,-3.724514403E0,4.252376899E0
7.959537083E0,-1.536162955E0,-1.608052132E0,-6.685816305E0,7.045975301E0
7.969563083E0,-1.989556349E0,-6.051860599E0,-1.031902936E1,1.212706552E1
7.979589083E0,-2.078843478E0,-1.172490465E1,-1.415020341E1,1.849387022E1
7.989615083E0,-2.908976923E0,-1.659443077E1,-1.568076239E1,2.301572481E1
7.999641083E0,-3.561427372E0,-1.497286806E1,-1.475617843E1,2.132171064E1
8.009667083E0,-2.984417992E0,-8.094717534E0,-1.010366588E1,1.328590482E1
8.019693083E0,-3.066410866E0,-2.660955577E0,-4.487040440E0,6.051205838E0
8.029719083E0,-2.497376795E0,1.275751943E0,2.763323951E-1,2.817941353E0
8.039745083E0,-2.120647561E0,4.158371957E0,2.450315480E0,5.271930326E0
8.049771083E0,-3.649912994E0,3.971621829E0,1.401274121E0,5.573079399E0
8.059797083E0,-5.085302403E0,9.064675301E-1,6.251015595E-1,5.203146728E0
8.069823083E0,-4.088548601E0,-1.977173992E0,9.853488082E-1,4.647188282E0
8.079849083E0,-8.065318903E-1,-4.033808137E0,4.242915094E-2,4.113867039E0
8.089875083E0,4.104147510E0,-6.191180452E0,2.586480761E0,7.865406849E0
8.099901083E0,6.185870596E0,-7.702456487E0,1.063232434E1,1.451341283E1
8.109927083E0,3.808387156E0,-5.969703126E0,9.377790191E0,1.175091984E1
8.119953083E0,9.576723285E-1,-9.373174399E-1,6.150269238E0,6.294562096E0
8.129979083E0,-1.414481812E0,4.222949191E0,7.472118291E0,8.698655667E0
8.140005083E0,-2.491430469E0,6.901422442E0,4.606389129E0,8.663468030E0
8.150031083E0,-2.816974493E0,7.152341668E0,4.371376668E0,8.843091688E0
8.160057083E0,-2.335515195E0,5.602237782E0,4.873322124E0,7.783891567E0
8.170083083E0,-2.199583657E-1,2.384837190E0,5.286655367E0,5.803839684E0
8.180109083E0,1.124945235E0,-7.347342217E-1,5.407544796E0,5.571972441E0
8.190135083E0,1.654104218E0,-2.580852231E0,6.847740909E0,7.502560533E0
8.200161083E0,9.995104721E-1,-2.893919173E0,6.674839911E0,7.343519402E0
8.210188083E0,1.058026263E0,-3.354296774E0,4.032749206E0,5.351055278E0
8.220214083E0,2.541474157E0,-4.759020753E0,2.020003385E0,5.760883881E0
8.230240083E0,4.265737069E0,-5.826915289E0,1.427469940E0,7.361190458E0
8.240266083E0,4.783411536E0,-5.295398709E0,1.720950026E0,7.340568261E0
8.250292083E0,3.481312624E0,-3.581145937E0,2.825053006E0,5.738036973E0
8.260318083E0,2.479786032E0,-1.863647377E0,4.140962749E0,5.173982296E0
8.270344083E0,2.277181471E0,1.368213379E-1,4.503709098E0,5.048531586E0
8.280369958E0,1.523269844E0,2.190841193E0,2.807244726E0,3.873081345E0
8.290395958E0,3.425023745E-1,3.818117216E0,9.525943872E-1,3.950033293E0
8.300421958E0,-9.333005489E-1,4.554139579E0,4.447403920E-1,4.670014051E0
8.310447958E0,-1.595815372E0,4.666444711E0,1.199377220E-2,4.931782314E0
8.320473958E0,-1.740789921E0,4.274761369E0,-6.589624929E-1,4.662420603E0
8.330499958E0,-1.333639524E0,3.334267137E0,-1.473753283E0,3.881736784E0
8.340525958E0,-7.704365896E-1,2.255210266E0,-2.388589933E0,3.374152894E0
8.350551958E0,3.244365977E-2,1.455042778E0,-2.527132691E0,2.916265028E0
8.360577958E0,8.829829194E-1,1.027678556E0,-1.477716526E0,2.004851162E0
8.370603958E0,1.582539122E0,8.719327050E-1,-1.150926753E0,2.142271950E0
8.380629958E0,1.547579351E0,8.433252025E-1,-1.463344654E0,2.290759006E0
8.390655958E0,8.989819247E-1,1.154974780E0,-1.352265683E0,1.992676020E0
8.400681958E0,1.107645553E-1,1.677931622E0,-7.657618868E-1,1.847732281E0
8.410707958E0,-5.452596570E-1,1.952103471E0,-5.838918453E-1,2.109252413E0
8.420733958E0,-6.441848979E-1,2.028330113E0,-1.301120819E0,2.494396242E0
8.430759958E0,-2.363338951E-1,1.640238715E0,-2.125627343E0,2.695278901E0
8.440785958E0,4.393561296E-1,6.548536545E-1,-2.518019806E0,2.638615330E0
8.450811958E0,1.056622859E0,-2.442042840E-1,-2.738682030E0,2.945584298E0
8.460837958E0,1.837385339E0,-7.647538269E-1,-3.273219574E0,3.830770116E0
8.470863958E0,2.473218732E0,-7.788233972E-1,-3.873725991E0,4.661451472E0
8.480889958E0,2.323587460E0,-6.406384885E-1,-4.298589358E0,4.928219437E0
8.490915958E0,1.472104222E0,-8.995315629E-1,-4.212571845E0,4.552143388E0
8.500941958E0,5.816430062E-1,-1.427331069E0,-3.776939954E0,4.079320774E0
8.510967958E0,1.873535238E-1,-2.004843602E0,-3.458823355E0,4.002244147E0
8.520994958E0,6.735383590E-1,-2.590891900E0,-3.443498973E0,4.361657934E0
8.531020958E0,1.787487247E0,-2.896728176E0,-3.598320964E0,4.953186706E0
8.541046958E0,2.932113771E0,-3.313724699E0,-3.890266302E0,5.891708958E0
8.551072958E0,3.618371359E0,-3.691561249E0,-3.796450943E0,6.413522863E0
8.561098958E0,3.629065332E0,-3.646014363E0,-3.861591849E0,6.432373397E0
8.571124958E0,3.136540616E0,-3.768436933E0,-4.397433030E0,6.586077832E0
8.581150958E0,2.242707603E0,-4.170703735E0,-5.443659539E0,7.215118586E0
8.591176958E0,1.633932493E0,-4.754681534E0,-6.751874639E0,8.418108043E0
8.601202958E0,1.604964948E0,-5.025554384E0,-7.958867419E0,9.548595705E0
8.611228958E0,2.141800887E0,-4.513772156E0,-8.373336775E0,9.750600949E0
8.621254958E0,2.151943175E0,-3.594138451E0,-9.570236676E0,1.044691920E1
8.631280958E0,3.950711090E-1,-2.817800120E0,-9.819056168E0,1.022301045E1
8.641306958E0,-1.259301971E0,-2.740623890E0,-6.684010100E0,7.332997462E0
8.651332958E0,-8.953318003E-1,-3.947581587E0,-1.323597955E0,4.258747581E0
8.661358958E0,9.907427184E-1,-5.007240905E0,3.313986070E0,6.085765053E0
8.671384958E0,2.070004096E0,-4.620347017E0,5.971478341E0,7.828861800E0
8.681410958E0,1.327679750E0,-4.621508274E0,5.814691100E0,7.545310122E0
8.691436958E0,1.346667121E-1,-5.509184607E0,3.968581277E0,6.791088831E0
8.701462958E0,-1.153491049E0,-6.456121302E0,1.918480811E0,6.833199286E0
8.711488958E0,-2.528920185E0,-6.586109583E0,5.080119431E-1,7.073213759E0
8.721514958E0,-3.482890495E0,-5.875612655E0,5.809957194E-1,6.854991342E0
8.731540958E0,-3.709363098E0,-4.601911331E0,1.972904356E0,6.231317203E0
8.741566958E0,-3.911439070E0,-3.649202850E0,3.074343783E0,6.169896817E0
8.751592958E0,-3.379219069E0,-3.165481995E0,2.976363452E0,5.504374367E0
8.761618958E0,-2.008191425E0,-3.413858852E0,3.045192782E0,4.996044850E0
8.771644958E0,-9.282685082E-1,-3.377385675E0,2.775602519E0,4.469047523E0
8.781670958E0,-1.006765843E0,-2.642913993E0,3.031367041E0,4.145812101E0
8.791696958E0,-1.168848907E0,-1.386691166E0,1.842643594E0,2.585431409E0
8.801722958E0,-8.225603510E-1,-4.559395641E-1,1.950605122E0,2.165489958E0
8.811748958E0,8.019777864E-1,-5.827966619E-1,3.778223125E0,3.906122157E0
8.821774958E0,1.669065635E0,-5.639189261E-1,4.709172655E0,5.027931159E0
8.831801958E0,1.916867857E0,1.103322816E-1,4.299007726E0,4.708293005E0
8.841827958E0,2.154835062E0,8.916869384E-1,4.494557621E0,5.063543023E0
8.851853958E0,1.882697021E0,1.772538401E0,5.726833761E0,6.283555155E0
8.861879958E0,1.673732444E0,2.642429844E0,6.648129830E0,7.347206681E0
8.871905958E0,1.326389123E0,3.567333645E0,7.172325697E0,8.119571007E0
8.881931958E0,1.164698554E0,4.232745616E0,7.840902182E0,8.986234206E0
8.891957958E0,1.097974660E0,4.537714165E0,8.570598443E0,9.759690357E0
8.901983958E0,9.934757070E-1,4.926228901E0,8.578279345E0,9.941911370E0
8.912009958E0,5.217530461E-1,5.655230513E0,7.983322229E0,9.797310457E0
8.922035958E0,3.412744957E-1,6.176794547E0,7.463136967E0,9.693692411E0
8.932061958E0,-1.174419111E-1,6.376229040E0,6.761535993E0,9.294539169E0
8.942087958E0,-7.627624114E-1,6.306840717E0,6.012653849E0,8.747002494E0
8.952113958E0,-1.373131619E0,5.759641904E0,5.326090159E0,7.964056861E0
8.962139958E0,-1.361966068E0,5.150620480E0,4.843695452E0,7.200363083E0
8.972165958E0,-8.439172330E-1,4.708456371E0,4.717979731E0,6.718711962E0
8.982191958E0,-5.871648243E-1,4.431843309E0,4.250432274E0,6.168644273E0
8.992217958E0,-5.440935029E-1,4.402975021E0,3.166148285E0,5.450387302E0
9.002243958E0,-4.232545057E-1,4.477732843E0,1.708970397E0,4.811425527E0
9.012269958E0,-4.220295140E-1,4.232706440E0,-4.858071417E-2,4.253971416E0
9.022295958E0,-5.342412369E-1,3.486565470E0,-2.265444063E0,4.192110361E0
9.032321958E0,-8.627084300E-1,1.916196889E0,-4.193068165E0,4.690191573E0
9.042347958E0,-1.452581392E0,-5.061209536E-1,-5.844173931E0,6.043221000E0
9.052373958E0,-2.336483640E0,-3.978815659E0,-7.653973129E0,8.937193884E0
9.062399958E0,-3.051562739E0,-7.929847687E0,-9.769461839E0,1.294746709E1
9.072425958E0,-3.476995332E0,-1.105870097E1,-1.115387961E1,1.608705672E1
9.082451958E0,-3.378106052E0,-1.145237178E1,-1.172530460E1,1.673472999E1
9.092477958E0,-2.011600790E0,-7.967111408E0,-1.075821723E1,1.353737936E1
9.102503958E0,-1.428544220E0,-3.779727906E0,-7.105732927E0,8.174259726E0
9.112529958E0,-1.232909979E0,-3.436917347E-1,-3.410734100E0,3.642979292E0
9.122555958E0,-9.732250451E-1,2.892311774E0,-1.240418388E0,3.294126920E0
9.132581958E0,-1.150138109E0,5.194827769E0,-2.256972617E-1,5.325410076E0
9.142608958E0,-3.156680181E0,4.677854383E0,-6.125192285E-1,5.676454104E0
9.152634958E0,-5.313061978E0,7.983203530E-1,-2.220481313E0,5.813474024E0
9.162660958E0,-5.035527980E0,-3.575103425E0,-1.989249077E0,6.488067387E0
9.172686958E0,-2.825460850E0,-6.531035244E0,1.174232585E0,7.212244625E0
9.182712958E0,1.507915933E0,-7.848722248E0,8.383965259E0,1.158305335E1
9.192738958E0,2.943578407E0,-7.415517243E0,1.539762968E1,1.734190156E1
9.202764958E0,-9.695882231E-2,-4.871556850E0,1.102549814E1,1.205417257E1
9.212790958E0,-2.093315629E0,-8.506482553E-1,5.365962322E0,5.822295460E0
9.222816958E0,-2.773063658E0,2.474029448E0,1.639860108E0,4.062000115E0
9.232842958E0,-2.133148031E0,4.408719910E0,3.680483699E0,6.126425714E0
9.242868958E0,-4.835219036E-1,5.300855915E0,5.360984003E0,7.554668513E0
9.252894958E0,1.775690197E0,4.246881845E0,4.885735179E0,6.712636540E0
9.262920958E0,3.276667970E0,1.838906638E0,5.824085237E0,6.930952276E0
9.272946958E0,3.409134302E0,-1.353110021E-1,8.130437590E0,8.817285362E0
9.282973208E0,1.977513423E0,-1.445823473E0,8.278657490E0,8.633489138E0
9.292999208E0,5.729707083E-1,-2.329052414E0,5.131269704E0,5.664160075E0
9.303025208E0,1.188384016E0,-3.330073514E0,8.304820856E-1,3.631989355E0
9.313051208E0,2.057542217E0,-4.575405902E0,2.766330881E-1,5.024375087E0
9.323077208E0,3.284242453E0,-5.668106666E0,3.107247820E0,7.250425552E0
9.333103208E0,5.143316723E0,-5.115108000E0,4.237913386E0,8.401068184E0
9.343129208E0,5.240670524E0,-3.520371147E0,3.092754911E0,7.030133249E0
9.353155208E0,3.907927524E0,-1.841472396E0,3.164647597E0,5.355176238E0
9.363181208E0,2.632015075E0,1.649669105E-1,3.354237717E0,4.266805374E0
9.373207208E0,1.494015932E0,2.285734486E0,2.186954548E0,3.498490523E0
9.383233208E0,4.150295563E-1,3.949847383E0,2.110728272E-1,3.977196955E0
9.393259208E0,-6.401916151E-1,4.622434473E0,-1.433319787E0,4.881716027E0
9.403285208E0,-1.478876906E0,4.629085681E0,-1.567839661E0,5.106234654E0
9.413311208E0,-1.569039948E0,4.261611566E0,-1.245872086E0,4.709078121E0
9.423337208E0,-1.025338574E0,3.425318810E0,-1.554620275E0,3.898842436E0
9.433363208E0,-4.048570091E-1,2.379251345E0,-1.981474035E0,3.122656803E0
9.443390208E0,2.414839765E-1,1.554262426E0,-1.398911262E0,2.104993805E0
9.453416208E0,7.190150057E-1,1.077516130E0,-1.353283684E0,1.873339349E0
9.463442208E0,8.214335925E-1,8.008504432E-1,-1.806829398E0,2.140267986E0
9.473468208E0,5.687504804E-1,9.607261831E-1,-1.339588335E0,1.743837382E0
9.483494208E0,2.729734803E-1,1.371284922E0,-2.344436000E-1,1.417709653E0
9.493520208E0,1.926315861E-2,1.782616662E0,5.105835485E-1,1.854397151E0
9.503546208E0,-2.898795532E-2,2.117191418E0,3.076022811E-1,2.139616547E0
9.513572208E0,-2.439275645E-3,2.301159441E0,-7.208611178E-1,2.411427269E0
9.523598208E0,1.337941978E-1,2.028843498E0,-1.651896163E0,2.619707572E0
9.533624208E0,5.541764416E-1,9.919666868E-1,-2.281940812E0,2.549188755E0
9.543650208E0,1.041230502E0,-2.685158372E-2,-2.818851449E0,3.005129857E0
9.553676208E0,1.594458379E0,-7.316468918E-1,-3.443687253E0,3.864788040E0
9.563702208E0,1.937976598E0,-1.064675644E0,-4.238513895E0,4.780615813E0
9.573728208E0,1.620916445E0,-1.354543759E0,-4.427740318E0,4.905817286E0
9.583754208E0,8.378376637E-1,-1.867963791E0,-3.821091694E0,4.334974327E0
9.593780208E0,3.291635234E-1,-2.525049328E0,-3.781114281E0,4.558623470E0
9.603806208E0,6.143470681E-1,-2.954107488E0,-4.026751717E0,5.031789221E0
9.613832208E0,1.283318386E0,-3.157844946E0,-3.922427450E0,5.196568857E0
9.623858208E0,2.435047962E0,-3.238164639E0,-4.151768696E0,5.801064740E0
9.633884208E0,3.193907064E0,-3.567193311E0,-4.493574119E0,6.566438823E0
9.643910208E0,3.401886385E0,-3.938809594E0,-4.233914475E0,6.709179069E0
9.653936208E0,3.193440164E0,-3.994742305E0,-3.913838475E0,6.440043305E0
9.663962208E0,2.509394285E0,-3.791215931E0,-5.104034543E0,6.835316125E0
9.673988208E0,1.876434507E0,-3.766209143E0,-6.831634169E0,8.023500681E0
9.684014208E0,2.142890516E0,-4.387813191E0,-6.555801126E0,8.174558873E0
9.694040208E0,2.403296557E0,-4.745144141E0,-5.920030444E0,7.958579504E0
9.704066208E0,2.394514039E0,-4.250698907E0,-7.193869178E0,8.692174207E0
9.714092208E0,1.714165355E0,-3.627705562E0,-7.389916379E0,8.408892590E0
9.724118208E0,1.477441414E0,-3.505212241E0,-4.411423663E0,5.824946757E0
9.734145208E0,1.441245103E0,-4.218144534E0,-2.175463015E0,4.960097790E0
9.744171208E0,1.851467627E0,-5.673469148E0,-6.061943318E-1,5.998637855E0
9.754197208E0,2.101444428E0,-5.526970083E0,1.869710355E0,6.201554950E0
9.764223208E0,1.277542653E0,-4.612542154E0,3.603777001E0,5.991232680E0
9.774249208E0,1.497285549E-1,-4.760939809E0,3.927180651E0,6.173468585E0
9.784275208E0,-7.977559505E-1,-5.291329631E0,3.207710001E0,6.238909142E0
9.794301208E0,-2.186651516E0,-5.560905569E0,1.853302775E0,6.256184682E0
9.804327208E0,-3.646442964E0,-5.383858311E0,7.101009254E-1,6.541155855E0
9.814353208E0,-4.530339365E0,-4.837009746E0,9.366125581E-1,6.693121927E0
9.824379208E0,-4.767905305E0,-4.240424180E0,1.772308606E0,6.622325575E0
9.834405208E0,-4.341978621E0,-3.859533629E0,2.021425867E0,6.151011357E0
9.844431208E0,-3.018124267E0,-3.820181867E0,1.877969255E0,5.218202000E0
9.854457208E0,-2.870882898E0,-3.665596104E0,2.372470621E0,5.225627260E0
9.864483208E0,-3.795412770E0,-3.337582508E0,5.911035672E0,7.777207584E0
9.874509208E0,-3.257451973E0,-2.374703380E0,5.207741929E0,6.585649968E0
9.884535208E0,-2.202287994E0,-1.323047732E0,3.578769629E0,4.405464762E0
9.894561208E0,-5.620622159E-1,-6.254830903E-1,2.930074847E0,3.048357203E0
9.904587208E0,1.299867030E0,-3.567526603E-1,3.214848867E0,3.485997704E0
9.914613208E0,3.311511528E0,-2.318760145E-1,3.053000277E0,4.510064941E0
9.924639208E0,4.119805769E0,-3.174026531E-1,3.792732698E0,5.608775743E0
9.934665208E0,3.718705194E0,3.865336990E-1,4.435409526E0,5.800951154E0
9.944691208E0,2.781208245E0,1.659477809E0,5.424445004E0,6.317720277E0
9.954717208E0,2.420903693E0,2.767053890E0,6.555394160E0,7.516019858E0
9.964743208E0,2.080024031E0,3.567058825E0,7.241723961E0,8.336244631E0
9.974769208E0,1.520374303E0,4.156518390E0,7.786841750E0,8.956734203E0
9.984795208E0,9.413309687E-1,4.865895576E0,8.210591222E0,9.590456296E0
9.994821208E0,5.537257674E-1,5.535755525E0,8.316804725E0,1.000602030E1
1.000484721E1,-7.753407955E-2,6.051480530E0,7.935225956E0,9.979691334E0
1.001487321E1,-4.886032802E-1,6.439868966E0,7.343380728E0,9.779360203E0
1.002490021E1,-5.457080653E-1,6.652968401E0,6.704693456E0,9.461115166E0
1.003492621E1,-5.379866709E-1,6.617637770E0,6.443420565E0,9.252039120E0
1.004495221E1,-7.850329940E-1,6.315808007E0,6.042650065E0,8.776065598E0
1.005497821E1,-1.008764276E0,5.858173335E0,5.425758873E0,8.048270593E0
1.006500421E1,-8.529853874E-1,5.535566660E0,5.154380824E0,7.611683388E0
1.007503021E1,-5.570908400E-1,5.411107505E0,4.490659867E0,7.053825960E0
1.008505621E1,-2.965625918E-1,5.312435156E0,3.305505268E0,6.263887111E0
1.009508221E1,-3.778966306E-1,4.915295193E0,1.757349382E0,5.233661199E0
1.010510821E1,-4.914118440E-1,3.996506410E0,-1.189598483E-1,4.028362016E0
1.011513421E1,-7.920059448E-1,2.229116482E0,-2.176645615E0,3.214657033E0
1.012516021E1,-1.287305310E0,-3.221277881E-1,-4.841250147E0,5.019823130E0
1.013518621E1,-2.114819495E0,-3.604153562E0,-8.191849142E0,9.196128357E0
1.014521221E1,-3.323181986E0,-7.855112085E0,-1.173873917E1,1.451014547E1
1.015523821E1,-3.994599633E0,-1.186679085E1,-1.338443333E1,1.832813703E1
1.016526421E1,-4.158558191E0,-1.282258140E1,-1.282445485E1,1.860588192E1
1.017529021E1,-3.271249355E0,-9.216153855E0,-1.088670161E1,1.463416674E1
1.018531621E1,-2.635703207E0,-4.321772398E0,-7.127104501E0,8.741868600E0
1.019534221E1,-2.087853452E0,-4.498537821E-1,-2.845437570E0,3.557810482E0
1.020536821E1,-6.316975111E-1,2.975157464E0,3.741647914E-1,3.064409074E0
1.021539421E1,5.729195452E-1,5.941054108E0,1.018743426E0,6.054931782E0
1.022542021E1,2.197152677E-1,7.463798288E0,-2.767346835E-1,7.472157771E0
1.023544621E1,-1.208342902E0,6.346691830E0,-1.575266209E0,6.649966420E0
1.024547221E1,-2.748132300E0,2.656482457E0,-1.627254973E0,4.154165250E0
1.025549821E1,-1.660457072E0,-1.836426834E0,3.672568908E-1,2.502890095E0
1.026552421E1,2.259564103E0,-5.552465113E0,7.624458139E0,9.698858731E0
1.027555021E1,3.421921577E0,-8.708743590E0,1.119173214E1,1.458789329E1
1.028557558E1,1.388659338E0,-9.698904657E0,1.069240565E1,1.450257442E1
1.029560158E1,-7.407225014E-1,-8.050240104E0,3.155052024E0,8.678098226E0
1.030562758E1,-3.117110319E0,-6.075780389E0,-5.723065231E0,8.909823775E0
1.031565458E1,-2.259264725E0,-2.921794605E0,2.113498902E0,4.255354089E0
1.032568058E1,-5.945146282E-1,6.833810502E-1,9.810060811E0,9.851789199E0
1.033570658E1,-6.034671539E-1,4.554199221E0,9.676094669E0,1.071128896E1
1.034573258E1,-1.626745973E0,6.200678669E0,5.879987542E0,8.698791405E0
1.035575858E1,-1.049262676E0,5.486523723E0,3.530233938E0,6.607983534E0
1.036578458E1,8.282125620E-1,3.648350326E0,3.193002500E0,4.918501917E0
1.037581058E1,2.147744143E0,1.226532421E0,3.658417185E0,4.416016642E0
1.038583658E1,2.187506818E0,-1.873206990E0,5.928801852E0,6.591265577E0
1.039586258E1,1.984366360E0,-4.342853365E0,6.301366553E0,7.906029701E0
1.040588858E1,3.588499688E0,-5.911655477E0,3.335371091E0,7.677870851E0
1.041591458E1,5.475311687E0,-6.248962052E0,2.498256509E-1,8.312098271E0
1.042594058E1,5.136715801E0,-4.801045861E0,2.711365592E-1,7.036292036E0
1.043596658E1,3.503737865E0,-2.721539163E0,3.057531284E0,5.388084261E0
1.044599258E1,2.097019401E0,-3.988046658E-1,5.220088910E0,5.639668763E0
1.045601858E1,1.241698490E0,1.869164225E0,4.382929012E0,4.923987892E0
1.046604458E1,4.887198225E-1,3.535968010E0,1.806570951E0,4.000701868E0
1.047607058E1,-7.751692528E-1,4.363290553E0,-7.106577265E-1,4.488231971E0
1.048609658E1,-2.145304393E0,4.512500387E0,-9.496802080E-1,5.085949584E0
1.049612258E1,-2.462171002E0,4.362629818E0,-7.104635990E-1,5.059603097E0
1.050614858E1,-1.959504145E0,3.690332165E0,-1.216481642E0,4.351785331E0
1.051617458E1,-1.204489879E0,2.505192769E0,-1.662210213E0,3.238785184E0
1.052620058E1,-1.026645353E-1,1.318008016E0,-1.144343373E0,1.748487030E0
1.053622658E1,6.797907867E-1,6.868917185E-1,-8.482181525E-1,1.285849828E0
1.054625258E1,6.540886925E-1,6.919220781E-1,-1.292148120E0,1.605065402E0
1.055627858E1,3.566987928E-1,8.371230608E-1,-1.222660979E0,1.524109221E0
1.056630458E1,1.356349013E-1,1.055498439E0,-4.280022255E-1,1.147022095E0
1.057633058E1,2.087343064E-1,1.434119101E0,2.809071835E-1,1.476203391E0
1.058635658E1,1.434265355E-1,1.903020188E0,2.277513885E-1,1.921959340E0
1.059638358E1,9.435509373E-2,2.304183036E0,-8.283007818E-1,2.450356001E0
1.060640958E1,4.157127304E-1,2.039731014E0,-2.120422736E0,2.971449522E0
1.061643558E1,1.051721722E0,1.050980880E0,-2.526962245E0,2.931930691E0
1.062646158E1,1.408770106E0,-1.148995417E-1,-2.569489921E0,2.932595023E0
1.063648758E1,1.688985344E0,-1.021534302E0,-3.060523304E0,3.641841117E0
1.064651358E1,1.713672727E0,-1.294621493E0,-3.784676405E0,4.351608267E0
1.065653958E1,1.360224767E0,-8.549851352E-1,-4.321333272E0,4.610328866E0
1.066656558E1,7.217947720E-1,-7.359106815E-1,-4.631962511E0,4.745274378E0
1.067659158E1,1.392461052E-1,-8.796849436E-1,-4.048636091E0,4.145441988E0
1.068661758E1,-2.094016198E-1,-1.147856964E0,-3.496266878E0,3.685825109E0
1.069664358E1,1.393387105E-1,-1.701254995E0,-3.835340774E0,4.198037957E0
1.070666958E1,1.100357181E0,-2.420147356E0,-4.192517357E0,4.964383239E0
1.071669558E1,2.405918303E0,-3.031756757E0,-4.116596525E0,5.650341482E0
1.072672158E1,3.299946028E0,-3.488611996E0,-3.784817907E0,6.114319589E0
1.073674758E1,3.621566277E0,-3.552919089E0,-3.711914822E0,6.286277754E0
1.074677358E1,3.415886959E0,-3.161899990E0,-4.142051501E0,6.230769286E0
1.075679958E1,2.829877252E0,-2.981849602E0,-5.103842754E0,6.553536692E0
1.076682558E1,2.281025723E0,-3.513337532E0,-6.188379636E0,7.472794757E0
1.077685158E1,2.482706716E0,-4.563910276E0,-6.711418923E0,8.487417370E0
1.078687758E1,3.184719334E0,-5.123972964E0,-6.610413535E0,8.949586766E0
1.079690358E1,3.194349991E0,-4.757806871E0,-6.648114628E0,8.777130863E0
1.080692958E1,2.282852101E0,-4.201971136E0,-6.610678999E0,8.158985964E0
1.081695558E1,1.449320400E0,-4.037411776E0,-4.919712764E0,6.527235031E0
1.082698158E1,1.655483868E0,-4.333655695E0,-1.910435042E0,5.017066929E0
1.083700758E1,2.507069432E0,-4.622478912E0,1.020954843E0,5.356776757E0
1.084703358E1,2.665323447E0,-4.458363356E0,3.271956868E0,6.138945727E0
1.085705958E1,1.668260035E0,-4.393150529E0,4.030461191E0,6.190919199E0
1.086708558E1,5.229510675E-1,-5.103665584E0,3.374417628E0,6.140649358E0
1.087711258E1,-6.029463863E-1,-5.739655536E0,2.342916162E0,6.228679327E0
1.088713858E1,-1.857705729E0,-6.073169607E0,1.478224064E0,6.520705946E0
1.089716458E1,-2.915854418E0,-5.997882612E0,1.374695603E0,6.809301787E0
1.090719058E1,-3.847529295E0,-5.282647101E0,1.609773552E0,6.730617576E0
1.091721658E1,-4.612162669E0,-4.388901358E0,1.967104210E0,6.663632537E0
1.092724258E1,-4.520582408E0,-3.929929428E0,1.637034587E0,6.209661251E0
1.093726858E1,-3.720891468E0,-3.848431520E0,1.041704565E0,5.453494924E0
1.094729458E1,-3.942571108E0,-3.594019752E0,3.616277763E0,6.445022093E0
1.095732058E1,-3.398764265E0,-3.033723176E0,5.110834270E0,6.846583219E0
1.096734658E1,-3.317849033E0,-1.948501001E0,2.844233336E0,4.784813645E0
1.097737258E1,-2.500381095E0,-8.680565858E-1,2.180099273E0,3.429032035E0
1.098739858E1,-7.152701564E-1,-1.305262256E-1,2.664330882E0,2.761758053E0
1.099742458E1,8.944938943E-1,3.054597151E-1,2.916816285E0,3.066144518E0
1.100745058E1,2.280340430E0,8.089359730E-1,3.222413118E0,4.029674451E0
1.101747658E1,3.811291761E0,1.478586591E0,4.183372312E0,5.849168069E0
1.102750258E1,3.901072834E0,2.089230033E0,4.895466992E0,6.599155132E0
1.103752858E1,2.433091922E0,2.601662471E0,5.443826185E0,6.505676556E0
1.104755458E1,1.840618557E0,3.506866418E0,6.507296718E0,7.617801475E0
1.105758058E1,1.530812898E0,3.997455997E0,7.226173875E0,8.398847031E0
1.106760658E1,1.602266166E0,4.755149311E0,7.202375708E0,8.777979134E0
1.107763258E1,1.000193208E0,5.139366344E0,6.776860961E0,8.563837770E0
1.108765858E1,3.620066759E-1,5.474035240E0,6.959436761E0,8.861708113E0
1.109768458E1,-1.213107213E-1,5.313088290E0,7.446425625E0,9.148381172E0
1.110771058E1,-4.067995638E-1,5.501090307E0,7.355635908E0,9.194175333E0
1.111773658E1,-7.493600084E-1,5.740122728E0,6.884732734E0,8.995003845E0
1.112776258E1,-1.000473801E0,5.682046428E0,6.413229636E0,8.626477485E0
1.113778858E1,-1.450849301E0,5.012815055E0,5.948952527E0,7.913489410E0
1.114781558E1,-1.610756177E0,4.261925561E0,5.361129599E0,7.035641799E0
1.115784158E1,-1.426835078E0,3.821058950E0,4.674070650E0,6.203489847E0
1.116786758E1,-9.021484843E-1,4.107776585E0,4.005186601E0,5.807686292E0
1.117789358E1,-6.642271797E-1,4.704628199E0,3.277635099E0,5.772141377E0
1.118791958E1,-8.384066708E-1,4.938016888E0,2.121545548E0,5.439475346E0
1.119794558E1,-1.437592347E0,4.635631639E0,7.716342455E-1,4.914384179E0
1.120797158E1,-1.309508796E0,3.705606261E0,-1.148248143E0,4.094484687E0
1.121799758E1,-8.144266547E-1,2.214580888E0,-3.762551710E0,4.441222203E0
1.122802358E1,-7.115780783E-1,-1.878552514E-1,-6.460788549E0,6.502570387E0
1.123804958E1,-1.402080745E0,-3.786720006E0,-9.088981007E0,9.945584677E0
1.124807558E1,-1.907170396E0,-8.502618129E0,-1.225616630E1,1.503813241E1
1.125810158E1,-2.001915755E0,-1.332450171E1,-1.436597268E1,1.969596872E1
1.126812758E1,-2.144466925E0,-1.395913277E1,-1.369413345E1,1.967194492E1
1.127815358E1,-1.651227095E0,-9.290238077E0,-1.036297235E1,1.401521568E1
1.128818021E1,-1.522119404E0,-3.992022180E0,-5.644520752E0,7.079103269E0
1.129820621E1,-1.203474949E0,-1.338778496E-2,-1.461577041E0,1.893340601E0
1.130823221E1,-7.895368119E-1,3.378684926E0,7.959709418E-1,3.559838472E0
1.131825821E1,-1.069270678E0,5.720961987E0,8.409237510E-1,5.880467549E0
1.132828421E1,-2.558959963E0,4.968107244E0,-4.615979147E-1,5.607444901E0
1.133831021E1,-2.724109599E0,6.182886761E-1,-1.266028316E0,3.066900991E0
1.134833621E1,-9.827848041E-1,-3.702061679E0,-9.830362344E-1,3.954426240E0
1.135836221E1,2.047881886E0,-7.052338493E0,1.821407676E-1,7.345915443E0
1.136838821E1,5.138524345E0,-9.173565075E0,6.579292899E0,1.240346015E1
1.137841421E1,3.865252790E0,-7.992999955E0,1.381095965E1,1.641861242E1
1.138844021E1,-2.908179948E-1,-3.244332283E0,1.071586468E1,1.120000102E1
1.139846621E1,-3.585681623E0,1.683867130E0,6.465124844E0,7.582239805E0
1.140849321E1,-5.442383092E0,4.891760734E0,9.083161274E-1,7.373865675E0
1.141851921E1,-5.500024359E0,6.352560681E0,2.385990261E0,8.734886644E0
1.142854521E1,-4.281434796E0,6.422841289E0,5.453852990E0,9.451353690E0
1.143857121E1,-2.645437651E0,4.222279100E0,5.752803585E0,7.610567013E0
1.144859721E1,5.313366325E-1,7.847296697E-1,6.788830211E0,6.854657899E0
1.145862321E1,2.019357706E0,-1.949660504E0,7.615858054E0,8.116666528E0
1.146864921E1,1.522948393E0,-3.472115831E0,7.412904707E0,8.326230621E0
1.147867521E1,3.035854779E0,-4.855518522E0,4.685463657E0,7.399056970E0
1.148870121E1,5.034742699E0,-6.307571034E0,1.219960442E0,8.162253970E0
1.149872721E1,5.302218901E0,-6.992515630E0,1.382942223E0,8.883767742E0
1.150875321E1,4.688259796E0,-5.570300875E0,2.840737285E0,7.815230007E0
1.151877921E1,3.383918476E0,-3.026864977E0,2.818662584E0,5.343938118E0
1.152880521E1,2.629856868E0,-2.499807483E-1,2.473643532E0,3.619053722E0
1.153883121E1,2.043097256E0,1.116739837E0,2.640185097E0,3.520217551E0
1.154885721E1,8.664942098E-1,2.194952370E0,1.977451150E0,3.078788914E0
1.155888321E1,-1.186363511E-1,2.970178560E0,7.930204368E-1,3.076510471E0
1.156890921E1,-7.564561162E-1,3.640489329E0,7.429272672E-1,3.791744893E0
1.157893521E1,-5.057260838E-1,3.942492170E0,1.219159593E0,4.157565814E0
1.158896121E1,-7.587953679E-1,3.737748991E0,1.360572238E0,4.049406715E0
1.159898721E1,-1.813193215E0,3.429748076E0,1.581485089E-1,3.882763506E0
1.160901321E1,-1.587886401E0,3.055113460E0,-1.015758423E0,3.589828220E0
1.161903921E1,-1.243181051E0,1.031544735E0,-1.379623636E0,2.124369329E0
1.162906521E1,-2.580159920E-1,6.450180531E-2,-1.963317261E0,1.981248950E0
1.163909121E1,3.838761395E-1,1.130657380E0,-2.017601641E0,2.344453750E0
1.164911721E1,9.308652567E-1,2.121952221E0,-1.439237169E0,2.727745403E0
1.165914321E1,9.379043542E-1,2.673144683E0,-1.002069506E0,3.004914369E0
1.166916921E1,5.424477675E-1,3.289690304E0,-1.563029156E0,3.682305259E0
1.167919621E1,-1.331573904E-1,3.042195207E0,-1.885784935E0,3.581740832E0
1.168922221E1,-3.434992882E-1,2.178210037E0,-1.399165031E0,2.611561508E0
1.169924821E1,1.554326599E-1,1.149561428E0,-8.674701831E-1,1.448501055E0
1.170927421E1,8.204748684E-1,-1.349420428E-1,-8.329475641E-1,1.176940954E0
1.171930021E1,1.359510968E0,-1.469370795E0,-1.384432532E0,2.433921536E0
1.172932621E1,1.689331792E0,-2.406729750E0,-2.045337324E0,3.581842370E0
1.173935221E1,2.206812424E0,-9.544702470E-2,-2.902983527E0,3.647799963E0
1.174937821E1,1.919874056E0,9.452088422E-1,-4.158070825E0,4.676418409E0
1.175940421E1,1.454243902E0,7.512192768E-1,-4.720575310E0,4.996297328E0
1.176943021E1,9.983291884E-1,1.519457459E-2,-4.538019390E0,4.646559160E0
1.177945621E1,5.674993224E-1,-1.229419776E0,-4.148312407E0,4.363716798E0
1.178948221E1,6.070861419E-1,-2.261605951E0,-3.676576590E0,4.358971264E0
1.179950821E1,9.470387283E-1,-2.750317989E0,-3.576733629E0,4.610222863E0
1.180953421E1,1.118894024E0,-2.917109231E0,-3.371768255E0,4.596767480E0
1.181956021E1,1.364611641E0,-2.266523459E0,-3.282071089E0,4.215600094E0
1.182958621E1,1.679964845E0,-1.791206222E0,-3.942748863E0,4.644994102E0
1.183961221E1,1.526071099E0,-2.064212721E0,-4.949818323E0,5.575891730E0
1.184963821E1,1.094869935E0,-4.106002539E0,-5.712760683E0,7.119946042E0
1.185966421E1,1.430458744E0,-5.560675188E0,-6.158930719E0,8.420198832E0
1.186969021E1,2.304565298E0,-6.794616616E0,-7.273787168E0,1.021693770E1
1.187971621E1,2.158949601E0,-4.963544662E0,-7.676326450E0,9.392753950E0
1.188974221E1,1.532562239E0,-2.976313459E0,-6.631795633E0,7.428856046E0
1.189976821E1,2.106443505E0,-2.647882957E0,-2.824560086E0,4.407553525E0
1.190979421E1,3.424958621E0,-3.830237324E0,1.174374672E0,5.270694014E0
1.191982021E1,4.269623128E0,-4.570655624E0,3.356101810E0,7.098168345E0
1.192984621E1,4.078944841E0,-4.428910931E0,3.955977019E0,7.204359599E0
1.193987221E1,2.639699779E0,-4.748247258E0,3.853199340E0,6.660406301E0
1.194989921E1,4.347117593E-1,-5.223605425E0,3.221082584E0,6.152267953E0
1.195992521E1,-1.139357817E0,-6.202211809E0,2.364374274E0,6.734673954E0
1.196995121E1,-2.520878509E0,-7.000740323E0,1.573299791E0,7.605291958E0
1.197997721E1,-3.780899103E0,-7.377074724E0,6.567557538E-1,8.315513071E0
1.199000321E1,-3.898720206E0,-5.566289100E0,1.616581173E-1,6.797773675E0
1.200002921E1,-3.361177485E0,-2.296488100E0,5.794093698E-1,4.111822820E0
1.201005521E1,-3.597983872E0,-3.191334289E-1,1.115326857E0,3.780382003E0
1.202008121E1,-6.605055732E0,-1.539780627E0,2.665229014E0,7.287052305E0
1.203010721E1,-8.337000423E0,-3.352099975E0,3.798856487E0,9.755688644E0
1.204013321E1,-7.905344346E0,-2.616597430E0,4.778841645E0,9.600957181E0
1.205015921E1,-6.363135370E0,-1.001461980E0,5.257695862E0,8.314793059E0
1.206018521E1,-4.056857277E0,-8.434479940E-1,6.146496030E0,7.412753127E0
1.207021121E1,-1.501955866E0,-1.651444904E0,3.907003957E0,4.499757950E0
1.208023721E1,2.210352182E0,-2.613325912E0,-1.899967942E-1,3.428006399E0
1.209026321E1,5.271625099E0,-3.151939843E0,1.291819799E0,6.276428471E0
1.210028921E1,5.462157791E0,-2.444581116E0,3.838491254E0,7.109511915E0
1.211031521E1,4.240763026E0,-1.084811116E0,4.791952856E0,6.490277219E0
1.212034121E1,2.387459374E0,6.652201831E-1,5.315320172E0,5.864734324E0
1.213036721E1,1.271501894E-1,1.749007452E0,5.868010105E0,6.124437675E0
1.214039321E1,-1.767315668E0,2.931193419E0,6.112773968E0,7.005805101E0
1.215041921E1,-3.263791232E0,4.635235198E0,7.099212112E0,9.084962914E0
1.216044521E1,-4.702001045E0,5.810730196E0,6.784057714E0,1.009439638E1
1.217047121E1,-5.461619847E0,6.030070950E0,6.317528842E0,1.030059307E1
1.218049721E1,-5.669013569E0,5.577056163E0,6.097895143E0,1.002125718E1
1.219052321E1,-5.023069317E0,4.660556565E0,5.756409563E0,8.949204653E0
1.220054921E1,-3.815747631E0,3.634332211E0,5.169849048E0,7.382116213E0
1.221057621E1,-2.863902492E0,2.545502304E0,4.172751137E0,5.665101192E0
1.222060221E1,-2.533658769E0,1.852981471E0,2.677880927E0,4.126016644E0
1.223062821E1,-2.952864370E0,1.707070636E0,1.513674563E0,3.731582617E0
1.224065421E1,-3.756639883E0,1.897211564E0,1.217110217E0,4.380994431E0
1.225068021E1,-3.152101226E0,2.594392043E0,1.419339094E0,4.322167938E0
1.226070621E1,-1.689649588E0,2.946755199E0,1.264372677E0,3.624488957E0
1.227073221E1,-3.091591023E-1,2.733603723E0,9.653203404E-1,2.915478010E0
1.228075733E1,-1.537715390E-2,1.694868667E0,3.902496046E-1,1.739284625E0
1.229078333E1,-3.637763357E-1,6.301842517E-1,-7.654449677E-1,1.056111458E0
1.230080933E1,-1.030293724E0,1.382474738E-1,-1.990271171E0,2.245394588E0
1.231083533E1,-1.673404415E-1,-1.333618913E0,-3.974571750E0,4.195683832E0
1.232086133E1,5.706939487E-1,-2.212434960E0,-5.516748565E0,5.971187049E0
1.233088733E1,2.193818449E0,-2.217046659E0,-6.351980052E0,7.076424652E0
1.234091333E1,3.374729285E0,-2.537642477E0,-7.068494350E0,8.233592136E0
1.235093933E1,4.100599420E0,-2.892640387E0,-6.813801330E0,8.462279396E0
1.236096533E1,4.825712340E0,-2.771366796E0,-4.940220119E0,7.441353931E0
1.237099133E1,4.157787820E0,-2.979989603E0,-3.066574003E0,5.964177538E0
1.238101733E1,2.435476416E0,-3.516428955E0,-2.038062218E0,4.738197503E0
1.239104333E1,1.326024257E0,-3.669761075E0,-1.316515222E0,4.118094099E0
1.240106933E1,5.874153775E-1,-3.183024226E0,-7.574886614E-1,3.324227598E0
1.241109533E1,1.676963907E-1,-2.636094970E0,-1.415682245E0,2.996877540E0
1.242112133E1,1.936817095E-1,-3.903679522E0,-4.547619349E-1,3.934848769E0
1.243114733E1,-5.482805479E-1,-6.405568029E0,3.313334690E0,7.232572164E0
1.244117333E1,-1.280791951E0,-8.718599657E0,7.254194902E0,1.141392797E1
1.245119933E1,-1.344160273E0,-1.024345877E1,8.339231136E0,1.327697219E1
1.246122633E1,-5.711709353E-1,-1.040404437E1,6.126516094E0,1.208737254E1
1.247125233E1,6.624091342E-1,-9.306167062E0,3.961114090E0,1.013577605E1
1.248127833E1,1.453080160E0,-7.839119951E0,1.816177341E-1,7.974724356E0
1.249130433E1,2.972904240E0,-5.403788545E0,-1.153094549E1,1.307676544E1
1.250133033E1,1.816528467E0,-5.262941399E0,-1.195227890E0,5.694462007E0
1.251135633E1,-2.666523296E-1,-4.575058578E0,5.513591069E0,7.169515390E0
1.252138233E1,-1.263475129E-1,-4.035253569E0,3.919875433E0,5.627135903E0
1.253140833E1,2.237784102E0,-5.440656409E0,3.322323322E0,6.756201011E0
1.254143433E1,8.715450346E-1,-6.766966887E0,2.722969977E0,7.346155259E0
1.255146033E1,-1.496549823E0,-5.462569435E0,5.987207351E0,8.241721790E0
1.256148633E1,-3.059049221E0,-4.666271049E0,6.305792896E0,8.419910432E0
1.257151233E1,-3.700186477E0,-4.462604926E0,1.684701820E0,6.036923299E0
1.258153833E1,-2.322875707E0,-5.386534581E0,5.417784441E-1,5.891012666E0
1.259156433E1,-1.104364497E0,-2.346169553E0,9.794232398E-2,2.594942237E0
1.260159033E1,-1.513607320E0,-3.122111442E0,-3.964671829E0,5.268511145E0
1.261161633E1,-1.325985080E0,-2.786309940E0,-5.710587273E0,6.490960369E0
1.262164233E1,-5.559825003E-1,-2.702875435E-1,-4.687064917E0,4.727657923E0
1.263166833E1,-1.104515648E0,5.111963367E-1,-1.018497258E0,1.587013918E0
1.264169433E1,-2.235629110E0,1.021847713E0,4.994557709E0,5.566670188E0
1.265172033E1,-1.689801469E0,1.404724563E0,7.912096272E-1,2.335528373E0
1.266174633E1,-1.481366943E0,1.790657169E0,-1.098537308E0,2.570541836E0
1.267177233E1,4.335781742E0,2.360181820E0,-5.553690689E0,7.430541152E0
1.268179833E1,1.128348197E1,5.080985404E0,-1.162542948E1,1.697892779E1
1.269182433E1,8.777477610E0,7.186887603E0,-7.443544117E0,1.356841242E1
1.270185033E1,6.934268006E0,7.192023212E0,-4.556315620E0,1.098040449E1
1.271187633E1,5.709520156E0,6.522040472E0,-4.748367711E0,9.883452243E0
1.272190333E1,3.406994221E0,5.306640565E0,-5.143855251E0,8.138015148E0
1.273192933E1,1.927442839E0,4.000049238E0,-3.625987650E0,5.732644785E0
1.274195533E1,1.547647471E0,3.567388024E0,-3.778435671E-1,3.906947116E0
1.275198133E1,1.265934468E0,3.771452926E0,1.838085689E0,4.382351681E0
1.276200733E1,2.378614583E0,3.800787238E0,2.879215180E0,5.328571198E0
1.277203333E1,4.481809521E0,3.722147450E0,4.086481318E0,7.116201781E0
1.278205933E1,4.832733677E0,3.704082477E0,4.986145905E0,7.870018601E0
1.279208533E1,3.513159192E0,2.859148706E0,5.171089243E0,6.874385993E0
1.280211133E1,2.214660995E0,1.082696178E0,4.980694546E0,5.557362008E0
1.281213733E1,1.726837149E0,-3.405131882E-1,5.204717165E0,5.494269427E0
1.282216333E1,2.605911058E0,-1.077888013E0,5.684328597E0,6.345408309E0
1.283218933E1,2.978485115E0,-2.051621034E0,6.065192835E0,7.061663159E0
1.284221533E1,2.260478023E0,-3.526851032E0,5.962295873E0,7.286797045E0
1.285224133E1,7.860429543E-1,-5.018297989E0,4.893201488E0,7.052985116E0
1.286226733E1,-8.388398033E-1,-5.978227197E0,3.409133132E0,6.932895596E0
1.287229333E1,-2.504297560E0,-6.647204801E0,1.494826064E0,7.258880278E0
1.288231933E1,-4.155020333E0,-7.093122822E0,-7.011519080E-1,8.250345407E0
1.289234533E1,-5.421800308E0,-6.869682001E0,-2.403935366E0,9.075646237E0
1.290237133E1,-6.317268641E0,-6.762973824E0,-3.073463777E0,9.751506428E0
1.291239733E1,-7.033123373E0,-5.925956597E0,-2.759082381E0,9.601787414E0
1.292242333E1,-7.525577629E0,-4.705737416E0,-2.073725556E0,9.114747444E0
1.293244933E1,-7.233143172E0,-4.346237733E0,-1.749190469E0,8.617877342E0
1.294247533E1,-6.028220891E0,-4.523886085E0,-1.584765011E0,7.701718806E0
1.295250133E1,-4.688553618E0,-4.033974198E0,-1.151469374E0,6.291372234E0
1.296252733E1,-3.768186087E0,-3.091955012E0,-1.161405548E0,5.010815805E0
1.297255433E1,-3.420158057E0,-2.144863366E0,-1.965659655E0,4.490182388E0
1.298258033E1,-3.149941265E0,-1.295262347E0,-2.716815197E0,4.356709692E0
1.299260633E1,-2.447430756E0,-1.093757063E0,-2.955241263E0,3.989946459E0
1.300263233E1,-1.722167562E0,-1.588384438E0,-2.765397958E0,3.624396791E0
1.301265833E1,-1.275974137E0,-1.885024505E0,-1.995597399E0,3.027182909E0
1.302268433E1,-1.175789698E0,-2.152549824E0,-1.016139661E0,2.654899616E0
1.303271033E1,-1.186210606E0,-2.804276387E0,-6.136606050E-1,3.106065195E0
1.304273633E1,-8.774480912E-1,-3.621496403E0,-5.645311296E-1,3.768799112E0
1.305276233E1,-5.649901360E-1,-4.306481345E0,-4.507940143E-1,4.366716234E0
1.306278833E1,-4.483659580E-1,-4.567642554E0,-4.373769933E-1,4.610389264E0
1.307281433E1,-7.320032796E-1,-4.088674316E0,-4.055926985E-1,4.173438858E0
1.308284033E1,-8.915493827E-1,-3.639873325E0,-1.413172621E-1,3.750134490E0
1.309286633E1,-4.471637705E-1,-2.839169354E0,4.021597981E-2,2.874448710E0
1.310289233E1,1.588855138E-1,-1.971360106E0,1.314875078E-1,1.982118624E0
1.311291833E1,5.344358030E-1,-1.513377525E0,4.637339026E-1,1.670623324E0
1.312294433E1,6.332900003E-1,-1.507606030E0,6.917957783E-1,1.775531911E0
1.313297033E1,2.843183760E-1,-1.786217963E0,5.079002613E-1,1.878662882E0
1.314299633E1,-1.745022574E-1,-2.216474217E0,4.867198920E-1,2.275984456E0
1.315302233E1,-5.369105639E-1,-2.538004419E0,4.807399446E-1,2.638342336E0
1.316304833E1,-8.419915988E-1,-2.543228906E0,2.528996783E-1,2.690896016E0
1.317307433E1,-8.243974730E-1,-2.141060337E0,2.826123047E-1,2.311631518E0
1.318310033E1,-3.069648615E-1,-1.534284829E0,1.569936472E-1,1.572547096E0
1.319312633E1,4.383509932E-1,-1.536601496E0,-1.062140876E-1,1.601429731E0
1.320315333E1,8.059012681E-1,-1.647990369E0,-7.814218998E-2,1.836152312E0
1.321317933E1,9.749693426E-1,-1.676332408E0,2.353574467E-1,1.953470934E0
1.322320533E1,1.134405226E0,-1.785036825E0,3.208431548E-1,2.139198918E0
1.323323133E1,1.116047015E0,-1.840440947E0,-4.056798220E-3,2.152394081E0
1.324325733E1,9.424020325E-1,-1.824728310E0,-3.585085791E-1,2.084774183E0
1.325328333E1,7.252028947E-1,-1.704683803E0,-4.542625827E-1,1.907412016E0
1.326330933E1,4.807189677E-1,-1.404467286E0,-5.306570399E-1,1.576456779E0
1.327333533E1,5.920422792E-1,-1.207708479E0,-7.247074163E-1,1.527833325E0
1.328336133E1,1.410420921E0,-1.573622557E0,-9.337839675E-1,2.310308989E0
1.329338733E1,1.708520161E0,-1.434879824E0,-8.524258089E-1,2.388420191E0
1.330341333E1,1.575265917E0,-8.857502604E-1,-6.885137361E-1,1.933925386E0
1.331343933E1,1.599824807E0,-4.325705820E-1,-7.800483888E-1,1.831674701E0
1.332346533E1,1.390177129E0,-1.313249552E-1,-8.768847120E-1,1.648867943E0
1.333349133E1,1.137366767E0,-4.681222379E-2,-8.568796331E-1,1.424793758E0
1.334351733E1,1.063644634E0,-2.248067307E-1,-7.786649376E-1,1.337234855E0
1.335354333E1,1.169656992E0,-6.513833320E-1,-5.557877880E-1,1.449585386E0
1.336356933E1,1.406469957E0,-7.217721140E-1,4.698530138E-2,1.581556304E0
1.337359533E1,1.365275738E0,-5.329093874E-1,5.769506156E-1,1.575068973E0
1.338362133E1,1.004528187E0,-3.288444847E-1,6.375955975E-1,1.234400146E0
1.339364733E1,7.654749347E-1,-2.827561462E-1,4.679637784E-1,9.406875208E-1
1.340367333E1,8.061230238E-1,-3.326188624E-1,1.680285126E-1,8.880896453E-1
1.341369933E1,9.414760528E-1,-2.932314330E-1,-2.082029772E-1,1.007824544E0
1.342372533E1,7.927655713E-1,-1.052305859E-1,-6.801545566E-1,1.049838534E0
1.343375133E1,7.355805331E-1,2.940681696E-2,-1.067344313E0,1.296598382E0
1.344377733E1,7.469735404E-1,2.360988736E-2,-1.244098041E0,1.451312107E0
1.345380433E1,6.887077906E-1,-7.259902954E-2,-9.875017530E-1,1.206129658E0
1.346383033E1,6.314778750E-1,-1.413383120E-1,-5.249460644E-1,8.332521801E-1
1.347385633E1,5.349418064E-1,-1.243533200E-1,-1.687874812E-1,5.745569582E-1
1.348388233E1,4.603920726E-1,-1.361126554E-1,1.459055722E-2,4.803128146E-1
1.349390833E1,3.739728566E-1,-1.530514544E-1,-2.725094855E-2,4.049976041E-1
1.350393433E1,2.606968673E-1,-1.833996731E-1,7.015489340E-3,3.188220724E-1
1.351396033E1,2.676692335E-1,-1.424393427E-1,2.760780412E-1,4.100669088E-1
1.352398633E1,3.224892922E-1,-8.342573404E-2,4.850896883E-1,5.884481306E-1
1.353401233E1,3.303835449E-1,-9.070434809E-2,5.782978141E-1,6.721673358E-1
1.354403833E1,3.695930728E-1,-8.022613764E-2,5.064250088E-1,6.320613594E-1
1.355406433E1,3.987035090E-1,-2.912498116E-3,3.257706034E-1,5.148780989E-1
1.356409033E1,3.088820904E-1,4.559717238E-2,2.378711647E-1,3.925174377E-1
1.357411633E1,3.297829628E-1,5.381192565E-3,7.002333105E-2,3.371780341E-1
1.358414233E1,4.725234371E-1,-6.203778863E-2,-8.972493947E-2,4.849511838E-1
1.359416833E1,3.100436398E-1,1.346730709E-1,-1.861578047E-2,3.385416399E-1
1.360419433E1,3.944531679E-2,2.370437837E-1,2.072428644E-1,3.173252168E-1
1.361422033E1,-1.888536635E-1,3.172447783E-1,3.814279103E-1,5.308457463E-1
1.362424633E1,-9.841887206E-2,2.540989423E-1,5.197163147E-1,5.868198996E-1
1.363427233E1,2.773680831E-1,5.899255872E-2,6.301479989E-1,6.910135137E-1
1.364429833E1,3.456417811E-1,5.148181021E-2,6.268554318E-1,7.176812315E-1
1.365432433E1,2.097279310E-1,6.892288506E-2,5.373181880E-1,5.809018887E-1
1.366435033E1,1.830622888E-1,2.536405206E-2,3.870856762E-1,4.289410885E-1
1.367437633E1,1.362353007E-1,-1.966477096E-2,2.596812791E-1,2.939066639E-1
1.368440233E1,8.602979153E-2,-4.556735158E-3,2.150114751E-1,2.316286323E-1
1.369442833E1,5.058265463E-2,2.937991977E-2,7.200612187E-2,9.277211985E-2
1.370445533E1,-1.081284660E-1,2.079737663E-2,-9.562653422E-2,1.458380269E-1
1.371448133E1,-2.085033779E-1,2.133473575E-2,-2.435125583E-1,3.212898934E-1
1.372450733E1,-1.532031897E-1,-1.474726260E-2,-1.989059043E-1,2.515000156E-1
1.373453333E1,-4.146055967E-2,-2.589907229E-2,-3.890269518E-2,6.247527227E-2
1.374455933E1,-6.353467584E-2,-3.184978366E-2,-5.840374410E-2,9.198946178E-2
1.375458533E1,-1.292480242E-1,-7.208739817E-2,3.816185296E-2,1.528331501E-1
1.376461133E1,-1.106790215E-1,-1.138242388E-1,2.346616280E-1,2.833229302E-1
1.377463733E1,-1.470254602E-1,-1.500641119E-1,2.276016998E-1,3.097390150E-1
1.378466333E1,-9.747103840E-2,-1.801100296E-1,2.035205269E-1,2.887227579E-1
1.379468933E1,1.472211957E-2,-1.388970995E-1,1.757374817E-1,2.244834237E-1
1.380471533E1,1.262403627E-1,-1.335679471E-1,1.280774117E-2,1.842310069E-1
1.381474133E1,2.254182033E-1,-1.421399653E-1,-2.508361959E-1,3.659725855E-1
1.382476733E1,2.599810950E-1,-1.395759612E-1,-2.574973440E-1,3.916331203E-1
1.383479333E1,1.253986560E-1,-1.485993844E-1,-2.762692451E-2,1.963920745E-1
1.384481933E1,1.421838194E-2,-2.026434445E-1,1.079764384E-1,2.300552961E-1
1.385484533E1,5.993805349E-2,-2.231882215E-1,2.590129423E-1,3.471213862E-1
1.386487133E1,3.413911477E-2,-1.851064754E-1,4.959204859E-1,5.304403969E-1
1.387489733E1,4.248557657E-2,-6.446789145E-2,5.988133550E-1,6.037702935E-1
1.388492333E1,1.588613941E-1,-7.048526108E-2,3.171061993E-1,3.616095355E-1
1.389494933E1,-7.440406501E-2,-1.402238327E-1,1.417657435E-1,2.128290727E-1
1.390497533E1,-3.480692527E-1,-1.719139874E-1,9.238016009E-2,3.990497684E-1
1.391500133E1,-2.681462932E-1,-1.694008541E-1,1.068181050E-1,3.346777427E-1
1.392502733E1,-2.269716623E-1,-1.515972519E-1,1.671110845E-1,3.200374616E-1
1.393505433E1,-3.548821360E-2,-5.421479881E-2,-2.514326119E-1,2.596478694E-1
1.394508033E1,6.280769151E-1,9.834139645E-2,-2.966766125E0,3.034114843E0
1.395510633E1,7.326862344E-1,1.379972130E-1,-6.765637815E-1,1.006782449E0
1.396513233E1,8.169548446E-1,1.971827298E-1,1.372309939E0,1.609201919E0
1.397515833E1,3.353477579E-1,1.034851921E-1,1.219544998E0,1.269037945E0
1.398518433E1,-3.362201625E-1,-4.867397726E-2,7.912510693E-1,8.610989539E-1
1.399521033E1,-5.241669229E-1,-4.901019216E-2,3.622952360E-1,6.390702622E-1
1.400523633E1,-2.208456807E-1,1.025309265E-2,2.245079380E-1,3.150900741E-1