"Time (s)","Linear Acceleration x (m/s^2)","Linear Acceleration y (m/s^2)","Linear Acceleration z (m/s^2)","Absolute acceleration (m/s^2)"
3.793166601E-3,4.864708006E-2,-2.495097551E-1,-4.737525219E-1,5.376458949E-1
1.381916669E-2,-2.173553315E-1,-3.280805460E-1,-1.309389805E0,1.367253395E0
2.384616667E-2,-3.220878808E-1,-2.542755282E-1,-1.887199377E0,1.931299597E0
3.387316666E-2,-5.779722704E-1,-6.972687721E-2,-1.910699337E0,1.997419770E0
4.389916663E-2,-8.475195564E-1,2.285761383E-1,-1.405706896E0,1.657271349E0
5.392616661E-2,-3.546406460E-1,5.302807716E-1,-8.504243070E-1,1.063103563E0
6.395216670E-2,7.761253457E-1,5.789336988E-1,-7.581412107E-1,1.229761308E0
7.397916669E-2,6.360688895E-1,4.788460314E-1,4.901065993E-1,9.349233299E-1
8.400616667E-2,9.273511532E-1,3.276841047E-1,1.096300310E0,1.472831084E0
9.403216664E-2,1.204203804E0,-1.553450248E-1,4.459612906E-1,1.293491535E0
1.040591666E-1,1.705879997E0,-9.856610495E-1,-6.288557643E-1,2.068094253E0
1.140851666E-1,1.640621708E0,-1.337309383E0,-2.628925699E-1,2.132873292E0
1.241121667E-1,1.760886947E0,-1.106180643E0,1.193533659E-1,2.082931511E0
1.341391667E-1,1.678379080E0,-5.482875645E-1,9.869778425E-1,2.022795306E0
1.441651667E-1,1.390480600E0,-2.905288500E-1,1.699081585E0,2.214660594E0
1.541921666E-1,1.595982748E0,-5.946226555E-1,1.563811514E0,2.312194517E0
1.642191666E-1,1.861508465E0,-9.516837564E-1,1.065888941E0,2.346707262E0
1.742451667E-1,1.249665614E0,-1.169522360E0,4.137864017E-1,1.760870774E0
1.842721667E-1,5.628171645E-1,-9.948517030E-1,-2.371542960E-1,1.167362511E0
1.942981667E-1,2.330613913E-1,-6.407253197E-1,-5.965563297E-1,9.059392926E-1
2.043251666E-1,5.118521020E-2,-6.607561263E-1,-9.304177254E-1,1.142320326E0
2.143521666E-1,-3.001136059E-1,-6.621384081E-1,-1.008093892E0,1.242879215E0
2.243781666E-1,6.236610979E-2,-5.943688864E-1,-9.597175384E-1,1.130584653E0
2.344051667E-1,1.028649048E0,1.205578923E-2,-8.300736576E-1,1.321849645E0
2.444323333E-1,2.339965803E0,7.687696946E-1,-1.005535151E0,2.660366092E0
2.544583334E-1,1.850814931E0,5.437764376E-1,-1.150929092E0,2.246296173E0
2.644853333E-1,6.906551327E-1,5.218628275E-1,-1.681289093E0,1.891052177E0
2.745113333E-1,3.186672597E-1,4.813965869E-1,-2.334369287E0,2.404697791E0
2.845383333E-1,1.212982595E0,2.249175355E-1,-2.326804159E0,2.633615816E0
2.945653333E-1,1.623069536E0,3.904068947E-1,-2.035964237E0,2.632854466E0
3.045913334E-1,2.126549595E0,6.353733632E-1,-1.482937505E0,2.669272585E0
3.146183334E-1,2.082711850E0,4.283219951E-1,-1.193689780E0,2.438451080E0
3.246453333E-1,1.999518104E0,1.229897493E-1,-1.251603527E0,2.362141087E0
3.346713333E-1,1.839899203E0,-1.212273985E-2,-1.349415751E0,2.281731559E0
3.446983333E-1,1.389613312E0,-2.047905421E-1,-1.587814334E0,2.119933650E0
3.547243333E-1,6.728179821E-1,-5.598891713E-1,-1.994299318E0,2.177932435E0
3.647513334E-1,5.514066886E-2,-8.416052440E-1,-1.958786838E0,2.132647593E0
3.747783334E-1,-1.799498524E-1,-9.959727605E-1,-1.510594250E0,1.818306541E0
3.848043333E-1,-2.520349482E-1,-1.197083650E0,-1.239455937E0,1.741488415E0
3.948313333E-1,-3.794040428E-1,-1.438844528E0,-1.085062546E0,1.841624754E0
4.048583333E-1,-5.013218513E-1,-1.640530053E0,-5.946706027E-1,1.815570318E0
4.148843333E-1,-8.929826814E-1,-2.085768774E0,5.622168016E-1,2.337506616E0
4.249113334E-1,-5.593222837E-1,-1.668049535E0,8.969219506E-2,1.761611580E0
4.349373333E-1,-8.067109613E-1,-1.574654737E0,5.411188781E-1,1.850170196E0
4.449643333E-1,-1.218530214E0,-1.312912753E0,3.293818438E-1,1.821276524E0
4.549913333E-1,-1.521222880E0,-1.011694169E0,3.112502128E-1,1.853246027E0
4.650173333E-1,-1.424806095E0,-8.624798039E-1,-2.151371902E-1,1.679353396E0
4.750443334E-1,-1.263160403E0,-7.668387978E-1,-5.036136675E-1,1.561167086E0
4.850703334E-1,-1.544278013E0,-4.867704704E-1,-9.877356416E-1,1.896671234E0
4.950973333E-1,-1.614133236E0,-3.636109691E-1,-1.307194760E0,2.108648189E0
5.051243333E-1,-8.663714182E-1,-6.506132537E-1,-1.452140220E0,1.811796969E0
5.151503333E-1,7.095917791E-2,-9.534034225E-1,-1.197348967E0,1.532206853E0
5.251773333E-1,3.949890652E-1,-8.165449548E-1,-3.014005780E-1,9.558265184E-1
5.352043334E-1,5.224516422E-1,-5.051137341E-1,7.306873637E-1,1.030533661E0
5.452303333E-1,1.010369044E0,-4.883386571E-1,1.822458420E0,2.140251140E0
5.552573333E-1,1.811324152E0,-2.602228774E-1,1.981268798E0,2.697042302E0
5.652833333E-1,2.100902537E0,-1.451259921E-1,2.018099239E0,2.916775200E0
5.753103333E-1,1.630843409E0,-2.625003314E-1,1.570208952E0,2.279059631E0
5.853373334E-1,9.159482056E-1,-3.990437438E-1,9.682766926E-1,1.391314766E0
5.953633334E-1,3.619894266E-1,-5.892328383E-1,3.615666729E-1,7.803602640E-1
6.053903333E-1,3.184569061E-1,-4.656013571E-1,1.554388726E-1,5.851159439E-1
6.154173333E-1,8.057281905E-1,-8.485588990E-2,2.978296834E-1,8.631923073E-1
6.254433333E-1,1.186676629E0,2.803009003E-4,2.772007066E-1,1.218622884E0
6.354703333E-1,1.560959242E0,-6.977584764E-2,2.464759272E-1,1.581838426E0
6.454963334E-1,1.695262769E0,-1.195887163E-1,2.297815418E-1,1.714939321E0
6.555233333E-1,1.291221337E0,-1.804475601E-1,3.229768038E-1,1.343178275E0
6.655503333E-1,6.193493611E-1,-2.649222115E-1,4.983447415E-1,8.379289293E-1
6.755763333E-1,-1.861285686E-2,-4.227607083E-1,9.288290370E-1,1.020684297E0
6.856033333E-1,-3.199304044E-2,-4.876390743E-1,1.196681215E0,1.292618023E0
6.956303333E-1,1.014848596E-1,-3.963511741E-1,8.698610365E-1,9.612760544E-1
7.056563334E-1,9.707021177E-2,-2.998102085E-1,3.923546022E-1,5.032404207E-1
7.156833333E-1,1.129436481E-1,-3.781827787E-1,2.476237357E-1,4.659356138E-1
7.257093333E-1,-3.488156497E-2,-1.946772710E-1,6.292036736E-1,6.595553247E-1
7.357363333E-1,2.903844237E-2,-2.069885105E-2,1.045263473E0,1.045871599E0
7.457633333E-1,-2.077720374E-1,1.438423456E-1,1.107775471E0,1.136233397E0
7.557893334E-1,-5.728856313E-1,2.002376807E-1,8.869220424E-1,1.074673804E0
7.658163334E-1,-9.096291196E-1,1.062427390E-1,6.516914803E-1,1.124017100E0
7.758423333E-1,-1.340633817E0,-7.525892794E-2,3.913056117E-1,1.398600379E0
7.858693333E-1,-2.085671418E0,-6.878646221E-2,3.678886825E-1,2.118985352E0
7.958963333E-1,-2.808719979E0,-2.536244407E-2,6.714141387E-1,2.887966087E0
8.059223333E-1,-2.870561886E0,-1.450406959E-1,8.493074888E-1,2.997079504E0
8.159493334E-1,-1.917873870E0,-5.516793150E-1,8.240790921E-1,2.159096246E0
8.259763333E-1,-7.586230212E-1,-1.128085116E0,7.382179928E-1,1.546948843E0
8.360023333E-1,1.080255550E-1,-1.471933922E0,4.505414146E-1,1.543128821E0
8.460293333E-1,6.312273949E-1,-1.432590931E0,6.965554118E-2,1.567040745E0
8.560553333E-1,1.562183064E-1,-8.737088699E-1,-7.201606214E-2,8.904817021E-1
8.660823334E-1,-1.058340771E0,-6.490789443E-2,2.537141955E-1,1.090261030E0
8.761093334E-1,-1.358302349E0,-1.983222060E-1,9.313164425E-1,1.658815024E0
8.861353333E-1,-1.034290003E0,-1.374514047E0,1.995438355E0,2.634543396E0
8.961623333E-1,-3.851087326E-1,-2.438063517E0,2.750224434E0,3.695429188E0
9.061893333E-1,-2.646677846E-1,-2.562927006E0,2.774136622E0,3.786090051E0
9.162153333E-1,-3.949513507E-1,-2.401044648E0,2.451379673E0,3.454021464E0
9.262423334E-1,-9.669786108E-1,-1.833030625E0,1.696240423E0,2.678111364E0
9.362683333E-1,-6.780793798E-1,-9.997352976E-1,5.679225147E-1,1.334840175E0
9.462953333E-1,3.304495454E-2,-4.156842618E-1,1.383164710E-1,4.393367964E-1
9.563223333E-1,5.939806312E-1,1.423066109E-3,4.433850074E-1,7.412187802E-1
9.663483333E-1,1.035627261E0,4.149350873E-1,7.993594033E-1,1.372468727E0
9.763753333E-1,1.115475084E0,6.283688374E-1,9.838384724E-1,1.614642437E0
9.864023334E-1,9.866006970E-1,7.207020736E-1,1.146760612E0,1.675664738E0
9.964283333E-1,4.053102779E-1,9.847734421E-1,1.718099654E0,2.021366265E0
1.006455333E0,2.948435104E-1,7.696470693E-1,1.972630706E0,2.137887090E0
1.016481333E0,5.285321617E-1,3.437965460E-1,1.606700256E0,1.725986102E0
1.026508333E0,4.118632525E-1,2.266097197E-1,1.154715748E0,1.246736445E0
1.036535333E0,2.130228370E-1,3.740224117E-1,8.353519392E-1,9.397256812E-1
1.046561333E0,3.557644808E-1,5.911869778E-1,4.892540753E-1,8.458368393E-1
1.056588333E0,6.367611998E-1,7.192304756E-1,2.703378296E-1,9.979177545E-1
1.066614333E0,8.186113608E-1,7.474162477E-1,2.607261765E-1,1.138742177E0
1.076641333E0,6.807322615E-1,4.789515737E-1,4.103529167E-1,9.279981347E-1
1.086668333E0,5.124032021E-1,1.609767705E-1,6.688466263E-1,8.578032243E-1
1.096694333E0,7.046228153E-1,3.661117136E-2,6.711960375E-1,9.738263759E-1
1.106721333E0,9.230683601E-1,1.032437021E-1,2.239506984E-1,9.554414554E-1
1.116748333E0,9.599321312E-1,2.922701508E-1,-1.327142537E-1,1.012178152E0
1.126774333E0,7.747894031E-1,3.662999940E-1,-3.457025921E-1,9.241128648E-1
1.136801333E0,2.382547420E-1,2.069437793E-1,-4.348539197E-1,5.372978517E-1
1.146827333E0,-2.895851094E-1,-6.726461470E-2,-1.902999723E-1,3.529846221E-1
1.156854333E0,-8.042488450E-1,-1.881748018E-1,-7.543843746E-2,8.294075708E-1
1.166881333E0,-1.144877808E0,-2.833677649E-1,3.384988225E-1,1.227038687E0
1.176907333E0,-1.073713101E0,-3.229256406E-1,7.157377875E-1,1.330195990E0
1.186934333E0,-6.214911962E-1,-4.826490605E-1,4.582030213E-1,9.105775262E-1
1.196961333E0,-5.280152678E-2,-5.820558196E-1,5.440834165E-3,5.844711978E-1
1.206987333E0,-4.778490812E-1,-1.976338425E-1,-3.782587194E-1,6.406859909E-1
1.217014333E0,-1.245853375E0,8.888060153E-3,-5.630634785E-2,1.247156780E0
1.227040333E0,-1.569610782E0,-4.633313218E-1,1.028825780E0,1.933089860E0
1.237067333E0,-1.221010895E0,-7.199100682E-1,1.700220038E0,2.213568678E0
1.247094083E0,-1.086579899E0,-5.490012172E-1,1.884661685E0,2.243659484E0
1.257120083E0,-3.018923289E-1,-3.964207560E-1,1.793222927E0,1.861165457E0
1.267147083E0,7.930999589E-1,-4.682485378E-1,1.417635800E0,1.690548875E0
1.277174083E0,1.224237388E0,-4.694513100E-1,8.354946113E-1,1.554732440E0
1.287200083E0,1.185695466E0,-3.014070100E-1,6.144219124E-1,1.369026739E0
1.297227083E0,9.360363150E-1,-1.184809613E-1,8.882177854E-1,1.295813472E0
1.307253083E0,8.198655885E-1,6.162146688E-2,9.635585743E-1,1.266657773E0
1.317280083E0,9.193898767E-1,1.085605752E-1,5.021837309E-1,1.053210161E0
1.327307083E0,1.290771686E0,1.458962166E-1,5.358271480E-2,1.300095519E0
1.337333083E0,1.445262725E0,1.248456556E-1,-1.035512656E-1,1.454336153E0
1.347360083E0,9.469086277E-1,-8.571141064E-3,-3.370510519E-1,1.005143186E0
1.357386083E0,7.772966892E-1,-5.640194982E-2,-2.133768860E-1,8.080229071E-1
1.367413083E0,7.725651222E-1,5.548832238E-2,3.622668770E-1,8.550866109E-1
1.377440083E0,4.576142067E-1,2.081062058E-1,5.322685325E-1,7.321398403E-1
1.387466083E0,2.056038898E-1,3.966490898E-1,2.721858421E-1,5.231525519E-1
1.397493083E0,1.930382234E-1,6.449803385E-1,-5.381981939E-2,6.753961547E-1
1.407520083E0,3.510656583E-1,9.776573807E-1,-1.002267727E0,1.443468616E0
1.417546083E0,1.010483649E0,1.458965382E0,-3.730289405E0,4.130946168E0
1.427573083E0,2.279841077E-1,1.949521340E0,-4.921102062E0,5.298099255E0
1.437599083E0,-5.433057368E-1,1.526070076E0,-3.645425256E0,3.989134781E0
1.447626083E0,-4.568990922E-1,3.761586919E-1,-1.722561665E0,1.821392552E0
1.457653083E0,3.277072012E-1,-1.746455142E-1,-3.500961900E-1,5.103532185E-1
1.467679083E0,8.038412941E-1,-2.717414537E-1,2.526728064E-1,8.853517893E-1
1.477706083E0,4.794997501E-1,-3.926539797E-1,3.992231803E-1,7.372084548E-1
1.487733083E0,-4.608354378E-1,9.007986546E-2,7.184462178E-1,8.582823840E-1
1.497759083E0,-1.232958511E0,3.393592402E-1,3.382941699E-1,1.322797917E0
1.507786083E0,-1.138383306E0,-2.631226578E-1,-8.152259691E-1,1.424690656E0
1.517812083E0,-8.723852795E-1,-4.071597522E-1,-5.438847573E-1,1.105733136E0
1.527839083E0,-4.087045866E-1,-2.480751407E-1,3.828170626E-1,6.124782592E-1
1.537866083E0,1.217448771E-2,-1.575465015E-1,7.702787147E-1,7.863195385E-1
1.547892083E0,-4.051793003E-1,-1.440914735E-1,1.068887832E0,1.152151820E0
1.557919083E0,-6.086132884E-1,2.960445285E-2,1.085936120E0,1.245208342E0
1.567946083E0,-3.116747206E-1,-1.085392329E-1,1.347170274E0,1.387007441E0
1.577972083E0,-9.806932551E-1,5.288663301E-1,6.460148571E-1,1.287941789E0
1.587999083E0,-1.820439962E0,2.867217278E-1,-4.813030314E-1,1.904695149E0
1.598025083E0,-2.763327459E0,-4.282389647E-1,-7.815727580E-1,2.903484671E0
1.608052083E0,-1.932269130E0,-1.254380955E0,-2.111721933E-1,2.313380485E0
1.618079083E0,-1.405412196E0,-3.277010617E-1,-1.469668418E0,2.059732188E0
1.628105083E0,5.188222754E-1,-1.492683059E-1,-5.829801913E-1,7.945586725E-1
1.638132083E0,6.817210257E-1,-8.339357436E-2,-8.688026905E-1,1.107481901E0
1.648158083E0,3.889819282E-1,-7.085995066E-1,-2.495135558E-1,8.459770776E-1
1.658185083E0,-1.116472034E0,-1.269945073E0,-4.287476724E-1,1.744446863E0
1.668212083E0,-1.953034932E0,-2.351693417E0,3.823002418E-1,3.080740309E0
1.678238083E0,-1.834297863E0,-3.167227973E0,9.544175490E-1,3.782445577E0
1.688265083E0,-1.153325865E0,-2.913997927E0,3.120039189E-1,3.149427078E0
1.698292083E0,3.683014959E-1,-2.216735587E0,-9.335189424E-2,2.249061411E0
1.708318083E0,4.911380482E-1,-1.437923300E0,2.379647201E-1,1.538007544E0
1.718345083E0,8.198012692E-1,-5.942572045E-1,1.250269192E0,1.608847040E0
1.728371083E0,2.926153119E0,3.696340764E-1,1.327517343E0,3.234393873E0
1.738398083E0,2.238928694E0,1.285706243E0,-3.866149753E-1,2.610615517E0
1.748425083E0,2.789949832E0,3.106458446E0,-3.169202578E-1,4.187402845E0
1.758451083E0,3.612963561E0,3.374079659E0,1.860952395E-1,4.946973891E0
1.768478083E0,1.341204213E0,2.345605881E0,-5.019711846E-1,2.748212285E0
1.778505083E0,1.848427659E-1,1.356291491E0,-9.449515647E-1,1.663318045E0
1.788531083E0,5.366995525E-1,1.409971855E0,-8.357764471E-1,1.724699774E0
1.798558083E0,6.895516169E-1,2.329865177E0,-6.732390547E-1,2.521309977E0
1.808584083E0,9.449258369E-1,2.292241852E0,-1.119875114E0,2.720547338E0
1.818611083E0,4.715808660E-2,2.755170009E0,-1.749842434E0,3.264220306E0
1.828638083E0,5.964563423E-1,1.885492575E0,-6.567440593E-1,2.083783860E0
1.838664083E0,1.564884770E0,2.144191521E-1,4.713066316E-1,1.648323347E0
1.848691083E0,2.343623090E0,-1.863100662E0,1.028074998E0,3.165541260E0
1.858717083E0,1.562493551E0,-3.680466158E0,2.056073982E0,4.496071336E0
1.868744083E0,4.322144866E-2,-6.673610242E0,5.070149928E-1,6.692981844E0
1.878771083E0,-1.567942279E0,-4.943092271E0,1.645453262E-1,5.188417809E0
1.888797083E0,-7.875813568E-1,-2.445768101E0,-6.123321632E-2,2.570178107E0
1.898824083E0,4.460329190E-1,1.033458529E0,8.338059354E-1,1.400790575E0
1.908851083E0,6.422353631E-1,1.914174337E0,8.253567088E-1,2.181225195E0
1.918877083E0,1.091600903E0,1.107312371E0,5.093451083E-1,1.636204650E0
1.928904083E0,1.117157036E0,5.014683241E-1,4.182746879E-1,1.294010833E0
1.938930083E0,3.177318513E-2,1.729466057E-1,1.167244577E-1,2.110560654E-1
1.948957083E0,-2.194308007E-1,3.011316061E-1,-6.339609683E-1,7.353479651E-1
1.958984083E0,-3.432452998E-1,4.811913496E-1,-5.683914614E-1,8.200190877E-1
1.969010083E0,-2.293302830E-1,5.268645358E-1,-4.811510038E-1,7.494564072E-1
1.979037083E0,7.135060515E-1,5.948255539E-2,-2.562530383E-1,7.604568886E-1
1.989064083E0,8.131380746E-1,-4.886091274E-1,7.803226233E-2,9.518515859E-1
1.999090083E0,-4.372328594E-2,-1.380226484E0,9.673752347E-2,1.384303081E0
2.009117083E0,-5.234525393E-1,-1.307957822E0,4.741284978E-1,1.486456881E0
2.019143083E0,-2.472541916E-1,-5.304360151E-1,2.499638096E-1,6.363795311E-1
2.029170083E0,-2.263398707E-2,2.887355089E-2,1.362054069E-2,3.913436393E-2
2.039197083E0,3.693452239E-2,4.781016809E-1,1.816181727E-3,4.795296390E-1
2.049223083E0,-2.593571971E-1,7.504936373E-1,3.439706469E-1,8.653454000E-1
2.059250083E0,-7.925158221E-1,9.245348418E-1,5.412708692E-1,1.332599023E0
2.069277083E0,-1.528451647E0,6.575708556E-1,1.388421357E-1,1.669682905E0
2.079303083E0,-2.054355192E0,-2.259551239E-1,6.209043184E-2,2.067676521E0
2.089330083E0,-9.791644274E-1,-6.368863302E-1,-1.695797424E-1,1.180315408E0
2.099356083E0,-5.203125114E-1,-8.435345328E-1,-4.173742533E-2,9.919766278E-1
2.109383083E0,-5.404922759E-1,-6.873998415E-1,2.583654363E-2,8.748245364E-1
2.119410083E0,-9.829892374E-1,2.237288550E0,-1.403561991E-2,2.443752217E0
2.129436083E0,-1.050636699E0,3.303941723E0,2.836741956E-1,3.478554215E0
2.139463083E0,-8.634807741E-1,4.041598967E0,5.427432346E-1,4.168295992E0
2.149489083E0,-8.742796312E-1,3.153234417E0,3.672904758E-1,3.292742695E0
2.159516083E0,-4.683960338E-1,1.513440090E0,8.317114627E-1,1.789312635E0
2.169543083E0,5.519705795E-2,5.804004729E-2,8.413476741E-1,8.451516261E-1
2.179569083E0,5.944451194E-1,1.026418481E0,4.298159953E-1,1.261602825E0
2.189596083E0,2.166345160E0,7.368667012E0,-5.016911030E-3,7.680516263E0
2.199623083E0,9.679363847E-2,4.831723863E0,1.658796791E-1,4.835539325E0
2.209649083E0,3.016701347E-1,3.674042407E0,-4.722714221E-1,3.716535049E0
2.219676083E0,7.444960020E-2,4.767223812E0,3.856811750E-1,4.783379097E0
2.229702083E0,-9.262480760E-1,1.318051286E0,3.333077009E-1,1.645080154E0
2.239729083E0,-1.422600963E0,-2.307197276E0,5.235550117E-1,2.760627215E0
2.249755917E0,-7.688590108E-1,-3.283150778E0,-4.996130391E-1,3.408788113E0
2.259781917E0,-8.110475488E-2,-2.744989421E0,6.349573338E-1,2.818637210E0
2.269808917E0,1.169838329E0,-1.292608296E0,1.529181379E0,2.318998408E0
2.279835917E0,1.204385945E0,-3.053292053E0,5.069840026E-1,3.321170071E0
2.289861917E0,1.036072381E0,-3.346960858E0,-1.291681513E0,3.734171138E0
2.299888917E0,-3.625023736E-1,-3.194953716E0,-5.356412430E-1,3.259762071E0
2.309914917E0,-7.083988740E-1,-2.462789930E0,-4.684087880E-1,2.605104604E0
2.319941917E0,-2.923361512E-1,-7.008116001E-1,-2.788774688E-2,7.598519925E-1
2.329968917E0,1.225057095E-1,1.830967873E-1,3.966599436E-1,4.537303090E-1
2.339994917E0,-8.063646600E-2,-1.225927234E-2,3.981638841E-1,4.064320460E-1
2.350021917E0,-3.713960982E-1,-4.919461334E-1,2.186977426E-2,6.167854951E-1
2.360047917E0,-3.930875142E-1,-3.330568188E-1,-1.285861011E-1,5.310169713E-1
2.370074917E0,-1.915018675E-1,-3.765665352E-2,-1.100387148E-1,2.240524661E-1
2.380101917E0,-6.213938400E-2,3.379070842E-1,3.280194426E-1,4.750150054E-1
2.390127917E0,1.233758848E-1,-1.455840338E0,7.301932740E-1,1.633363069E0
2.400154917E0,-1.358945177E-1,-2.996543071E0,-5.661461306E-1,3.052582372E0
2.410181917E0,-1.566684324E-1,-2.854676170E0,-1.996297713E-1,2.865933195E0
2.420207917E0,-4.589742690E-2,-1.214622812E0,2.238056509E-1,1.235922375E0
2.430234917E0,5.521975245E-2,3.738662910E-1,2.561536539E-1,4.565522084E-1
2.440260917E0,-4.511244186E-1,5.536979932E-1,4.066972375E-1,8.218864591E-1
2.450287917E0,-5.531899432E-1,9.452012408E-1,4.769421780E-1,1.194528501E0
2.460314917E0,-2.114914878E-1,-9.430447876E-2,-6.610370851E-1,7.004227380E-1
2.470340917E0,-3.734947370E-1,-7.043538433E-1,1.401016259E-1,8.094696540E-1
2.480367917E0,-2.489939210E-1,-1.248266521E0,2.752108991E-1,1.302270448E0
2.490394917E0,-1.148616079E-1,-9.828999943E-1,1.602254033E-1,1.002475819E0
2.500420917E0,-1.571608410E-1,-4.074567908E-1,1.164028609E-1,4.519626006E-1
2.510447917E0,-1.389309037E-1,-5.517368370E-1,1.836634008E-1,5.978691982E-1
2.520473917E0,-1.157954814E-1,-2.905218333E-1,2.498339466E-1,4.002855606E-1
2.530500917E0,-4.197399636E-1,3.978129780E-1,2.197512464E-1,6.186496689E-1
2.540527917E0,-8.202293584E-1,1.163489496E0,2.034351758E-1,1.438008998E0
2.550553917E0,-1.326622134E0,2.131434066E0,5.460363865E-2,2.511158901E0
2.560580917E0,-1.410580842E0,2.202810443E0,-1.009042128E-1,2.617688641E0
2.570606917E0,-1.136360315E0,1.158093685E0,3.086160421E-2,1.622790248E0
2.580633917E0,-4.528408322E-1,1.823828423E-1,3.809741664E-1,6.192492518E-1
2.590660917E0,-4.098045941E-1,-2.415724522E-1,3.937362993E-1,6.175154479E-1
2.600686917E0,-4.173174622E-1,-2.528692728E-1,4.662218928E-2,4.901738079E-1
2.610713917E0,-3.853336311E-1,-9.630247235E-2,2.971379578E-1,4.960313896E-1
2.620740917E0,-1.280542421E-1,2.983278662E-1,1.714906490E-1,3.671599751E-1
2.630766917E0,-5.560672849E-2,3.282246798E-1,1.614825547E-1,3.700002218E-1
2.640793917E0,-3.984569757E-1,6.840131342E-1,-7.484202147E-2,7.951372570E-1
2.650819917E0,-5.287083091E-1,5.028623003E-1,-1.064310193E-2,7.297371066E-1
2.660846917E0,-2.042068804E-1,-2.036561823E-1,1.603306532E-2,2.888483162E-1
2.670873917E0,6.847191855E-2,1.801679170E-1,-3.681851363E-1,4.155829358E-1
2.680899917E0,-8.838076691E-1,1.418493002E0,1.320864381E0,2.130239683E0
2.690926917E0,-1.335576853E0,9.088420844E-1,1.498861812E0,2.203711913E0
2.700953917E0,7.810155183E-1,-2.073264796E0,-7.796928781E-1,2.348687535E0
2.710979917E0,1.295506030E0,-2.269468117E0,6.968799323E-1,2.704526400E0
2.721006917E0,7.048919334E-1,-5.677997231E-1,8.133266473E-1,1.216868686E0
2.731032917E0,-4.146370254E-3,4.683608043E-1,3.033991381E-1,5.580592015E-1
2.741059917E0,-6.713450684E-1,7.621021146E-1,-3.262570918E-2,1.016153665E0
2.751086917E0,-9.024902540E-1,1.631536304E0,-1.716456002E-1,1.872394612E0
2.761112917E0,-1.108343016E0,2.628215847E0,-4.559074044E-3,2.852361051E0
2.771139917E0,-1.199362821E0,2.965009037E0,6.839429677E-2,3.199129185E0
2.781166917E0,-1.637347121E0,1.948808565E0,7.872336667E-2,2.546558027E0
2.791192917E0,-1.023236061E0,2.002688903E-1,1.287377816E-2,1.042729783E0
2.801219917E0,-1.098079764E0,-2.500631940E-1,2.304194731E-1,1.149523337E0
2.811245917E0,-1.106643742E0,-5.004351211E-1,3.652568142E-1,1.268269775E0
2.821272917E0,-3.255512597E-1,-1.143854545E0,5.637961346E-1,1.316150799E0
2.831299917E0,9.808662596E-1,-3.914857060E-1,3.390355968E-1,1.109191062E0
2.841325917E0,1.499498720E0,2.331343353E-1,2.185472864E-1,1.533170227E0
2.851352917E0,4.203346620E-1,-2.451403062E0,-5.891374556E-1,2.556001006E0
2.861378917E0,1.196866426E0,-3.716984943E0,2.295657796E-1,3.911670584E0
2.871405917E0,9.222823481E-1,-1.922379150E0,1.014311821E0,2.361138453E0
2.881432917E0,-5.078553839E-1,-3.251928985E-1,-3.766374327E-2,6.042235263E-1
2.891458917E0,-5.088590219E-1,-1.833451186E0,2.834331807E-1,1.923750276E0
2.901485917E0,1.500289190E-1,-2.063070175E0,-6.573147476E-1,2.170444632E0
2.911512917E0,3.920945838E-1,-1.107732201E0,-4.336755596E-1,1.252550711E0
2.921538917E0,-4.756801296E-2,-1.486906010E-1,-1.230968264E-1,1.988075435E-1
2.931565917E0,-1.204754612E0,8.778717220E-2,-1.217256544E-1,1.214066472E0
2.941591917E0,-1.762259873E0,2.387406456E-1,8.767373621E-2,1.780517802E0
2.951618917E0,-1.467908114E0,3.036856699E-1,6.239961433E-1,1.623684207E0
2.961645917E0,-7.841008016E-1,-4.948375815E-1,3.167499577E-1,9.798004056E-1
2.971671917E0,-1.768868250E-1,-1.299723188E0,-9.046285808E-2,1.314820461E0
2.981698917E0,5.446410947E-1,-1.313356556E0,8.925774693E-2,1.424607424E0
2.991724917E0,5.718800564E-1,-1.768303848E0,-1.539963645E-1,1.864848567E0
3.001751917E0,4.018455103E-1,-1.438864117E0,-5.318527955E-1,1.585773362E0
3.011778917E0,-2.233436112E-1,-1.045445321E0,-6.835190445E-1,1.268872166E0
3.021804917E0,-8.775341184E-1,-7.562461281E-1,-6.180606347E-1,1.313001631E0
3.031831917E0,-6.904525267E-1,-3.826710284E-1,-4.728597251E-1,9.201946138E-1
3.041858917E0,-4.226484418E-2,-2.861147869E-1,-2.561565775E-1,3.863472279E-1
3.051884917E0,3.711865852E-1,-8.059626639E-2,-2.705280103E-2,3.807979691E-1
3.061911917E0,4.762280503E-1,4.130631012E-1,1.350888079E-1,6.447195262E-1
3.071937917E0,3.191971270E-1,1.038722193E0,2.319613107E-1,1.111142047E0
3.081964917E0,1.286883361E-1,1.245601945E0,2.425704257E-1,1.275509821E0
3.091991917E0,-2.076460299E-1,8.853608358E-1,1.984544262E-1,9.307872166E-1
3.102017917E0,-3.473860786E-1,3.438104331E-1,2.155826750E-1,5.341896585E-1
3.112044917E0,-1.723080897E-1,-2.770480943E-1,8.983070098E-2,3.384010626E-1
3.122071917E0,3.511596523E-2,-4.043864179E-1,-1.142505008E-1,4.216807832E-1
3.132097917E0,1.820749864E-2,-2.200237083E-1,-3.153081805E-1,3.849171260E-1
3.142124917E0,-6.501924735E-2,6.426090002E-3,-3.921224678E-1,3.975283976E-1
3.152150917E0,-1.594794813E-1,5.483869672E-2,-3.528197499E-1,3.910534024E-1
3.162177917E0,-2.756291943E-1,-3.390624940E-2,-3.220764057E-1,4.252696763E-1
3.172204917E0,-3.244098102E-1,-1.536005080E-1,-3.576502810E-1,5.067036259E-1
3.182230917E0,-3.948192767E-1,-1.405641407E-1,-5.366486818E-1,6.809055342E-1
3.192257917E0,-4.550984787E-1,-3.624349844E-1,-6.167467654E-1,8.478504089E-1
3.202283917E0,-3.432952204E-1,-4.591397452E-1,-6.330874673E-1,8.540846886E-1
3.212310917E0,-1.579294210E-1,-3.797468358E-1,-7.237122202E-1,8.324114001E-1
3.222337917E0,8.990708023E-2,-3.546728057E-1,-7.749045932E-1,8.569441118E-1
3.232363917E0,7.632589862E-2,-3.875265563E-1,-6.966963297E-1,8.008671865E-1
3.242391208E0,2.812554583E-1,-2.727036130E-1,-5.205477887E-1,6.514920519E-1
3.252418208E0,2.894667032E-1,8.001388371E-2,-4.418629771E-1,5.342621870E-1
3.262444208E0,1.202409732E-1,7.255809903E-2,-3.663176087E-1,3.923151282E-1
3.272471208E0,6.746590510E-2,5.179639041E-2,-2.821931690E-1,2.947329283E-1
3.282497208E0,-4.879136011E-2,1.781974053E-1,-2.853698881E-1,3.399571813E-1
3.292524208E0,-1.563364202E-1,5.173791826E-2,-2.945698607E-1,3.374748751E-1
3.302551208E0,-1.487017107E-1,-1.506821626E-1,-2.817680033E-1,3.524351296E-1
3.312577208E0,-9.573404990E-2,-2.749600536E-1,-3.103842767E-1,4.255660214E-1
3.322604208E0,5.318386160E-2,-4.178893930E-1,-3.146948441E-1,5.258259339E-1
3.332630208E0,1.548734468E-1,-3.084043729E-1,-3.333433690E-1,4.798091739E-1
3.342657208E0,-1.527914726E-1,-1.126349151E-1,-6.931592759E-1,7.186804853E-1
3.352684208E0,-4.791291098E-1,3.953325891E-1,-3.193310648E-1,6.984446212E-1
3.362710208E0,-8.180934437E-1,5.327082431E-1,-1.109838076E-3,9.762459662E-1
3.372737208E0,-8.210646332E-1,7.177112228E-1,-1.718180931E-1,1.103982784E0
3.382764208E0,-5.288920578E-1,5.124593353E-1,-2.976028115E-1,7.942976851E-1
3.392790208E0,-2.549046155E-1,6.701599109E-1,-6.856445074E-2,7.202719994E-1
3.402817208E0,-4.717577443E-2,7.317556500E-1,2.913042273E-1,7.890184015E-1
3.412843208E0,-9.372209609E-2,6.677204525E-1,5.417837065E-1,8.649647500E-1
3.422870208E0,-2.094156166E-1,4.844862556E-1,3.125992020E-1,6.134330391E-1
3.432897208E0,-4.613256537E-1,3.316634274E-1,1.133640264E-1,5.793732737E-1
3.442923208E0,-4.177057173E-1,1.087833542E-1,2.125772427E-1,4.811454754E-1
3.452950208E0,-2.702229318E-1,2.877414823E-3,2.472009454E-1,3.662472113E-1
3.462977208E0,-2.524235688E-2,4.854633254E-1,3.334274958E-1,5.894791869E-1
3.473003208E0,1.123773453E-1,6.732595199E-1,7.821235657E-2,6.870401892E-1
3.483030208E0,2.289798155E-1,2.939559031E-1,-3.338467777E-2,3.741074251E-1
3.493056208E0,3.592991227E-1,-4.069603622E-2,-2.056617773E-1,4.159913383E-1
3.503083208E0,4.958487113E-1,-1.423270762E-1,-3.233662283E-1,6.088420639E-1
3.513110208E0,5.047054157E-1,-8.112777829E-2,-4.092700124E-1,6.548367859E-1
3.523136208E0,5.494211935E-1,8.259952247E-2,-4.278255665E-1,7.012282398E-1
3.533163208E0,5.707252313E-1,1.105497980E-1,-4.525827507E-1,7.367358371E-1
3.543189208E0,5.452772717E-1,7.917948604E-2,-4.550601429E-1,7.146162800E-1
3.553216208E0,4.349980536E-1,6.144020319E-2,-5.273498547E-1,6.863643890E-1
3.563243208E0,2.639391484E-1,3.050375462E-2,-6.415792324E-1,6.944193723E-1
3.573269208E0,2.266162978E-1,-6.968828559E-2,-6.677625525E-1,7.086030130E-1
3.583296208E0,3.413312868E-1,-5.259044230E-2,-5.028553567E-1,6.100297630E-1
3.593323208E0,3.650174803E-1,-4.724901080E-2,-3.021029017E-1,4.761684504E-1
3.603349208E0,4.049902891E-1,-2.011465573E-1,-3.748264769E-1,5.873431361E-1
3.613376208E0,4.179006489E-1,-5.368036330E-2,-3.266751677E-1,5.331408809E-1
3.623402208E0,3.930999029E-1,1.259858626E-1,-1.713065348E-1,4.469294129E-1
3.633429208E0,3.261590778E-1,7.119862139E-2,-2.190800408E-1,3.993057125E-1
3.643456208E0,3.238437997E-1,1.067344898E-1,3.969674706E-3,3.410026631E-1
3.653482208E0,4.637165802E-1,-1.867191374E-2,5.249162436E-2,4.670514723E-1
3.663509208E0,4.317838392E-1,-1.584332317E-1,1.426644605E-1,4.815511613E-1
3.673536208E0,4.376214800E-1,-2.183350325E-2,3.610603771E-1,5.677621488E-1
3.683562208E0,3.923731671E-1,4.771152556E-2,3.988379949E-1,5.615201138E-1
3.693589208E0,3.049230138E-1,2.885600924E-3,4.550279832E-1,5.477561835E-1
3.703615208E0,1.661765532E-1,-1.112233973E-1,4.254352979E-1,4.700856131E-1
3.713642208E0,3.197491407E-2,-1.657738262E-1,2.723035904E-1,3.203944474E-1
3.723669208E0,-1.845439732E-1,2.732813179E-2,-5.345699966E-2,1.940643080E-1
3.733695208E0,-2.021945246E-1,1.600359535E-1,-1.363969032E-1,2.917160389E-1
3.743722208E0,-3.771796889E-1,1.898830658E-1,-4.300801798E-1,6.027346493E-1
3.753748208E0,-5.103397197E-1,1.584139359E-1,-7.041217089E-1,8.839281563E-1
3.763775208E0,-5.506863847E-1,1.822278911E-1,-6.920635808E-1,9.030030445E-1
3.773802208E0,-5.229788417E-1,4.535158932E-2,-6.552946077E-1,8.396276903E-1
3.783828208E0,-4.490712053E-1,-9.169311225E-2,-4.699325359E-1,6.564367164E-1
3.793855208E0,-2.940827145E-1,-2.498298901E-1,-2.987804407E-1,4.880259919E-1
3.803882208E0,-8.851054586E-2,-3.493243575E-2,1.322922309E-1,1.629589707E-1
3.813908208E0,-1.097143771E-1,1.425697356E-1,3.963160908E-1,4.352353592E-1
3.823935208E0,8.196049489E-2,1.120016617E-1,4.451210457E-1,4.662559815E-1
3.833961208E0,3.175165276E-1,3.679711282E-2,4.888873818E-1,5.841075628E-1
3.843988208E0,5.130217644E-1,-2.035825074E-2,3.684172708E-1,6.319312261E-1
3.854015208E0,5.397069948E-1,-2.489820439E-1,9.459552392E-2,6.018504894E-1
3.864041208E0,6.290577125E-1,-1.783815926E-1,1.398829401E-2,6.540101456E-1
3.874068208E0,3.547636568E-1,-1.638676339E-1,-2.187449223E-1,4.478383577E-1
3.884095208E0,4.232134290E-2,-2.252446872E-1,-4.540485746E-1,5.086122032E-1
3.894121208E0,-3.665882617E-2,-1.182850796E-1,-4.406281183E-1,4.576989930E-1
3.904148208E0,-1.557218778E-1,-5.575554013E-2,-4.865778047E-1,5.139221181E-1
3.914174208E0,-1.579142913E-2,8.528514862E-2,-3.368471302E-1,3.478346086E-1
3.924201208E0,-1.013590714E-1,1.747972494E-1,-1.331657318E-1,2.419934955E-1
3.934228208E0,-6.769752793E-2,1.572912705E-1,-1.430119313E-2,1.718371997E-1
3.944254208E0,3.343372129E-2,2.348844069E-1,2.312473657E-1,3.313062669E-1
3.954281208E0,3.567759030E-2,2.605115837E-1,4.185313442E-1,4.942748848E-1
3.964307208E0,1.090936951E-2,1.926634169E-1,5.239852206E-1,5.583893964E-1
3.974334208E0,2.200219542E-1,9.501374602E-2,6.054647090E-1,6.511718560E-1
3.984361208E0,4.528770849E-2,1.578806698E-2,7.175404841E-1,7.191415618E-1
3.994387208E0,2.944840528E-2,-1.102638692E-1,4.619773990E-1,4.758659965E-1
4.004414208E0,5.375294186E-2,-1.978580832E-1,2.961835460E-1,3.602247809E-1
4.014441208E0,1.748323327E-1,-6.644249618E-2,1.788410376E-1,2.587760936E-1
4.024467208E0,2.886601895E-1,9.477342546E-2,-2.192662016E-2,3.046103804E-1
4.034494208E0,3.502529684E-1,1.971125633E-1,-2.065353513E-1,4.518709504E-1
4.044520208E0,6.995826615E-1,1.874880463E-1,-4.216469599E-1,8.380655265E-1
4.054547208E0,1.016206466E0,1.581525654E-1,-5.083637993E-1,1.147223416E0
4.064574208E0,1.252281658E0,1.702943087E-2,-6.883120072E-1,1.429081093E0
4.074600208E0,1.484395800E0,-1.607773805E-1,-8.511886843E-1,1.718662979E0
4.084627208E0,1.657905347E0,-3.197345227E-1,-1.055758202E0,1.991357749E0
4.094653208E0,1.774445325E0,-2.756283903E-1,-1.231159322E0,2.177241488E0
4.104680208E0,1.792321725E0,-3.328457344E-1,-1.435781465E0,2.320489574E0
4.114707208E0,1.862545761E0,-4.436615807E-1,-1.642874056E0,2.522884752E0
4.124733208E0,1.933305842E0,-6.302058864E-1,-1.880253469E0,2.769509712E0
4.134760208E0,2.148306207E0,-7.479834276E-1,-2.012056142E0,3.036950557E0
4.144787208E0,2.473096817E0,-8.001715815E-1,-1.969307148E0,3.261081580E0
4.154813208E0,2.702144533E0,-9.073411041E-1,-1.986053574E0,3.474084305E0
4.164840208E0,2.807414296E0,-1.065723465E0,-2.044511113E0,3.632818083E0
4.174866208E0,2.717391733E0,-1.257817363E0,-2.203568388E0,3.717799886E0
4.184893208E0,2.785937180E0,-1.036924174E0,-2.304826668E0,3.761500191E0
4.194920208E0,2.708352815E0,-9.002800065E-1,-2.591837395E0,3.855295078E0
4.204946208E0,2.602598611E0,-7.803465968E-1,-2.927642405E0,3.994189579E0
4.214973208E0,2.702197743E0,-6.576234806E-1,-3.075431365E0,4.146398361E0
4.224999208E0,2.986607774E0,-6.302240127E-1,-2.993455156E0,4.275252282E0
4.235026208E0,3.465304702E0,-9.988547069E-1,-2.672810222E0,4.488870892E0
4.245052917E0,3.727891755E0,-1.673049197E0,-2.545703448E0,4.814236865E0
4.255078917E0,3.684494305E0,-1.855004607E0,-2.728768076E0,4.945979740E0
4.265105917E0,3.229092100E0,-1.830365025E0,-2.990725091E0,4.766729328E0
4.275132917E0,3.122908418E0,-1.637120980E0,-2.603978553E0,4.383312263E0
4.285158917E0,3.234116904E0,-1.380285541E0,-1.652590374E0,3.885325632E0
4.295185917E0,3.065080332E0,-1.104537867E0,-8.879787073E-1,3.376866525E0
4.305211917E0,2.422406574E0,-7.792367953E-1,-7.749583876E-1,2.660042123E0
4.315238917E0,1.561751686E0,-4.416249955E-1,-1.144063876E0,1.985694618E0
4.325265917E0,8.361054260E-1,-2.962965435E-1,-1.252688770E0,1.534957029E0
4.335291917E0,2.482746039E-2,-4.136957699E-1,-1.061697657E0,1.139720364E0
4.345318917E0,-6.762531482E-1,-5.779569215E-1,-5.854804973E-1,1.064960063E0
4.355344917E0,-1.242583612E0,-9.391838712E-1,9.107396521E-2,1.560248328E0
4.365371917E0,-1.590792613E0,-1.362900599E0,7.527927625E-1,2.225941627E0
4.375398917E0,-1.631686139E0,-2.057210096E0,8.871876521E-1,2.771572652E0
4.385424917E0,-1.094947849E0,-2.948961938E0,8.721627930E-1,3.264346066E0
4.395451917E0,-2.117613003E-2,-3.653127501E0,2.333834267E0,4.335039948E0
4.405478917E0,5.409513554E-1,-3.934175091E0,3.027394735E0,4.993543921E0
4.415504917E0,1.105079758E0,-3.438936975E0,3.504552090E0,5.032829636E0
4.425531917E0,1.774370480E0,-2.662509182E0,3.589382325E0,4.808431264E0
4.435557917E0,2.407844376E0,-2.135512499E0,2.925735043E0,4.349488903E0
4.445584917E0,2.574051919E0,-1.672715321E0,2.769890374E0,4.134732459E0
4.455611917E0,2.202820529E0,-1.703495064E0,3.018635313E0,4.106881161E0
4.465637917E0,8.854638930E-1,-2.144425410E0,2.752942804E0,3.600180652E0
4.475664917E0,-4.889492892E-1,-2.381093802E0,2.325268973E0,3.363860119E0
4.485691917E0,-1.261314875E0,-2.376670384E0,1.730229703E0,3.198932971E0
4.495717917E0,-1.764603145E0,-2.129693350E0,1.564800570E0,3.177738008E0
4.505744917E0,-2.033809538E0,-1.696364384E0,1.814920482E0,3.210602704E0
4.515770917E0,-2.338452690E0,-9.971461505E-1,2.306374280E0,3.432495266E0
4.525797917E0,-2.722251354E0,-1.096756393E-1,2.798004664E0,3.905318333E0
4.535824917E0,-2.980139292E0,6.201153463E-1,3.043987378E0,4.304838255E0
4.545850917E0,-2.920918107E0,1.062982875E0,3.034024308E0,4.343615853E0
4.555877917E0,-2.830094476E0,1.241242261E0,2.945474074E0,4.269184303E0
4.565903917E0,-2.519289821E0,1.359109849E0,2.841201262E0,4.033165679E0
4.575930917E0,-2.433114434E0,1.503371184E0,2.636056963E0,3.889597290E0
4.585957917E0,-2.132910781E0,1.435775033E0,2.433454742E0,3.540121512E0
4.595983917E0,-1.908935524E0,1.442429749E0,2.385625687E0,3.378734724E0
4.606010917E0,-2.188726547E0,1.551124810E0,2.408654069E0,3.605291458E0
4.616036917E0,-2.469187953E0,1.871349914E0,2.457362545E0,3.954424146E0
4.626063917E0,-2.766264516E0,2.278195671E0,2.605031052E0,4.430415519E0
4.636090917E0,-2.910660337E0,2.740657804E0,2.807740570E0,4.885340920E0
4.646116917E0,-3.060876476E0,3.033254814E0,2.966830444E0,5.231795338E0
4.656143917E0,-3.042083233E0,3.143370164E0,2.982449234E0,5.294341302E0
4.666170917E0,-2.913452674E0,3.267495443E0,2.890357634E0,5.245845996E0
4.676196917E0,-2.673984635E0,3.399936631E0,2.715107226E0,5.107011863E0
4.686223917E0,-2.479770537E0,3.428648214E0,2.476032412E0,4.902614302E0
4.696249917E0,-2.220823960E0,3.532486578E0,2.216011702E0,4.724534723E0
4.706276917E0,-1.914004768E0,3.620241006E0,1.936102857E0,4.529685802E0
4.716303917E0,-1.500980112E0,3.447701951E0,1.520040719E0,4.055873991E0
4.726329917E0,-1.148049338E0,3.269025074E0,1.161083074E0,3.654128641E0
4.736356917E0,-9.525435895E-1,3.278258997E0,8.147676936E-1,3.509724738E0
4.746382917E0,-8.957457832E-1,3.307708499E0,4.063545907E-1,3.450857875E0
4.756409917E0,-7.714535666E-1,3.209819092E0,-1.736655208E-1,3.305788699E0
4.766436917E0,-5.130297312E-1,2.832635091E0,-1.002663876E0,3.048336581E0
4.776462917E0,-9.399486870E-2,2.192851465E0,-2.010532650E0,2.976520472E0
4.786489917E0,5.844875304E-1,1.124225442E0,-3.700819438E0,3.911722515E0
4.796516917E0,2.203498368E0,-2.811475772E-1,-3.787120833E0,4.390527670E0
4.806542917E0,4.129012502E0,-2.284879038E0,-4.323815416E0,6.400374693E0
4.816569917E0,5.157452366E0,-4.714489528E0,-4.455359641E0,8.287095749E0
4.826595917E0,6.236567709E0,-6.636706710E0,-3.465786220E0,9.744348458E0
4.836622917E0,5.851384133E0,-7.684530678E0,-4.065911398E0,1.047961562E1
4.846649917E0,4.939765205E0,-6.673463477E0,-4.603753496E0,9.493731685E0
4.856675917E0,3.810009466E0,-3.929656363E0,-4.422423445E0,7.036774857E0
4.866702917E0,2.245150132E0,-1.358336263E0,-3.719928724E0,4.552323168E0
4.876729917E0,4.551862966E-1,4.211316741E-1,-2.894309767E0,2.959995858E0
4.886755917E0,-1.282137541E0,8.600184184E-1,-2.212451625E0,2.697860364E0
4.896782917E0,-2.431325770E0,2.196108949E-1,-1.536895611E0,2.884722182E0
4.906808917E0,-3.003069733E0,-1.017300918E0,-5.066015947E-1,3.210914847E0
4.916835917E0,-3.637903398E0,-2.997279820E0,8.495188656E-1,4.789541706E0
4.926862917E0,-4.144258533E0,-5.547434753E0,2.300797791E0,7.296751441E0
4.936888917E0,-4.105678019E0,-7.903222976E0,2.943441582E0,9.379838684E0
4.946915917E0,-3.444868391E0,-8.847588065E0,1.180234752E0,9.567647927E0
4.956941917E0,-2.302853087E0,-6.232932495E0,-1.917423488E0,6.915858057E0
4.966968917E0,-2.377612078E0,-1.115815977E0,-2.861633772E0,3.884202921E0
4.976995917E0,-3.167684641E0,2.688695937E0,-4.469845533E-1,4.178888252E0
4.987021917E0,-3.511057702E0,5.689535542E0,2.848577524E0,7.267237081E0
4.997048917E0,-4.119697596E0,8.159026966E0,5.280171390E0,1.055565437E1
5.007074917E0,-5.069079888E0,9.471833884E0,6.672068331E0,1.264625256E1
5.017101917E0,-5.681502637E0,7.955661975E0,6.927913252E0,1.198198697E1
5.027128917E0,-4.024254664E0,3.967277348E0,5.682406032E0,8.013966151E0
5.037154917E0,-1.904268861E0,3.728412741E-1,5.593871001E0,5.920865079E0
5.047181917E0,4.415562907E-1,-2.708713295E0,5.565508497E0,6.205399625E0
5.057208917E0,3.397065064E0,-5.043950894E0,4.938682301E0,7.834033095E0
5.067234917E0,5.535959008E0,-5.442058572E0,3.747106290E0,8.619956449E0
5.077261917E0,6.038856391E0,-3.382111979E0,2.442197206E0,7.339672687E0
5.087287917E0,3.950535015E0,-2.327057344E-1,9.344424371E-1,4.066209726E0
5.097314917E0,2.787369163E-1,1.560393816E0,2.151576920E-1,1.599629946E0
5.107341917E0,-3.283386128E0,1.773658143E0,-7.936402416E-1,3.815278825E0
5.117367917E0,-4.401234890E0,1.108737922E0,-9.871409798E-1,4.644848291E0
5.127394917E0,-3.233098027E0,8.925073028E-2,-4.090723765E-1,3.260096433E0
5.137420917E0,-1.218340764E0,-9.053255689E-1,1.049879539E-1,1.521509472E0
5.147447917E0,5.865192917E-1,-1.291175144E0,4.713990176E-1,1.494441422E0
5.157474917E0,1.488810448E0,-1.004762734E0,5.443021023E-1,1.876797666E0
5.167500917E0,1.457525359E0,-2.703296435E-1,9.616797726E-2,1.485498761E0
5.177527917E0,1.050065206E0,2.455608380E-1,-2.577592993E-1,1.108772708E0
5.187554917E0,2.726157586E-1,3.519608670E-1,-1.185652197E0,1.266478162E0
5.197580917E0,3.993991815E-2,2.218193883E-1,-8.955326521E-1,9.234596738E-1
5.207607917E0,2.492447300E-1,1.637062508E-1,-3.209905046E-1,4.381296338E-1
5.217633917E0,6.450294551E-1,1.590559602E-1,1.921447688E-1,6.915789244E-1
5.227660917E0,1.114208650E0,2.242220092E-1,5.765945202E-1,1.274440139E0
5.237687917E0,1.485742706E0,3.679348755E-1,7.554801428E-1,1.706914675E0
5.247714417E0,1.779922704E0,5.029242808E-1,7.247138482E-1,1.986521539E0
5.257741417E0,1.913506000E0,7.394546789E-1,6.124221647E-1,2.140878171E0
5.267767417E0,1.902679442E0,9.590129489E-1,4.423366016E-1,2.176133397E0
5.277794417E0,1.641098548E0,1.086440150E0,2.181917757E-1,1.980192995E0
5.287821417E0,1.458178639E0,1.195755016E0,1.993532163E-1,1.896274428E0
5.297847417E0,5.888852213E-1,1.000108350E0,-3.682008507E-1,1.217610111E0
5.307874417E0,1.869949798E-1,1.086759408E0,-1.445934570E-1,1.112169232E0
5.317901417E0,2.146936058E-1,1.212219021E0,1.570320927E-2,1.231184345E0
5.327927417E0,6.866100289E-2,8.423650897E-1,-2.929935975E-1,8.945046259E-1
5.337954417E0,-1.091241007E-1,4.914970672E-1,-3.707750143E-1,6.252611836E-1
5.347980417E0,-1.616098047E-1,3.087008268E-1,-4.621277455E-1,5.787710969E-1
5.358007417E0,-9.945624121E-2,1.887060213E-1,-6.334407122E-1,6.683925810E-1
5.368034417E0,6.009373561E-2,1.693213320E-1,-7.455948400E-1,7.669371787E-1
5.378060417E0,4.182700833E-1,3.067449331E-1,-9.730690706E-1,1.102681156E0
5.388087417E0,8.782557379E-1,6.106861264E-1,-1.158716413E0,1.576989034E0
5.398113417E0,1.326723291E0,7.811406487E-1,-1.259718731E0,1.989287985E0
5.408140417E0,1.720991980E0,6.258900565E-1,-1.330151514E0,2.263372441E0
5.418167417E0,2.005686185E0,2.349001944E-1,-1.440307794E0,2.480411602E0
5.428193417E0,2.260755765E0,-9.141010702E-2,-1.351188042E0,2.635352265E0
5.438220417E0,2.443374397E0,-4.827893937E-1,-1.466559454E0,2.890321898E0
5.448247417E0,2.596333027E0,-8.510096133E-1,-1.713325987E0,3.225003641E0
5.458273417E0,2.891699570E0,-1.211713237E0,-1.775899381E0,3.603330957E0
5.468300417E0,3.395827501E0,-1.618672430E0,-1.535108117E0,4.063040952E0
5.478326417E0,3.979233150E0,-1.865637184E0,-1.034694484E0,4.515029484E0
5.488353417E0,4.305734655E0,-1.926743512E0,-7.831877589E-1,4.781743881E0
5.498380417E0,4.405728767E0,-2.062252734E0,-1.130956903E0,4.994236261E0
5.508406417E0,4.596259997E0,-2.639188147E0,-1.785218673E0,5.592667141E0
5.518433417E0,4.524520508E0,-3.365325208E0,-2.575627744E0,6.199238490E0
5.528459417E0,4.163040374E0,-3.779027410E0,-3.266910136E0,6.502665235E0
5.538486417E0,3.824644170E0,-3.685340397E0,-3.252377467E0,6.227968855E0
5.548513417E0,3.740255107E0,-3.422707443E0,-2.809117590E0,5.796169092E0
5.558539417E0,3.347206441E0,-2.908186964E0,-2.131270344E0,4.919721095E0
5.568566417E0,2.679233096E0,-2.230744931E0,-1.590542060E0,3.832014741E0
5.578593417E0,1.674972638E0,-1.673238646E0,-1.437694674E0,2.769878496E0
5.588619417E0,4.749873807E-1,-1.273733484E0,-1.428348484E0,1.971849232E0
5.598646417E0,-6.108809117E-1,-1.011846635E0,-1.145511646E0,1.645966595E0
5.608672417E0,-1.454445777E0,-7.342436403E-1,-6.185768708E-1,1.742745990E0
5.618699417E0,-2.270041582E0,-9.996481740E-1,-2.614802480E-1,2.494144578E0
5.628726417E0,-3.109695172E0,-1.639016063E0,-1.464049244E-1,3.518239918E0
5.638752417E0,-3.807723205E0,-2.267387093E0,3.503637001E-2,4.431819918E0
5.648779417E0,-3.568970280E0,-3.292533805E0,6.251199782E-1,4.895825028E0
5.658805417E0,-3.093572937E0,-4.405164803E0,1.613522495E0,5.619530701E0
5.668832417E0,-1.749636466E0,-5.061889567E0,2.810855090E0,6.048541980E0
5.678859417E0,-3.236379777E-1,-4.866541693E0,3.704404074E0,6.124588079E0
5.688885417E0,6.277355839E-1,-4.007355918E0,3.658681186E0,5.462499560E0
5.698912417E0,1.860531688E0,-2.650741661E0,3.626707442E0,4.862202832E0
5.708939417E0,2.706398383E0,-1.565603101E0,3.148645230E0,4.437304594E0
5.718965417E0,2.803227397E0,-1.103566645E0,2.668976495E0,4.024845178E0
5.728992417E0,1.990308593E0,-8.432591289E-1,2.441859237E0,3.261148691E0
5.739018417E0,9.758165310E-1,-7.793771285E-1,2.673826468E0,2.951100573E0
5.749045417E0,-1.892746630E-1,-8.376826394E-1,3.376715291E0,3.484213435E0
5.759072417E0,-1.294170088E0,-7.121195304E-1,3.790618930E0,4.068265271E0
5.769098417E0,-1.877911659E0,-3.548359430E-1,3.650657052E0,4.120650150E0
5.779125417E0,-2.331015032E0,8.332925498E-2,3.417422730E0,4.137553982E0
5.789151417E0,-2.680335588E0,6.409647632E-1,3.356673083E0,4.343073667E0
5.799178417E0,-2.961715300E0,1.321010562E0,3.545353961E0,4.804826858E0
5.809205417E0,-3.211892807E0,1.893235458E0,3.764092744E0,5.298017562E0
5.819231417E0,-3.311607130E0,2.167270482E0,3.902172402E0,5.557944996E0
5.829258417E0,-3.224512853E0,2.079742926E0,4.091399118E0,5.609131886E0
5.839284417E0,-3.004247947E0,1.850834373E0,4.347037048E0,5.598912814E0
5.849311417E0,-2.692806238E0,1.662211382E0,4.477025329E0,5.482509272E0
5.859338417E0,-2.577811094E0,1.601776900E0,4.436707023E0,5.375422633E0
5.869364417E0,-2.760246854E0,1.544615105E0,4.183137839E0,5.244372288E0
5.879391417E0,-2.977560670E0,1.570317711E0,3.786629375E0,5.066589314E0
5.889418417E0,-3.276107807E0,1.788566204E0,3.440395855E0,5.076236309E0
5.899444417E0,-3.418930727E0,2.056421891E0,3.226478979E0,5.131093929E0
5.909471417E0,-3.396095303E0,2.420597007E0,3.073233982E0,5.180494212E0
5.919497417E0,-3.357962686E0,2.834337215E0,2.959672868E0,5.298022682E0
5.929524417E0,-3.266949897E0,3.168231940E0,2.841179042E0,5.364974707E0
5.939551417E0,-3.118418341E0,3.410211943E0,2.661905749E0,5.332899836E0
5.949577417E0,-2.966072060E0,3.497314991E0,2.380666371E0,5.166852813E0
5.959604417E0,-2.846569591E0,3.444025807E0,1.979723378E0,4.887082652E0
5.969630417E0,-2.535645360E0,3.090187984E0,1.452902112E0,4.253196881E0
5.979657417E0,-2.259754430E0,2.690238433E0,9.648291743E-1,3.643455536E0
5.989684417E0,-2.201911434E0,2.483823534E0,4.233457223E-1,3.346194094E0
5.999710417E0,-1.998947416E0,2.153896730E0,-2.037243024E-1,2.945601040E0
6.009737417E0,-1.140864279E0,1.575808246E0,-1.010799107E0,2.192363511E0
6.019764417E0,-1.058550686E-2,6.883570307E-1,-2.372647207E0,2.470506471E0
6.029790417E0,1.386753731E0,-3.511188680E-1,-4.207408169E0,4.443945755E0
6.039817417E0,2.831307773E0,-1.500944590E0,-6.024914290E0,6.824128558E0
6.049843417E0,5.419520479E0,-2.885991518E0,-6.860003690E0,9.206508561E0
6.059870417E0,7.342973762E0,-4.763664612E0,-6.989069281E0,1.120084165E1
6.069897417E0,8.134855161E0,-6.047463493E0,-5.214832263E0,1.139921746E1
6.079923417E0,7.076128474E0,-6.637901296E0,-3.648943233E0,1.036571823E1
6.089950417E0,5.134164076E0,-5.993690743E0,-3.519680591E0,8.641303197E0
6.099976417E0,3.833522582E0,-3.996608736E0,-4.363323298E0,7.050345167E0
6.110003417E0,2.151098545E0,-1.752654945E0,-3.881205164E0,4.771035300E0
6.120030417E0,1.455371976E-2,-1.428351992E-1,-2.710443779E0,2.714243759E0
6.130056417E0,-2.056293983E0,2.100846112E-1,-1.642031764E0,2.639838783E0
6.140083417E0,-3.486782109E0,-3.397179669E-1,-1.054535695E0,3.658565745E0
6.150110417E0,-4.319642258E0,-1.312393520E0,-1.921687424E-1,4.518696141E0
6.160136417E0,-4.725436100E0,-2.737668707E0,9.761005595E-1,5.547733645E0
6.170163417E0,-4.626581903E0,-4.593223538E0,1.992139502E0,6.817006848E0
6.180189417E0,-4.131226258E0,-6.117249427E0,1.415545421E0,7.516085403E0
6.190216417E0,-3.718318108E0,-6.941131468E0,-1.470144235E0,8.010400719E0
6.200243417E0,-3.161162657E0,-5.851804547E0,-4.774553297E0,8.187363738E0
6.210269417E0,-3.112771685E0,-1.620794969E0,-4.208781388E0,5.479978528E0
6.220296417E0,-4.049390967E0,3.045482512E0,1.277647318E0,5.225410376E0
6.230322417E0,-5.561966254E0,6.902026459E0,8.902592822E0,1.256302499E1
6.240349417E0,-6.592326928E0,9.122243478E0,1.108039180E1,1.579396033E1
6.250376583E0,-7.043426167E0,8.972782214E0,7.352999983E0,1.357156150E1
6.260402583E0,-4.557602300E0,6.098914313E0,4.385928341E0,8.786629725E0
6.270429583E0,-1.099870912E0,1.601320233E0,3.850227785E0,4.312562638E0
6.280456583E0,2.524364327E0,-2.658036647E0,4.864225026E0,6.090834030E0
6.290482583E0,5.148989106E0,-5.728688498E0,5.925211662E0,9.717926423E0
6.300509583E0,5.458962872E0,-6.784748855E0,5.301571029E0,1.019508450E1
6.310535583E0,3.714417431E0,-5.201843258E0,2.538647028E0,6.877557624E0
6.320562583E0,6.824631836E-1,-2.081007094E0,-9.231233239E-2,2.192000932E0
6.330589583E0,-1.925135820E0,5.739170802E-1,-1.528124202E0,2.524023042E0
6.340615583E0,-2.794061594E0,1.938863035E0,-3.999343479E-1,3.424312711E0
6.350642583E0,-2.314151516E0,2.494559022E0,7.460824978E-1,3.483498392E0
6.360668583E0,-1.679376761E0,2.288145878E0,1.455198898E0,3.189595852E0
6.370695583E0,-1.551509557E0,1.653915938E0,2.266930425E0,3.206492380E0
6.380722583E0,-1.330380286E0,8.011965984E-1,2.681853526E0,3.099058894E0
6.390748583E0,-8.120054689E-1,-2.653875768E-2,2.431355299E0,2.563502638E0
6.400775583E0,-2.796544906E-1,-4.607693642E-1,2.144495577E0,2.211193415E0
6.410801583E0,7.327949926E-2,-5.344384342E-1,1.524842745E0,1.617448522E0
6.420828583E0,1.449353729E-1,-3.644657224E-1,6.888511205E-1,7.926899718E-1
6.430855583E0,-2.760105059E-2,-3.524643123E-2,-2.203874052E-1,2.248882773E-1
6.440881583E0,-2.072212297E-1,3.036371380E-1,-6.521645200E-1,7.486352321E-1
6.450908583E0,-1.881036119E-1,5.460439879E-1,-6.478469360E-1,8.679012951E-1
6.460935583E0,1.520790625E-1,6.422914964E-1,-3.991420501E-1,7.713499749E-1
6.470961583E0,8.676257922E-1,6.653453135E-1,-8.698667010E-2,1.096825229E0
6.480988583E0,1.609849420E0,7.014477772E-1,-3.124572974E-2,1.756308753E0
6.491014583E0,2.134778089E0,7.389716989E-1,-2.269012034E-1,2.270427452E0
6.501041583E0,2.337501640E0,7.380811679E-1,-5.114209064E-1,2.504042546E0
6.511068583E0,2.380694145E0,7.816587120E-1,-5.804940283E-1,2.572094141E0
6.521094583E0,2.041320141E0,6.164836407E-1,-3.237883973E-1,2.156821486E0
6.531121583E0,1.854895557E0,4.965894073E-1,-3.676343651E-1,1.955094267E0
6.541147583E0,1.728999157E0,7.162915188E-1,-4.476020559E-1,1.924281483E0
6.551174583E0,1.639398324E0,5.288648683E-1,-7.956505875E-1,1.897467990E0
6.561201583E0,1.238171157E0,6.464389265E-2,-8.381083898E-1,1.496553481E0
6.571227583E0,1.003968536E0,-1.258431906E-1,-6.434007132E-1,1.199063721E0
6.581254583E0,6.614459516E-1,-4.790039063E-2,-9.405912960E-1,1.150876701E0
6.591281583E0,5.546094279E-1,1.366564465E-1,-9.486247855E-1,1.107319098E0
6.601307583E0,6.287003745E-1,3.125137961E-1,-8.131676030E-1,1.074323315E0
6.611334583E0,6.590270316E-1,4.749009150E-1,-8.225887831E-1,1.156070851E0
6.621360583E0,7.872933083E-1,6.194645512E-1,-9.769446782E-1,1.399281240E0
6.631387583E0,1.045105963E0,6.457781911E-1,-1.272473117E0,1.768746387E0
6.641414583E0,1.312942866E0,5.400114155E-1,-1.375552951E0,1.976759272E0
6.651440583E0,1.538422903E0,2.757213610E-1,-1.345309982E0,2.062189673E0
6.661467583E0,1.746334982E0,-6.137296021E-2,-1.267826188E0,2.158896883E0
6.671493583E0,1.889859275E0,-4.277255791E-1,-1.385734415E0,2.382179070E0
6.681520583E0,2.040934225E0,-8.370675123E-1,-1.493628554E0,2.664023421E0
6.691547583E0,2.364567086E0,-1.206809177E0,-1.504085714E0,3.051202997E0
6.701573583E0,2.753593599E0,-1.519519440E0,-1.445617212E0,3.461361894E0
6.711600583E0,3.213339408E0,-1.633333154E0,-1.359129438E0,3.852344763E0
6.721627583E0,3.602608727E0,-1.512930213E0,-1.274836415E0,4.110104056E0
6.731653583E0,3.735638731E0,-1.385962602E0,-1.457524921E0,4.242672266E0
6.741680583E0,3.781737302E0,-1.334912317E0,-1.842137809E0,4.413275385E0
6.751706583E0,3.983136166E0,-1.647119134E0,-2.297442951E0,4.884323830E0
6.761733583E0,4.066547282E0,-2.482112054E0,-2.864602404E0,5.559103703E0
6.771760583E0,3.652256266E0,-3.082663786E0,-3.514677129E0,5.932516091E0
6.781786583E0,3.061183747E0,-2.778077061E0,-3.822646469E0,5.630380459E0
6.791813583E0,2.995024549E0,-2.253458440E0,-3.433354053E0,5.082928983E0
6.801839583E0,3.251135518E0,-1.886118227E0,-2.325229504E0,4.419730350E0
6.811866583E0,3.168253575E0,-1.623648410E0,-1.230148923E0,3.766607393E0
6.821893583E0,2.537638384E0,-1.517096354E0,-7.421531689E-1,3.048275125E0
6.831919583E0,1.445200452E0,-1.542522386E0,-6.898159111E-1,2.223471531E0
6.841946583E0,1.809713975E-1,-1.704766833E0,-8.370511401E-1,1.907782800E0
6.851973583E0,-1.250942792E0,-2.051493273E0,-8.163542625E-1,2.537699115E0
6.861999583E0,-2.519334260E0,-2.734932210E0,-7.528160783E-1,3.793893957E0
6.872026583E0,-3.758739910E0,-3.438161634E0,-7.944154362E-1,5.155596670E0
6.882052583E0,-5.278249995E0,-4.040353510E0,-6.858911137E-1,6.682426664E0
6.892079583E0,-5.735994594E0,-4.619393921E0,9.733538300E-2,7.365453710E0
6.902106583E0,-5.352451161E0,-4.991838169E0,1.481829165E0,7.467462716E0
6.912132583E0,-3.666448628E0,-4.884355236E0,3.226293622E0,6.907151522E0
6.922159583E0,-1.295017349E0,-4.356248751E0,4.134915267E0,6.144224718E0
6.932185583E0,4.137304147E-1,-3.370270198E0,3.773476648E0,5.076319540E0
6.942212583E0,1.910817012E0,-2.298169175E0,3.392694855E0,4.521413671E0
6.952239583E0,2.829537821E0,-1.601854668E0,1.903416045E0,3.767653819E0
6.962265583E0,3.347132181E0,-1.082558184E0,1.709599849E0,3.911260373E0
6.972292583E0,2.570463483E0,-1.069142332E0,1.458636476E0,3.142923514E0
6.982318583E0,5.866490999E-1,-9.591620529E-1,1.917587064E0,2.222901068E0
6.992345583E0,-1.351224294E0,-7.108658874E-1,2.537172653E0,2.961145466E0
7.002372583E0,-2.210580808E0,-4.054465181E-1,2.896738993E0,3.666353936E0
7.012398583E0,-2.895306718E0,-4.093401790E-2,2.662983976E0,3.933949700E0
7.022425583E0,-3.042760925E0,5.098491383E-1,3.731492470E0,4.841732773E0
7.032452583E0,-3.263217620E0,1.172791831E0,3.724940372E0,5.089126712E0
7.042478583E0,-3.558866292E0,1.769092637E0,3.869671531E0,5.547033063E0
7.052505583E0,-3.498757207E0,2.199510859E0,3.788194090E0,5.606207673E0
7.062531583E0,-3.272239581E0,2.285367866E0,3.651318957E0,5.409490575E0
7.072558583E0,-3.017919614E0,2.087130298E0,3.603138485E0,5.142621765E0
7.082585583E0,-2.857338408E0,1.836609852E0,3.774927634E0,5.078148990E0
7.092611583E0,-2.820126727E0,1.763592746E0,4.067224390E0,5.254111568E0
7.102638583E0,-3.068807347E0,1.901994587E0,4.264973715E0,5.587947989E0
7.112664583E0,-3.249148342E0,2.145500713E0,4.179189799E0,5.711896850E0
7.122691583E0,-3.388731027E0,2.305022696E0,3.874655113E0,5.639998214E0
7.132718583E0,-3.445274187E0,2.317760271E0,3.569978925E0,5.476009169E0
7.142744583E0,-3.334244625E0,2.478817148E0,3.420268570E0,5.381445787E0
7.152771583E0,-3.351903217E0,2.706149291E0,3.325709152E0,5.442319407E0
7.162797583E0,-3.277666967E0,3.006207933E0,3.120616017E0,5.433105116E0
7.172824583E0,-3.065974956E0,3.323925167E0,2.907611306E0,5.376140293E0
7.182851583E0,-2.730116444E0,3.482700461E0,2.629340851E0,5.147443211E0
7.192877583E0,-2.313932099E0,3.500401736E0,2.264051841E0,4.767916192E0
7.202904583E0,-1.848163365E0,3.422376491E0,1.848555713E0,4.306451775E0
7.212931583E0,-1.257290529E0,3.040924607E0,1.317851896E0,3.544677074E0
7.222957583E0,-7.973774895E-1,2.490440828E0,6.927202231E-1,2.705174243E0
7.232984583E0,-3.952146216E-1,2.039977766E0,-1.305215478E-2,2.077949528E0
7.243010583E0,4.860454157E-2,1.843744040E0,-9.172226062E-1,2.059866936E0
7.253037042E0,4.988426319E-1,1.310422423E0,-2.336912241E0,2.725290759E0
7.263064042E0,1.750792168E0,4.292008317E-1,-3.312115545E0,3.770887953E0
7.273090042E0,3.186715574E0,-8.297304261E-1,-4.907965708E0,5.910307616E0
7.283117042E0,4.367551419E0,-2.496858732E0,-6.282618041E0,8.048670597E0
7.293143042E0,5.541914397E0,-4.384803044E0,-6.873086250E0,9.857922069E0
7.303170042E0,5.954586319E0,-6.054564351E0,-6.163665794E0,1.049312269E1
7.313197042E0,5.175979854E0,-6.877752328E0,-4.901586980E0,9.905543875E0
7.323223042E0,4.034586986E0,-6.264543713E0,-4.418129542E0,8.662694080E0
7.333250042E0,3.406254548E0,-4.326846612E0,-4.221609887E0,6.938743523E0
7.343277042E0,2.196938377E0,-2.164587779E0,-3.896680698E0,4.969516973E0
7.353303042E0,5.132859854E-1,-4.954199642E-1,-3.268756102E0,3.345694233E0
7.363330042E0,-1.118293442E0,-2.008460104E-2,-2.359511437E0,2.611183225E0
7.373356042E0,-2.365530853E0,-5.157343608E-1,-1.418178714E0,2.805877584E0
7.383383042E0,-3.239907694E0,-1.101570990E0,-7.236777216E-2,3.422820125E0
7.393410042E0,-3.718683852E0,-2.063582391E0,1.517032619E0,4.515348252E0
7.403436042E0,-3.957701948E0,-3.721434090E0,2.077230523E0,5.816129558E0
7.413463042E0,-4.072134882E0,-5.479247448E0,5.457815941E-1,6.848526311E0
7.423489042E0,-3.820018730E0,-6.206878472E0,-2.567811770E0,7.727324295E0
7.433516042E0,-3.325692195E0,-4.533234614E0,-4.228394119E0,7.034895981E0
7.443543042E0,-3.175711114E0,-8.587753004E-1,-2.154085303E0,3.932266469E0
7.453569042E0,-3.751268046E0,3.106005287E0,4.115592850E0,6.376314398E0
7.463596042E0,-4.464971294E0,6.121867558E0,9.974063516E0,1.252578038E1
7.473622042E0,-4.828448837E0,7.679643576E0,9.741149036E0,1.331092890E1
7.483649042E0,-4.880570333E0,7.314699551E0,6.568008943E0,1.097558827E1
7.493676042E0,-2.800587671E0,5.082862945E0,3.950906021E0,7.020573011E0
7.503702042E0,-1.574355505E-1,1.612445145E0,3.925681425E0,4.246850592E0
7.513729042E0,2.779312577E0,-1.792527108E0,4.859166892E0,5.877859706E0
7.523756042E0,4.805030739E0,-4.582658789E0,5.080521719E0,8.360668808E0
7.533782042E0,4.980560060E0,-5.989308840E0,4.020297561E0,8.765876531E0
7.543809042E0,3.840565261E0,-4.948948258E0,2.002078307E0,6.576499672E0
7.553835042E0,1.872041201E0,-2.282754745E0,1.349269862E-1,2.955285566E0
7.563862042E0,-2.287414683E-1,2.353574467E-1,-9.047265217E-2,3.404424883E-1
7.573889042E0,-1.838317531E0,1.889059376E0,-2.317966385E-1,2.646069983E0
7.583915042E0,-2.174061876E0,2.666289407E0,6.692771275E-1,3.504793306E0
7.593942042E0,-1.872681764E0,2.580629452E0,1.133595094E0,3.384024703E0
7.603968042E0,-1.683276123E0,1.715247967E0,1.589878986E0,2.881528984E0
7.613995042E0,-1.451925773E0,4.439381540E-1,1.864768434E0,2.404689346E0
7.624022042E0,-7.226548974E-1,-5.978918338E-1,2.165550377E0,2.359939232E0
7.634048042E0,-2.989049864E-1,-1.101968601E0,2.008274163E0,2.310161055E0
7.644075042E0,-4.388349965E-2,-9.861212254E-1,1.723957980E0,1.986552780E0
7.654102042E0,-9.179397672E-3,-5.490365928E-1,1.227785479E0,1.344984247E0
7.664128042E0,-2.480649081E-1,7.151729465E-3,6.785682070E-1,7.225248490E-1
7.674155042E0,-4.302081607E-1,4.812311107E-1,3.561352308E-1,7.372209615E-1
7.684181042E0,-5.603958325E-1,7.946535641E-1,-8.182242751E-2,9.758138581E-1
7.694208042E0,-8.640967052E-1,8.263899118E-1,-1.356908519E-2,1.195728867E0
7.704235042E0,-7.095496792E-1,7.676552153E-1,1.027133596E-1,1.050383411E0
7.714261042E0,-4.599497308E-1,6.912636817E-1,1.816039932E-1,8.499289634E-1
7.724288042E0,5.584237128E-3,5.808220571E-1,1.838411379E-1,6.092479050E-1
7.734314042E0,5.698674448E-1,5.492044079E-1,9.794319193E-2,7.974755514E-1
7.744341042E0,1.004784514E0,6.754604119E-1,3.084698617E-2,1.211111153E0
7.754368042E0,1.209577395E0,7.567419720E-1,-7.785395879E-2,1.428914667E0
7.764394042E0,1.282689811E0,7.381922650E-1,-1.942866405E-1,1.492638023E0
7.774421042E0,1.276138882E0,4.289844847E-1,-3.043803557E-1,1.380291830E0
7.784447042E0,1.082632224E0,4.369168174E-1,-1.752510665E-1,1.180551470E0
7.794474042E0,8.973984256E-1,4.928220463E-1,-3.120436069E-1,1.070312439E0
7.804501042E0,7.884628245E-1,2.699992758E-1,-6.525066552E-1,1.058460283E0
7.814527042E0,8.203834326E-1,1.165800315E-1,-8.425744200E-1,1.181757815E0
7.824554042E0,9.238373420E-1,1.279867798E-1,-1.028203563E0,1.388185369E0
7.834580042E0,1.028290029E0,1.952560723E-1,-1.156846985E0,1.560064186E0
7.844607042E0,1.334121335E0,2.929396570E-1,-1.315164515E0,1.896141103E0
7.854634042E0,1.724485399E0,3.701234883E-1,-1.695874388E0,2.446800201E0
7.864660042E0,1.903374237E0,3.519754851E-1,-2.169704093E0,2.907634103E0
7.874687042E0,2.017520804E0,1.646856594E-1,-2.495747176E0,3.213450720E0
7.884714042E0,2.218150613E0,-1.086038446E-1,-2.503987657E0,3.346930105E0
7.894740042E0,2.464903699E0,-4.422939169E-1,-2.339528870E0,3.427064266E0
7.904767042E0,2.721208211E0,-6.972377819E-1,-2.063750206E0,3.485710769E0
7.914793042E0,2.954558308E0,-9.282998639E-1,-1.860889830E0,3.613041156E0
7.924820042E0,3.214750049E0,-1.145464869E0,-1.769608362E0,3.844245231E0
7.934847042E0,3.422281766E0,-1.391283569E0,-1.682210029E0,4.059250305E0
7.944873042E0,3.661328806E0,-1.476796759E0,-1.492340997E0,4.220585142E0
7.954900042E0,3.886111270E0,-1.538231115E0,-1.350180566E0,4.392152471E0
7.964926042E0,3.989878298E0,-1.599438599E0,-1.420078767E0,4.527025113E0
7.974953042E0,3.935397451E0,-1.745592678E0,-1.950436576E0,4.726378077E0
7.984980042E0,3.741371341E0,-2.184099938E0,-2.730347993E0,5.120835109E0
7.995006042E0,3.339001628E0,-2.612561681E0,-3.608824902E0,5.567587232E0
8.005033042E0,2.650076247E0,-2.624650215E0,-4.404339761E0,5.771473087E0
8.015060042E0,2.151339158E0,-2.318102333E0,-4.630663844E0,5.607575790E0
8.025086042E0,1.876782124E0,-1.858447448E0,-3.808234836E0,4.634521618E0
8.035113042E0,1.896029403E0,-1.396521505E0,-2.152432002E0,3.190323391E0
8.045139042E0,1.587844155E0,-1.102311832E0,-7.791987153E-1,2.084104382E0
8.055166042E0,5.153803119E-1,-1.167197215E0,-6.595190748E-1,1.436290923E0
8.065193042E0,-1.122851931E0,-1.516890532E0,-4.605862733E-1,1.942651039E0
8.075219042E0,-2.136839232E0,-2.622352259E0,2.138092875E-2,3.382790331E0
8.085246042E0,-3.359904254E0,-4.027325329E0,5.856733458E-1,5.277434905E0
8.095272042E0,-4.708235931E0,-5.397957117E0,5.516122913E-1,7.183989333E0
8.105299042E0,-5.381070358E0,-6.461159263E0,1.055394066E0,8.474453012E0
8.115326042E0,-5.993533453E0,-6.402913393E0,1.842135178E0,8.961763509E0
8.125352042E0,-4.767971963E0,-5.604301849E0,2.826580299E0,7.882341787E0
8.135379042E0,-2.072454810E0,-4.918680730E0,3.438387629E0,6.349094310E0
8.145405042E0,5.235529652E-1,-3.858644267E0,4.542463274E0,5.983077459E0
8.155432042E0,2.181065817E0,-2.687836981E0,4.183852661E0,5.430114071E0
8.165459042E0,2.408821153E0,-1.862728779E0,3.583520492E0,4.702530911E0
8.175485042E0,2.153614017E0,-1.097280888E0,2.076059472E0,3.186236277E0
8.185512042E0,2.109979755E0,-6.947287416E-1,1.007864681E0,2.439355203E0
8.195539042E0,1.032936227E0,-4.423465419E-1,1.246543639E0,1.678242758E0
8.205565042E0,-5.141465494E-1,-1.402706105E-1,1.902992999E0,1.976209724E0
8.215592042E0,-1.674875282E0,1.713965088E-1,2.685330280E0,3.169476721E0
8.225618042E0,-2.209807514E0,6.602705151E-1,2.835140915E0,3.654754494E0
8.235645042E0,-2.074235141E0,9.655366874E-1,3.842622312E0,4.472187244E0
8.245674708E0,-2.178578997E0,1.107097778E0,4.035482195E0,4.717731285E0
8.255700708E0,-2.352242763E0,1.374296823E0,4.302493544E0,5.092463890E0
8.265727708E0,-2.587865089E0,1.763827804E0,4.500819404E0,5.483202490E0
8.275753708E0,-3.094349739E0,2.072422796E0,4.297119660E0,5.686402547E0
8.285780708E0,-3.548181674E0,2.090618747E0,4.049498848E0,5.775700898E0
8.295807708E0,-3.785360529E0,1.934933707E0,3.788646079E0,5.694450096E0
8.305833708E0,-3.693958608E0,1.844940380E0,3.594247501E0,5.474280802E0
8.315860708E0,-3.809099932E0,1.815416619E0,3.472607874E0,5.464795077E0
8.325886708E0,-3.983496355E0,1.957978753E0,3.358357081E0,5.566011704E0
8.335913708E0,-3.958687788E0,2.159267982E0,3.132100533E0,5.490327948E0
8.345940708E0,-3.650192783E0,2.203851832E0,2.975627580E0,5.199541302E0
8.355966708E0,-3.129887654E0,2.113580178E0,2.918676869E0,4.773059036E0
8.365993708E0,-2.685470906E0,2.145527610E0,2.926990440E0,4.514677812E0
8.376020708E0,-2.461687145E0,2.358593132E0,2.887624938E0,4.467800683E0
8.386046708E0,-2.260693054E0,2.582968338E0,2.743215376E0,4.394051561E0
8.396073708E0,-2.049897275E0,2.638687626E0,2.458371189E0,4.148293641E0
8.406099708E0,-1.691253333E0,2.542459413E0,1.955133498E0,3.625877093E0
8.416126708E0,-1.353455592E0,2.363595425E0,1.328928276E0,3.030589998E0
8.426153708E0,-1.114883638E0,2.059869994E0,7.146537137E-1,2.448828260E0
8.436179708E0,-8.216551289E-1,1.591107486E0,1.545044875E-1,1.797390280E0
8.446206708E0,-4.081768754E-1,1.021154233E0,-4.747942033E-1,1.197828813E0
8.456232708E0,-1.146165365E-1,4.616996562E-1,-1.105117326E0,1.203157441E0
8.466259708E0,2.781997034E-1,-3.010965228E-2,-1.708153540E0,1.730921773E0
8.476286708E0,8.717831625E-1,-2.758628637E-1,-2.472139336E0,2.635826075E0
8.486312708E0,1.580504145E0,-3.210846448E-1,-3.399782557E0,3.762925742E0
8.496339708E0,2.184491116E0,-3.203385401E-1,-4.166854513E0,4.715643620E0
8.506366708E0,2.589920385E0,-5.702233940E-1,-4.693412070E0,5.390821753E0
8.516392708E0,2.737517849E0,-1.156356477E0,-4.731211688E0,5.587085851E0
8.526419708E0,2.988282709E0,-1.905752007E0,-4.175863025E0,5.477185068E0
8.536445708E0,2.963095828E0,-2.805815667E0,-3.390332287E0,5.305364404E0
8.546472708E0,2.430195650E0,-3.465963975E0,-2.840558945E0,5.097796808E0
8.556499708E0,2.130206590E0,-3.275527178E0,-3.228645665E0,5.068630114E0
8.566525708E0,1.840006792E0,-2.364810476E0,-3.746172197E0,4.797057401E0
8.576552708E0,7.145512412E-1,-1.362135199E0,-3.543061560E0,3.862548510E0
8.586578708E0,-1.080871554E0,-6.444613981E-1,-3.273741146E0,3.507277420E0
8.596605708E0,-3.001539516E0,-6.104615933E-1,-2.758139809E0,4.121800339E0
8.606632708E0,-4.117751350E0,-8.632004732E-1,-1.883410089E0,4.609579677E0
8.616658708E0,-4.429341871E0,-9.321841693E-1,-7.739634839E-1,4.592064482E0
8.626685708E0,-4.000320256E0,-1.614023893E0,2.275025895E-1,4.319651920E0
8.636711708E0,-3.419899026E0,-3.435449696E0,2.945967579E-1,4.856419587E0
8.646738708E0,-2.892235175E0,-5.663330660E0,-8.688848439E-1,6.418200632E0
8.656765708E0,-2.663220788E0,-6.765617934E0,-2.544256262E0,7.703218219E0
8.666791708E0,-2.695923681E0,-5.339784923E0,-2.092355955E0,6.337133497E0
8.676818708E0,-2.477508834E0,-1.615356474E0,1.331293183E0,3.243419198E0
8.686845708E0,-2.540184846E0,2.349204842E0,6.191300320E0,7.092496182E0
8.696871708E0,-2.647707540E0,5.685643051E0,8.921689829E0,1.090566098E1
8.706898708E0,-2.773841922E0,7.744318458E0,9.220666151E0,1.235675328E1
8.716924708E0,-1.809264909E0,8.037201982E0,6.247359331E0,1.033922404E1
8.726951708E0,3.330237821E-2,5.888794618E0,4.644451579E0,7.499996105E0
8.736978708E0,1.355988606E0,2.046201543E0,5.844807769E0,6.339355149E0
8.747004708E0,2.202585618E0,-1.794925636E0,6.196407863E0,6.816788969E0
8.757031708E0,2.402661842E0,-4.772620792E0,4.953260579E0,7.285978556E0
8.767057708E0,2.380572085E0,-6.315496350E0,2.095824377E0,7.067184547E0
8.777084708E0,1.297905435E0,-5.883930904E0,-1.853883111E-1,6.028231103E0
8.787111708E0,-5.957805504E-1,-3.259404650E0,-4.389656818E-1,3.342359048E0
8.797137708E0,-2.935571522E0,-4.855510336E-1,2.112528849E-1,2.982946152E0
8.807164708E0,-4.420564615E0,9.523436147E-1,-1.153945816E-1,4.523457282E0
8.817190708E0,-4.587128985E0,1.572229750E0,-3.333519571E-1,4.860533123E0
8.827217708E0,-3.449144459E0,1.359824964E0,3.446093090E-1,3.723503325E0
8.837244708E0,-2.069596983E0,8.747504783E-1,1.135770185E0,2.517616727E0
8.847270708E0,-8.503120404E-1,4.860632497E-1,1.822070750E0,2.068629949E0
8.857297708E0,-2.936764061E-2,3.656152850E-1,2.208245430E0,2.238500586E0
8.867324708E0,4.200413145E-1,2.762002480E-1,1.679183511E0,1.752820169E0
8.877350708E0,8.525985941E-1,3.316663510E-1,1.597400844E0,1.840819488E0
8.887377708E0,9.515226656E-1,6.066772753E-1,1.033901163E0,1.530491527E0
8.897403708E0,7.377183482E-1,8.166279852E-1,6.543771064E-1,1.280358944E0
8.907430708E0,5.260086496E-1,8.143493253E-1,1.177968462E-1,9.765889719E-1
8.917457708E0,5.226678430E-1,5.357341772E-1,-2.970572662E-1,8.052551162E-1
8.927483708E0,8.610960603E-1,1.931820649E-1,-5.414053917E-1,1.035338367E0
8.937510708E0,1.449905560E0,7.846904933E-2,-6.663399249E-1,1.597620863E0
8.947536708E0,2.039551358E0,3.798544246E-1,-6.233359927E-1,2.166242573E0
8.957563708E0,2.444207917E0,8.583186328E-1,-4.306866091E-1,2.626091044E0
8.967590708E0,2.610753722E0,1.262526711E0,-4.425054034E-2,2.900339084E0
8.977616708E0,2.657719143E0,1.493207554E0,2.682392273E-1,3.060243802E0
8.987643708E0,2.594045011E0,1.326951917E0,1.924751000E-1,2.920088624E0
8.997670708E0,2.376130686E0,1.029150301E0,1.331358379E-1,2.592850271E0
9.007696708E0,2.178411035E0,1.261021637E0,3.466358078E-1,2.540827934E0
9.017723708E0,2.105587180E0,1.139210102E0,-2.886529170E-2,2.394186759E0
9.027749708E0,1.475994228E0,6.523872989E-1,-5.842953032E-1,1.716266049E0
9.037776708E0,5.287604955E-1,2.392306423E-1,-9.562770367E-1,1.118608391E0
9.047803708E0,4.748596922E-1,1.683676511E-1,-7.215318666E-1,8.800270607E-1
9.057829708E0,4.436268628E-1,2.045654243E-1,-9.208067302E-1,1.042370779E0
9.067856708E0,4.099950671E-1,2.424471956E-1,-9.192577296E-1,1.035331527E0
9.077882708E0,4.798614004E-1,2.664353979E-1,-8.445327256E-1,1.007219097E0
9.087909708E0,4.949538680E-1,4.119117844E-1,-8.911542571E-1,1.099457393E0
9.097936708E0,6.371040659E-1,5.187252116E-1,-9.959515643E-1,1.291083636E0
9.107962708E0,9.804812204E-1,4.394790673E-1,-1.135089569E0,1.562982279E0
9.117989708E0,1.406374648E0,2.871111524E-1,-1.177994830E0,1.856877562E0
9.128015708E0,1.858655317E0,6.235646188E-2,-1.143474549E0,2.183122067E0
9.138042708E0,2.306790602E0,-1.025905681E-1,-1.058179826E0,2.539990600E0
9.148069708E0,2.678468865E0,-1.862525296E-1,-9.042356479E-1,2.833112700E0
9.158095708E0,2.920640949E0,-3.180131024E-1,-7.767991642E-1,3.038863740E0
9.168122708E0,3.024329332E0,-6.184792954E-1,-7.315580142E-1,3.172422052E0
9.178149708E0,3.109652780E0,-1.128428421E0,-8.178190631E-1,3.407655959E0
9.188175708E0,3.132627659E0,-1.491308963E0,-7.210318565E-1,3.543620382E0
9.198202708E0,3.129248554E0,-1.637905676E0,-7.073435247E-1,3.602119706E0
9.208228708E0,3.139986965E0,-1.723020671E0,-1.000512831E0,3.718782637E0
9.218255708E0,3.243918592E0,-1.965019385E0,-1.651504546E0,4.136638283E0
9.228282708E0,3.395974850E0,-2.124413314E0,-2.549833921E0,4.748413434E0
9.238308708E0,3.486738840E0,-2.401775404E0,-3.397435777E0,5.428484383E0
9.248335417E0,3.361291214E0,-2.662427321E0,-4.042944412E0,5.893402869E0
9.258361417E0,3.185416322E0,-2.566782076E0,-4.187033254E0,5.853759035E0
9.268388417E0,3.364050807E0,-2.274411938E0,-3.741610492E0,5.521724058E0
9.278415417E0,3.791243412E0,-2.084376844E0,-3.234300799E0,5.401745561E0
9.288441417E0,4.088976617E0,-1.915661868E0,-2.632954431E0,5.227039239E0
9.298468417E0,4.197781021E0,-1.678740876E0,-2.019858667E0,4.951703289E0
9.308494417E0,3.699631577E0,-1.336088192E0,-1.256168448E0,4.129208717E0
9.318521417E0,2.582692057E0,-9.900944084E-1,-6.132898915E-1,2.833144841E0
9.328548417E0,8.956858492E-1,-5.940642464E-1,-4.128578639E-1,1.151354457E0
9.338574417E0,-4.587554370E-1,-3.805163294E-1,-2.723157965E-2,5.966496349E-1
9.348601417E0,-1.949344316E0,-9.570833677E-1,-1.260807191E0,2.511092712E0
9.358628417E0,-3.201623342E0,-2.194347183E0,-1.323989718E0,4.101036498E0
9.368654417E0,-4.183409734E0,-3.307438357E0,-1.090387605E0,5.443253680E0
9.378681417E0,-5.062540947E0,-4.314975010E0,-9.757687300E-3,6.651948992E0
9.388707417E0,-5.342531360E0,-5.856884024E0,1.789460536E0,8.126985961E0
9.398734417E0,-4.178220330E0,-7.290193870E0,3.133573154E0,8.967927994E0
9.408761417E0,-2.126035624E0,-7.391520855E0,4.676298731E0,9.001243128E0
9.418787417E0,7.016967224E-1,-5.786832626E0,5.056646369E0,7.716831126E0
9.428814417E0,3.002237966E0,-3.990667380E0,4.253568721E0,6.559855624E0
9.438840417E0,4.089444979E0,-2.237600207E0,3.153081805E0,5.627818386E0
9.448867417E0,3.659396009E0,-8.999882305E-1,2.072728021E0,4.300855660E0
9.458894417E0,2.863943715E0,-1.985919088E-1,1.628490782E0,3.300544588E0
9.468920417E0,1.821186066E0,-4.820912361E-2,1.978781977E0,2.689725064E0
9.478947417E0,6.527188361E-1,-3.061572880E-1,2.587720663E0,2.686274817E0
9.488974417E0,-3.405935875E-1,-3.104163998E-1,3.177120585E0,3.210367198E0
9.499000417E0,-1.111010735E0,2.690818477E-1,3.367809105E0,3.556527529E0
9.509027417E0,-1.893119975E0,7.645836729E-1,3.640968801E0,4.174343690E0
9.519053417E0,-2.626403503E0,1.220251926E0,3.872692788E0,4.835779105E0
9.529080417E0,-3.278550481E0,1.622619885E0,3.992543752E0,5.414997152E0
9.539107417E0,-3.888191125E0,1.778776211E0,3.974368266E0,5.837608941E0
9.549133417E0,-4.203722962E0,1.858437508E0,3.937626117E0,6.052270330E0
9.559160417E0,-4.194171535E0,1.920049619E0,3.930433457E0,6.060195753E0
9.569186417E0,-3.898141917E0,1.826857281E0,3.921122936E0,5.823068178E0
9.579213417E0,-3.534659111E0,1.685963942E0,3.911219799E0,5.534792658E0
9.589240417E0,-3.295608563E0,1.668370839E0,3.840709980E0,5.328747527E0
9.599266417E0,-3.413883995E0,1.777364109E0,3.545531424E0,5.233012534E0
9.609293417E0,-3.740523202E0,1.988722828E0,3.225560966E0,5.324544662E0
9.619319417E0,-3.890347578E0,2.322968971E0,3.041013485E0,5.456991124E0
9.629346417E0,-3.797044435E0,2.750512701E0,3.046442040E0,5.591392998E0
9.639373417E0,-3.665402268E0,3.082789502E0,3.147889477E0,5.731315125E0
9.649399417E0,-3.533968555E0,3.317039486E0,3.208606380E0,5.812644802E0
9.659426417E0,-3.357490231E0,3.404571719E0,3.126478143E0,5.713030266E0
9.669453417E0,-3.059551205E0,3.393397105E0,2.845055746E0,5.382410212E0
9.679479417E0,-2.525200479E0,3.321137799E0,2.363175010E0,4.794912915E0
9.689506417E0,-1.865579882E0,2.983664578E0,1.852621867E0,3.976788955E0
9.699532417E0,-1.213636386E0,2.582731526E0,1.284578900E0,3.129466147E0
9.709559417E0,-5.886292595E-1,2.136798887E0,7.929189876E-1,2.353957181E0
9.719586417E0,-1.054261753E-1,1.620996698E0,2.452620453E-1,1.642832446E0
9.729612417E0,4.239389223E-1,9.747729492E-1,-5.766240487E-1,1.209298063E0
9.739639417E0,1.138170759E0,4.620200837E-1,-1.578802898E0,2.000378420E0
9.749665417E0,1.691966109E0,2.432927030E-1,-2.904493278E0,3.370166443E0
9.759692417E0,2.730402957E0,2.969982094E-1,-3.384621604E0,4.358780982E0
9.769719417E0,3.092028687E0,2.290325135E-1,-4.144035169E0,5.175531352E0
9.779745417E0,3.446433398E0,-1.557774264E-1,-4.567691671E0,5.724157315E0
9.789772417E0,4.153195709E0,-9.190788049E-1,-4.704672345E0,6.342529647E0
9.799799417E0,4.557188317E0,-2.234754367E0,-4.235821837E0,6.610921197E0
9.809825417E0,4.608713397E0,-3.916689577E0,-3.021605991E0,6.760976200E0
9.819852417E0,4.058954088E0,-5.401446735E0,-2.844005879E0,7.330696049E0
9.829878417E0,3.582963252E0,-5.917819612E0,-3.566616776E0,7.783249312E0
9.839905417E0,2.928583222E0,-4.834269741E0,-4.356157827E0,7.136026529E0
9.849932417E0,1.610942411E0,-2.727365329E0,-4.418982651E0,5.437008806E0
9.859958417E0,-1.114216179E-1,-8.275184244E-1,-3.683058521E0,3.776522420E0
9.869985417E0,-2.030966915E0,-1.344163781E-1,-2.676890409E0,3.362831639E0
9.880011417E0,-3.470955158E0,-4.180326498E-1,-1.643264357E0,3.862977965E0
9.890038417E0,-4.483974453E0,-1.365234223E0,-7.373806715E-1,4.744852119E0
9.900065417E0,-5.290221584E0,-3.348118021E0,4.488090308E-1,6.276764153E0
9.910091417E0,-5.198691609E0,-6.044531699E0,1.059747318E0,8.042749672E0
9.920118417E0,-4.475391033E0,-8.200207736E0,4.703900805E-1,9.353811985E0
9.930144417E0,-3.867132086E0,-8.670141442E0,-2.021188323E0,9.706248782E0
9.940171417E0,-3.596053414E0,-5.933660304E0,-4.880433508E0,8.482838911E0
9.950198417E0,-3.309456816E0,-9.894839591E-1,-3.316793318E0,4.788809960E0
9.960224417E0,-3.103979226E0,3.762300280E0,3.076861010E0,5.766859120E0
9.970251417E0,-3.844329699E0,7.810800131E0,1.112120186E1,1.412333531E1
9.980278417E0,-4.458177415E0,1.025285174E1,1.333029163E1,1.739807430E1
9.990304417E0,-4.661967498E0,9.946728952E0,8.862726506E0,1.411450597E1
1.000033142E1,-3.152557894E0,7.004885414E0,4.536234820E0,8.921012683E0
1.001035742E1,-6.242192146E-1,2.413185076E0,2.710669774E0,3.682504917E0
1.002038442E1,1.719017813E0,-1.699894933E0,3.919709079E0,4.605299588E0
1.003041142E1,3.442266380E0,-4.977348769E0,4.841775227E0,7.750224896E0
1.004043742E1,3.954842952E0,-6.964436131E0,3.721095536E0,8.831234646E0
1.005046442E1,3.063593093E0,-6.627806078E0,1.064636322E0,7.378812001E0
1.006049042E1,9.642757353E-1,-3.360805310E0,-1.339785386E0,3.744311006E0
1.007051742E1,-1.229251522E0,1.498068345E-1,-1.222009453E0,1.739772541E0
1.008054442E1,-2.056832658E0,2.058325744E0,5.823249377E-2,2.910439224E0
1.009057042E1,-1.461584643E0,2.637694184E0,1.159790620E0,3.230909246E0
1.010059742E1,-1.182736921E0,2.555118635E0,1.856681589E0,3.372649461E0
1.011062342E1,-1.138514283E0,1.989822689E0,2.257530441E0,3.217460614E0
1.012065042E1,-1.109755630E0,1.130553884E0,2.528690389E0,2.983954545E0
1.013067742E1,-9.720548710E-1,2.164680165E-1,2.383589394E0,2.583262951E0
1.014070342E1,-5.063087954E-1,-2.788607311E-1,1.702545476E0,1.797991380E0
1.015073042E1,2.063701674E-2,-4.032924038E-1,1.040634817E0,1.116239881E0
1.016075742E1,3.833719634E-1,-5.304576498E-1,3.862963021E-1,7.599896141E-1
1.017078342E1,5.481355369E-1,-5.239736724E-1,-2.004255956E-1,7.843286273E-1
1.018081042E1,2.277790166E-1,-4.269245106E-1,-7.997225153E-1,9.347213059E-1
1.019083642E1,-7.418976456E-2,-1.268015492E-1,-8.054446006E-1,8.187330204E-1
1.020086342E1,-4.884486213E-2,2.023832434E-1,-6.007867903E-1,6.358376877E-1
1.021089042E1,4.398348704E-1,5.031722027E-1,-3.649826163E-1,7.614783575E-1
1.022091642E1,1.257593269E0,7.948283958E-1,-2.070154808E-1,1.502048074E0
1.023094342E1,2.142431656E0,9.687579185E-1,-2.478821826E-1,2.364307696E0
1.024096942E1,2.495806818E0,1.093467919E0,-4.466337569E-1,2.761196385E0
1.025099417E1,2.431616377E0,1.185865620E0,-4.272028746E-1,2.738893530E0
1.026102117E1,2.122931776E0,1.030272381E0,-2.014699449E-1,2.368309660E0
1.027104717E1,1.829002039E0,8.771817505E-1,2.779736354E-1,2.047429028E0
1.028107417E1,1.663854158E0,1.000207753E0,5.196718027E-1,2.009697736E0
1.029110017E1,1.392289436E0,8.858034700E-1,1.274137527E-1,1.655098766E0
1.030112717E1,8.306143789E-1,4.005354416E-1,-2.635339364E-1,9.590615319E-1
1.031115417E1,3.213191912E-1,1.200275499E-1,-5.272803459E-1,6.290287741E-1
1.032118017E1,6.877597377E-2,5.748105347E-2,-7.920603240E-1,7.971159030E-1
1.033120717E1,5.188132122E-2,1.192206341E-1,-8.973388571E-1,9.067095761E-1
1.034123417E1,2.658351812E-1,2.230484730E-1,-1.026878292E0,1.083927115E0
1.035126017E1,5.840492816E-1,3.805736321E-1,-1.384166338E0,1.549795568E0
1.036128717E1,9.393757329E-1,5.542704356E-1,-1.769591990E0,2.078725160E0
1.037131317E1,1.328751690E0,5.787264150E-1,-2.155087223E0,2.597095735E0
1.038134017E1,1.724110592E0,3.876358992E-1,-2.286284709E0,2.889622241E0
1.039136717E1,2.198956543E0,2.888816893E-2,-2.087355854E0,3.032045327E0
1.040139317E1,2.670848189E0,-3.891333711E-1,-1.903187419E0,3.302571298E0
1.041142017E1,2.925271944E0,-6.994018364E-1,-1.775463763E0,3.492656646E0
1.042144617E1,3.017274666E0,-8.089792424E-1,-1.768571797E0,3.589740941E0
1.043147317E1,3.231561671E0,-9.525009048E-1,-1.713404925E0,3.779683220E0
1.044150017E1,3.731146899E0,-1.304020307E0,-1.425646632E0,4.201713277E0
1.045152617E1,4.193137455E0,-1.617776052E0,-1.031259976E0,4.611192710E0
1.046155317E1,4.020665058E0,-1.588991379E0,-1.155605256E0,4.475049119E0
1.047157917E1,3.531924953E0,-1.343423524E0,-1.974828674E0,4.263710700E0
1.048160617E1,3.224943208E0,-1.433632028E0,-3.092428052E0,4.692405645E0
1.049163317E1,3.242290435E0,-2.095515205E0,-3.905958182E0,5.491824884E0
1.050165917E1,3.066009162E0,-2.477816105E0,-4.314324800E0,5.844089605E0
1.051168617E1,2.847102272E0,-2.265706603E0,-4.379759821E0,5.694006836E0
1.052171317E1,2.858214028E0,-1.654435170E0,-3.670374448E0,4.937427645E0
1.053173917E1,3.220342911E0,-1.128124366E0,-2.544849170E0,4.256704165E0
1.054176617E1,3.503627353E0,-7.993921477E-1,-1.483131047E0,3.887686991E0
1.055179217E1,3.088674139E0,-9.486826730E-1,-6.323985922E-1,3.292390428E0
1.056181917E1,2.192564952E0,-1.689124947E0,3.612807441E-1,2.791237706E0
1.057184617E1,6.955737374E-1,-2.983604352E0,-3.542792150E-1,3.084028456E0
1.058187217E1,-1.157503262E0,-4.409360765E0,-8.155367486E-1,4.631131217E0
1.059189917E1,-2.807216660E0,-5.830049981E0,-2.773125346E-1,6.476638820E0
1.060192517E1,-4.758651794E0,-6.604025452E0,1.901830280E-1,8.142118192E0
1.061195217E1,-6.270638266E0,-6.462383085E0,1.001025632E0,9.060096672E0
1.062197917E1,-5.769583340E0,-6.183569131E0,1.970751118E0,8.683805565E0
1.063200517E1,-4.130415249E0,-5.591101175E0,2.585970883E0,7.416737011E0
1.064203217E1,-1.513352966E0,-4.363370075E0,3.590874535E0,5.850095344E0
1.065205817E1,1.184599698E0,-3.182503240E0,3.524682884E0,4.894383797E0
1.066208517E1,2.234559362E0,-2.022284676E0,2.929309154E0,4.202825594E0
1.067211217E1,2.767880686E0,-9.196354598E-1,1.564453538E0,3.309744362E0
1.068213817E1,2.885310026E0,-3.712058079E-1,6.173808959E-1,2.973880775E0
1.069216517E1,2.340588970E0,5.800028622E-2,7.718424064E-1,2.465250791E0
1.070219217E1,1.291456102E0,1.721385205E-1,1.749618193E0,2.181434014E0
1.071221817E1,1.556771466E-1,-5.467438996E-2,3.043623974E0,3.048093102E0
1.072224517E1,-8.724610010E-1,1.430883837E-1,3.543983081E0,3.652598878E0
1.073227117E1,-1.602144690E0,4.940470380E-1,3.951107166E0,4.292108796E0
1.074229817E1,-2.012071345E0,6.606546772E-1,4.130303860E0,4.641584393E0
1.075232517E1,-2.572361489E0,8.325826979E-1,4.038336221E0,4.859876234E0
1.076235117E1,-3.147587468E0,1.201046746E0,4.156920093E0,5.350682650E0
1.077237817E1,-3.480353973E0,1.605510347E0,4.239626620E0,5.715326861E0
1.078240417E1,-3.765560395E0,1.723657433E0,4.216824233E0,5.910333886E0
1.079243117E1,-4.047786491E0,1.757577716E0,4.208388455E0,6.097883919E0
1.080245817E1,-4.189652807E0,1.800066508E0,4.256137987E0,6.237639028E0
1.081248417E1,-4.285713789E0,1.856848819E0,4.316228653E0,6.359643072E0
1.082251117E1,-4.314024545E0,2.024921771E0,4.232711410E0,6.373928289E0
1.083253817E1,-4.216244482E0,2.197022869E0,3.936570110E0,6.172536857E0
1.084256417E1,-4.030039314E0,2.283999617E0,3.550525823E0,5.836446243E0
1.085259117E1,-3.711016690E0,2.261513565E0,3.211762122E0,5.403841634E0
1.086261717E1,-3.290030027E0,2.425193503E0,3.050681271E0,5.100246790E0
1.087264417E1,-3.006408785E0,2.756202627E0,2.946121361E0,5.031379311E0
1.088267117E1,-2.931816148E0,3.040376723E0,2.820652977E0,5.078928997E0
1.089269717E1,-2.667341906E0,3.177734250E0,2.640542947E0,4.917842501E0
1.090272417E1,-2.362535909E0,3.240187191E0,2.387429845E0,4.666927279E0
1.091275017E1,-2.087451603E0,3.350125955E0,2.131988382E0,4.486220299E0
1.092277717E1,-1.633122069E0,3.268371940E0,1.805214689E0,4.075308934E0
1.093280417E1,-1.242706988E0,2.867956367E0,1.230062677E0,3.358950516E0
1.094283017E1,-1.130623758E0,2.402506306E0,5.365633124E-1,2.708919863E0
1.095285717E1,-4.086198020E-1,1.962451288E0,-1.127039123E-1,2.007706994E0
1.096288317E1,-2.741662940E-1,1.523730020E0,-1.320793338E0,2.035046774E0
1.097291017E1,3.850932375E-1,1.320667915E0,-2.319560336E0,2.696816771E0
1.098293717E1,1.333803100E0,8.642044401E-1,-3.613785095E0,3.947825064E0
1.099296317E1,2.637314699E0,-6.279792666E-2,-4.690865607E0,5.381783398E0
1.100299017E1,4.087658362E0,-1.456702217E0,-5.617652797E0,7.098517816E0
1.101301717E1,5.284446289E0,-3.209482293E0,-5.896555628E0,8.543741419E0
1.102304317E1,6.196541764E0,-5.059407424E0,-5.416643064E0,9.660991429E0
1.103307017E1,5.833067729E0,-6.431555395E0,-4.649197471E0,9.849092398E0
1.104309617E1,4.838824722E0,-6.294922922E0,-4.247340851E0,9.004453542E0
1.105312317E1,4.083786628E0,-4.441873038E0,-4.321118972E0,7.421564423E0
1.106315017E1,2.881024894E0,-2.201811739E0,-4.289954190E0,5.617115480E0
1.107317617E1,1.058387256E0,-5.997588497E-1,-3.805395721E0,3.995113372E0
1.108320317E1,-1.142418469E0,-4.053149557E-1,-3.150225440E0,3.375399309E0
1.109322917E1,-2.923368675E0,-1.262080568E0,-2.042096651E0,3.782735849E0
1.110325617E1,-4.246588607E0,-2.545914533E0,-3.405133344E-1,4.962977427E0
1.111328317E1,-4.935351727E0,-4.242981752E0,1.307131903E0,6.638462520E0
1.112330917E1,-5.448875256E0,-6.377609568E0,2.571002011E0,8.773493984E0
1.113333617E1,-5.628274848E0,-8.464777288E0,2.138739724E0,1.038769175E1
1.114336217E1,-4.727836967E0,-8.629391611E0,-1.164896189E0,9.908371466E0
1.115338917E1,-3.814811785E0,-4.216953456E0,-4.301448061E0,7.130072989E0
1.116341617E1,-3.593283003E0,1.716608614E0,-7.001260141E-1,4.043340736E0
1.117344217E1,-3.731404762E0,6.283493369E0,6.839754782E0,1.000939138E1
1.118346917E1,-4.132783957E0,9.453989351E0,1.103314747E1,1.510589822E1
1.119349617E1,-4.978580192E0,1.021489513E1,8.391107633E0,1.412589928E1
1.120352217E1,-4.731272791E0,8.483900022E0,5.204620686E0,1.102041643E1
1.121354917E1,-2.182230875E0,4.354841326E0,4.290788587E0,6.491351267E0
1.122357517E1,5.748988277E-1,-2.980928081E-1,5.068588722E0,5.109790565E0
1.123360217E1,3.202058668E0,-3.837024187E0,6.199006366E0,7.962638648E0
1.124362917E1,4.428715049E0,-6.234128836E0,5.934762504E0,9.679839116E0
1.125365504E1,3.648908735E0,-6.667687597E0,4.049183975E0,8.612112616E0
1.126368204E1,1.402430993E0,-4.049181052E0,1.735555347E0,4.623292360E0
1.127370804E1,-8.744924699E-1,-4.394714659E-1,-6.282635144E-1,1.163007864E0
1.128373504E1,-2.719156130E0,1.544252577E0,-3.285352401E-1,3.144274398E0
1.129376204E1,-2.990365487E0,2.357800834E0,6.004271134E-1,3.855129471E0
1.130378804E1,-2.586088120E0,2.397841982E0,1.175227196E0,3.717345410E0
1.131381504E1,-2.403163241E0,1.878447849E0,1.427103027E0,3.367548505E0
1.132384204E1,-2.058235405E0,8.747773755E-1,1.714317091E0,2.817880680E0
1.133386804E1,-1.155904049E0,-1.266132689E-1,1.842514955E0,2.178762596E0
1.134389504E1,5.395971403E-2,-7.203354532E-1,1.533027678E0,1.694688371E0
1.135392104E1,9.059721248E-1,-6.831331283E-1,1.131224560E0,1.602225130E0
1.136394804E1,9.668010016E-1,-3.799497342E-1,-2.134490991E-1,1.060484085E0
1.137397504E1,1.175147528E0,-5.627535760E-2,-5.381958550E-1,1.293751679E0
1.138400104E1,9.641906583E-1,1.496331722E-1,-1.384401981E0,1.693700846E0
1.139402804E1,7.611481413E-1,2.079562247E-2,-1.337291549E0,1.538872197E0
1.140405404E1,9.662314828E-1,-2.452725703E-1,-1.242546190E0,1.593010655E0
1.141408104E1,1.677340614E0,-3.017280221E-1,-1.148832865E0,2.055317077E0
1.142410804E1,2.287005086E0,3.020788550E-2,-7.168323863E-1,2.396904973E0
1.143413404E1,2.520146438E0,3.562269956E-1,-2.528622927E-1,2.557728500E0
1.144416104E1,2.600107112E0,6.251837128E-1,2.194401562E-2,2.674302378E0
1.145418704E1,2.753197158E0,8.938702887E-1,2.810019450E-1,2.908274536E0
1.146421404E1,2.700334235E0,1.186432216E0,4.180963479E-1,2.978964743E0
1.147424104E1,2.345373016E0,1.202139591E0,3.021064100E-1,2.652768829E0
1.148426704E1,1.913458053E0,1.036737648E0,2.692876697E-1,2.192866279E0
1.149429404E1,1.678429804E0,1.040757024E0,2.202709725E-1,1.987164083E0
1.150432104E1,1.293711812E0,6.332049233E-1,-3.018929136E-1,1.471658268E0
1.151434704E1,7.798221016E-1,1.793475527E-1,-4.980102807E-1,9.424979016E-1
1.152437404E1,3.381529596E-1,-6.356566608E-2,-4.477628908E-1,5.646942752E-1
1.153440004E1,-6.085182711E-2,-1.362629288E-1,-5.246314842E-1,5.454436037E-1
1.154442704E1,-2.635992790E-1,-7.649970710E-2,-6.954332580E-1,7.476390850E-1
1.155445404E1,-1.863278856E-1,1.378808534E-1,-9.109190154E-1,9.399482237E-1
1.156448004E1,1.880061827E-1,4.617949659E-1,-1.256795270E0,1.352085524E0
1.157450704E1,6.962870977E-1,7.515800500E-1,-1.596010961E0,1.896559854E0
1.158453304E1,1.171662295E0,8.385573828E-1,-1.938545970E0,2.415353286E0
1.159456004E1,1.620535938E0,6.773911625E-1,-2.107030712E0,2.743095684E0
1.160458704E1,2.131698945E0,3.309260935E-1,-2.061562763E0,2.983905745E0
1.161461304E1,2.575509045E0,-9.133526266E-2,-1.910356690E0,3.207966903E0
1.162464004E1,2.906516123E0,-3.613298607E-1,-1.643296224E0,3.358395111E0
1.163466704E1,3.067511312E0,-5.986806232E-1,-1.567191351E0,3.496302742E0
1.164469304E1,3.217200032E0,-9.438359159E-1,-1.622561998E0,3.724769754E0
1.165472004E1,3.341938684E0,-1.272420200E0,-1.652619610E0,3.939385600E0
1.166474604E1,3.640329408E0,-1.447408068E0,-1.526752153E0,4.204516673E0
1.167477304E1,3.924253828E0,-1.331115720E0,-1.338034438E0,4.354534799E0
1.168480004E1,3.908177785E0,-9.276853216E-1,-1.438016855E0,4.266420764E0
1.169482604E1,3.911841943E0,-9.874467891E-1,-2.075761264E0,4.537217581E0
1.170485304E1,3.799868056E0,-1.676813049E0,-2.867554663E0,5.047134730E0
1.171487904E1,3.310611641E0,-2.326176168E0,-3.782954984E0,5.539132912E0
1.172490604E1,2.804621958E0,-2.541011642E0,-4.187637856E0,5.644373774E0
1.173493304E1,2.743513292E0,-2.252919912E0,-3.554221848E0,5.023445656E0
1.174495904E1,2.947844535E0,-1.692321035E0,-2.120037843E0,4.006032744E0
1.175498604E1,3.036848221E0,-1.288376082E0,-6.980593157E-1,3.371890694E0
1.176501204E1,2.298344153E0,-1.119324306E0,-1.259080672E-1,2.559516671E0
1.177503904E1,8.741205870E-1,-1.274375508E0,-4.624527411E-1,1.613066110E0
1.178506604E1,-4.494362909E-1,-1.955126481E0,-5.656479478E-1,2.084339257E0
1.179509204E1,-1.443160505E0,-3.164734136E0,-1.336299276E-1,3.480820500E0
1.180511904E1,-3.013346799E0,-4.443910208E0,-2.749033356E-1,5.376259733E0
1.181514604E1,-4.353692349E0,-5.439392241E0,-1.258823669E-1,6.968319122E0
1.182517204E1,-5.956253361E0,-6.031626309E0,7.859388739E-2,8.477242891E0
1.183519904E1,-6.329343141E0,-6.580288680E0,9.340639029E-1,9.177867895E0
1.184522504E1,-5.598733546E0,-6.565871201E0,1.962320895E0,8.849134717E0
1.185525204E1,-3.379499736E0,-5.973134857E0,3.114655073E0,7.536606312E0
1.186527904E1,-6.272695608E-1,-4.496918727E0,4.067824899E0,6.096141775E0
1.187530504E1,1.565559393E0,-3.102365980E0,3.639199726E0,5.031841167E0
1.188533204E1,3.171899022E0,-1.829553432E0,2.877578837E0,4.657109525E0
1.189535804E1,4.051115896E0,-6.959946638E-1,1.835093669E0,4.501501677E0
1.190538504E1,3.809527071E0,-4.152692556E-2,1.219664573E0,4.000225326E0
1.191541204E1,2.646410628E0,2.546158361E-1,1.562944079E0,3.084009181E0
1.192543804E1,9.902478978E-1,1.583817762E-1,2.431119948E0,2.629832673E0
1.193546504E1,-6.293194485E-1,3.550698316E-1,3.085485945E0,3.168965300E0
1.194549104E1,-1.723946578E0,6.876255441E-1,3.392166559E0,3.866731779E0
1.195551804E1,-2.634918803E0,9.478108531E-1,3.594973433E0,4.556860377E0
1.196554504E1,-2.915229643E0,1.162777305E0,3.840691561E0,4.959992601E0
1.197557104E1,-3.233420209E0,1.530423912E0,4.103290893E0,5.443730316E0
1.198559804E1,-3.434981041E0,1.874528461E0,4.448650838E0,5.924816114E0
1.199562504E1,-3.677056354E0,2.085460333E0,4.376150919E0,6.084454380E0
1.200565104E1,-3.930945089E0,2.098355783E0,4.186328664E0,6.113981842E0
1.201567804E1,-4.003484477E0,1.931744050E0,4.155574649E0,6.085090278E0
1.202570404E1,-3.761953247E0,1.773183349E0,4.049193331E0,5.804518762E0
1.203573104E1,-3.554102857E0,1.782737115E0,3.982964551E0,5.627948592E0
1.204575804E1,-3.650780136E0,1.865724308E0,3.929314008E0,5.678787843E0
1.205578404E1,-3.925126232E0,1.918326445E0,3.724474934E0,5.740932487E0
1.206581104E1,-4.010897577E0,1.948023868E0,3.362529362E0,5.584684420E0
1.207583704E1,-3.786538450E0,1.981134896E0,3.120521584E0,5.291542674E0
1.208586404E1,-3.401761255E0,2.128654300E0,3.039023385E0,5.033767168E0
1.209589104E1,-3.069723313E0,2.362766874E0,2.890208530E0,4.833132925E0
1.210591704E1,-2.759555420E0,2.522958949E0,2.671396658E0,4.595305004E0
1.211594404E1,-2.524338892E0,2.651926306E0,2.294138104E0,4.320656156E0
1.212597104E1,-2.131249879E0,2.596833841E0,1.922489077E0,3.870624794E0
1.213599704E1,-1.254387679E0,2.671523834E0,1.750433003E0,3.431405506E0
1.214602404E1,-1.237576934E0,2.547492111E0,1.076704536E0,3.029951383E0
1.215605004E1,-7.019061989E-1,2.197091281E0,6.176226783E-1,2.387747931E0
1.216607704E1,-8.228669643E-2,1.687884752E0,7.194121778E-2,1.691419988E0
1.217610404E1,2.840273309E-1,1.334718774E0,-5.679195911E-1,1.478065760E0
1.218613004E1,3.957714227E-1,1.186297145E0,-1.225814382E0,1.751158712E0
1.219615704E1,5.792456478E-1,1.065366200E0,-1.871624441E0,2.230136478E0
1.220618304E1,1.423113033E0,9.232700890E-1,-2.089737279E0,2.691594371E0
1.221621004E1,2.082051991E0,5.609713447E-1,-2.879538531E0,3.597411778E0
1.222623704E1,2.318101017E0,-6.801598191E-2,-3.935367630E0,4.567859114E0
1.223626304E1,2.967636775E0,-1.186933907E0,-4.549714991E0,5.560178651E0
1.224629004E1,3.985889913E0,-2.731253727E0,-4.450148603E0,6.568933544E0
1.225631679E1,4.630072691E0,-4.369054154E0,-3.983280885E0,7.509509566E0
1.226634379E1,4.539815655E0,-5.488035228E0,-2.898246990E0,7.689492341E0
1.227637079E1,4.021132543E0,-5.543077993E0,-2.949608348E0,7.456232961E0
1.228639679E1,3.514766591E0,-4.352401283E0,-3.932001681E0,6.837954251E0
1.229642379E1,2.483711268E0,-2.601172475E0,-4.181907877E0,5.515729634E0
1.230645079E1,7.797108583E-1,-1.485765803E0,-3.496715652E0,3.878462246E0
1.231647679E1,-7.840268344E-1,-9.646783161E-1,-2.607320237E0,2.888498079E0
1.232650379E1,-2.055694790E0,-6.448040450E-1,-1.449938743E0,2.596916572E0
1.233652979E1,-3.032923862E0,-9.268228573E-1,1.726826039E-1,3.176074156E0
1.234655679E1,-4.494342443E0,-2.163319518E0,1.893557785E0,5.335225058E0
1.235658379E1,-5.421262364E0,-3.577851616E0,2.619851697E0,7.003908247E0
1.236660979E1,-5.438691745E0,-4.896652515E0,1.440911812E0,7.458739880E0
1.237663679E1,-4.616465051E0,-5.552446402E0,-1.241516788E0,7.326852977E0
1.238666279E1,-3.511861694E0,-4.433380542E0,-3.446552389E0,6.623198545E0
1.239668979E1,-2.886229208E0,-1.091877476E0,-2.993015445E0,4.298913458E0
1.240671679E1,-2.815623786E0,2.232280995E0,-4.657647868E-1,3.623224059E0
1.241674279E1,-2.736163634E0,4.490090348E0,2.111035470E0,5.666036844E0
1.242676979E1,-2.646202175E0,6.333631489E0,4.391810932E0,8.148943309E0
1.243679579E1,-2.991797470E0,6.959323325E0,6.195480494E0,9.786062119E0
1.244682279E1,-2.748798590E0,5.201768999E0,7.271613758E0,9.353644265E0
1.245684979E1,-1.222850721E0,1.533579070E0,7.082948667E0,7.349516342E0
1.246687579E1,9.798516946E-1,-1.828337796E0,7.587211375E0,7.865666208E0
1.247690279E1,3.388628116E0,-4.166086773E0,7.140134436E0,8.934237476E0
1.248692979E1,5.279137602E0,-4.997730993E0,4.984276550E0,8.814171636E0
1.249695579E1,5.900619442E0,-3.032318675E0,2.813086095E0,7.205950300E0
1.250698279E1,4.641495811E0,1.704346418E-1,1.636145664E0,4.924378536E0
1.251700879E1,1.825377204E0,1.686141112E0,-8.161777496E-2,2.486309564E0
1.252703579E1,-1.533762234E0,1.775457916E0,-5.013320109E-1,2.399168854E0
1.253706279E1,-3.673973994E0,1.185052857E0,-6.884031507E-1,3.921266898E0
1.254708879E1,-3.712671452E0,2.275730485E-1,-7.981542921E-1,3.804309277E0
1.255711579E1,-2.075264689E0,-7.391979861E-1,-1.852105192E-1,2.210755556E0
1.256714179E1,-3.550169143E-1,-1.326951917E0,6.158525068E-2,1.375002234E0
1.257716879E1,3.816147289E-1,-1.059124882E0,-1.744470012E-1,1.139213357E0
1.258719579E1,3.199907769E-1,-3.368534160E-1,-4.383634186E-1,6.387697613E-1
1.259722179E1,-2.639839527E-1,3.121249563E-1,-6.011908329E-1,7.270075193E-1
1.260724879E1,-9.937326922E-1,6.761924833E-1,-1.340333855E0,1.800343240E0
1.261727479E1,-1.139735328E0,6.682022631E-1,-8.300859368E-1,1.560299184E0
1.262730179E1,-1.155196536E0,4.676679093E-1,-6.221332204E-1,1.392925717E0
1.263732879E1,-5.955813065E-1,3.478479356E-1,-3.039558113E-2,6.903905926E-1
1.264735479E1,8.339094311E-2,2.869135165E-1,3.500698775E-1,4.602416045E-1
1.265738179E1,7.773735800E-1,3.628840506E-1,6.136641133E-1,1.054788207E0
1.266740879E1,1.423510352E0,5.406850147E-1,8.713959306E-1,1.754438051E0
1.267743479E1,1.950991769E0,8.101147717E-1,1.153432285E0,2.406877824E0
1.268746179E1,2.310278612E0,1.034711587E0,1.290995049E0,2.841598767E0
1.269748779E1,2.323038406E0,1.224117520E0,1.091730126E0,2.843737999E0
1.270751479E1,2.126503548E0,1.363501108E0,6.757176894E-1,2.614908604E0
1.271754179E1,1.703117772E0,1.382481755E0,2.280366961E-1,2.205417576E0
1.272756779E1,1.286241556E0,1.152556372E0,-1.623567134E-1,1.734693988E0
1.273759479E1,9.471716063E-1,9.745566022E-1,-2.308188744E-1,1.378467256E0
1.274762179E1,6.036701985E-1,7.310136384E-1,-3.538688501E-1,1.011939628E0
1.275764779E1,4.063271087E-1,5.377643305E-1,-2.629832017E-1,7.235000752E-1
1.276767479E1,2.477259158E-1,4.818538392E-1,-7.691076636E-2,5.472353403E-1
1.277770079E1,2.433409426E-1,4.575276679E-1,-5.198174715E-4,5.182148699E-1
1.278772779E1,2.190896156E-1,4.467717147E-1,-1.841639042E-1,5.305860612E-1
1.279775479E1,3.202938820E-1,4.783326459E-1,-4.209825701E-1,7.131736221E-1
1.280778079E1,6.486086089E-1,5.593329549E-1,-7.629441867E-1,1.147009291E0
1.281780779E1,8.205576796E-1,5.941461074E-1,-1.119192232E0,1.509607815E0
1.282783379E1,9.123464669E-1,5.708010989E-1,-1.445729333E0,1.802310537E0
1.283786079E1,1.065378114E0,4.416957468E-1,-1.691455647E0,2.047229314E0
1.284788779E1,1.272483349E0,2.115510929E-1,-1.748690094E0,2.172989826E0
1.285791379E1,1.462944997E0,-2.086543822E-1,-1.725257085E0,2.271619846E0
1.286794079E1,1.610902065E0,-7.324760270E-1,-1.532174130E0,2.340744360E0
1.287796679E1,1.740739781E0,-1.292039362E0,-1.235091721E0,2.494993438E0
1.288799379E1,1.944844299E0,-1.711994576E0,-9.676206350E-1,2.765797257E0
1.289802079E1,2.146472813E0,-1.897070062E0,-7.103677046E-1,2.951413666E0
1.290804679E1,2.371307902E0,-1.710188372E0,-5.257787079E-1,2.970570431E0
1.291807379E1,2.634062478E0,-1.391204047E0,-6.781374134E-1,3.055094792E0
1.292810079E1,2.970152248E0,-1.309611415E0,-1.103338750E0,3.428446124E0
1.293812679E1,3.339387544E0,-1.843927057E0,-1.503138027E0,4.100121960E0
1.294815379E1,3.382164604E0,-2.793461085E0,-2.089097301E0,4.858681897E0
1.295817979E1,2.996798302E0,-3.205220257E0,-2.555564777E0,5.077907865E0
1.296820679E1,2.811628676E0,-2.797268792E0,-2.478503153E0,4.676852188E0
1.297823379E1,3.027222534E0,-2.357879187E0,-1.961665422E0,4.309501335E0
1.298825979E1,3.317092111E0,-2.384612657E0,-1.659414513E0,4.409436939E0
1.299828679E1,3.317351727E0,-2.678632295E0,-1.681887263E0,4.583518105E0
1.300831279E1,2.611322656E0,-2.712326290E0,-1.926873904E0,4.229487317E0
1.301833979E1,1.383793285E0,-2.380928911E0,-2.271160301E0,3.569576368E0
1.302836679E1,-8.754831344E-2,-1.742158023E0,-2.292856395E0,2.880966805E0
1.303839279E1,-1.320656220E0,-7.435190785E-1,-1.874434905E0,2.410489512E0
1.304841979E1,-2.233746745E0,1.515528131E-1,-1.471056547E0,2.678917719E0
1.305844579E1,-2.872227758E0,6.869601309E-1,-1.022462840E0,3.125225875E0
1.306847279E1,-3.122184825E0,6.549863863E-1,-5.600721160E-1,3.238939027E0
1.307849979E1,-3.684921151E0,-7.511859477E-2,-4.345932801E-1,3.711220556E0
1.308852579E1,-3.776975329E0,-1.189457565E0,4.809010354E-1,3.988936919E0
1.309855279E1,-3.290269471E0,-2.478972099E0,1.685636644E0,4.451128706E0
1.310857979E1,-2.870677661E0,-3.737243791E0,2.557450504E0,5.361747334E0
1.311860579E1,-1.572552955E0,-4.525223928E0,3.333321935E0,5.836232476E0
1.312863279E1,-2.900990796E-1,-5.089084967E0,3.479459057E0,6.171675510E0
1.313865879E1,1.937711719E-1,-4.802008898E0,2.967773015E0,5.648408040E0
1.314868579E1,5.364511921E-1,-4.001513380E0,2.115455672E0,4.557964668E0
1.315871279E1,1.111555696E-1,-3.225320061E0,7.833792552E-1,3.320952892E0
1.316873879E1,2.942802773E-1,-2.312734004E0,1.333291469E0,2.685703929E0
1.317876579E1,9.861680031E-2,-1.865392186E0,1.441780415E0,2.359691515E0
1.318879279E1,-4.002068281E-2,-1.806608958E0,1.471599169E0,2.330459546E0
1.319881879E1,-3.485835153E-1,-1.644189679E0,2.527485571E0,3.035301217E0
1.320884579E1,-9.837241593E-1,-1.183366520E0,2.688826623E0,3.098041018E0
1.321887179E1,-1.560217523E0,-2.999487144E-1,2.709868413E0,3.141279161E0
1.322889879E1,-2.078763810E0,6.678145927E-1,2.982727270E0,3.696470921E0
1.323892579E1,-2.560728453E0,1.459849774E0,3.297512124E0,4.422903773E0
1.324895179E1,-2.756982061E0,1.961046787E0,3.566548948E0,4.915986776E0
1.325897817E1,-2.710094993E0,2.187305381E0,3.510497831E0,4.944948405E0
1.326900417E1,-2.452737982E0,2.187639257E0,3.355687242E0,4.697055034E0
1.327903117E1,-2.149901035E0,1.984205854E0,3.349474576E0,4.447260647E0
1.328905817E1,-1.984126917E0,1.861485661E0,3.451431305E0,4.394799944E0
1.329908417E1,-2.012547893E0,1.840540935E0,3.475269234E0,4.417627893E0
1.330911117E1,-2.221216308E0,1.916244836E0,3.322109022E0,4.431952675E0
1.331913717E1,-2.593338375E0,2.054687607E0,3.106582114E0,4.538501683E0
1.332916417E1,-2.935924986E0,2.218742936E0,2.831059851E0,4.642992098E0
1.333919117E1,-3.124703513E0,2.350724534E0,2.666967684E0,4.733116785E0
1.334921717E1,-3.208643217E0,2.485785860E0,2.585323012E0,4.812319369E0
1.335924417E1,-3.244205690E0,2.745789905E0,2.550049683E0,4.956509473E0
1.336927117E1,-3.122335390E0,2.963699260E0,2.446178868E0,4.951391991E0
1.337929717E1,-2.812341160E0,3.112396878E0,2.281044727E0,4.774876142E0
1.338932417E1,-2.378300880E0,3.168345376E0,2.052393452E0,4.461731321E0
1.339935017E1,-1.947833834E0,3.153188809E0,1.743961012E0,4.096102577E0
1.340937717E1,-1.572614205E0,3.079789295E0,1.405699002E0,3.732855103E0
1.341940417E1,-1.122277735E0,2.810317438E0,9.900707272E-1,3.183964740E0
1.342943017E1,-5.688785344E-1,2.335028853E0,5.552977914E-1,2.466645124E0
1.343945717E1,-6.257959163E-1,2.022664161E0,-1.800041950E-1,2.124898197E0
1.344948317E1,-2.259402135E-1,1.925796847E0,-2.401194191E-1,1.953816730E0
1.345951017E1,-2.123255566E-2,1.885982571E0,-1.158766992E0,2.213621924E0
1.346953717E1,1.918793052E-1,1.608933308E0,-2.225470158E0,2.752853334E0
1.347956317E1,9.701516023E-1,1.176880789E0,-3.190333246E0,3.536165825E0
1.348959017E1,2.353118969E0,3.656223017E-1,-4.050857156E0,4.698967147E0
1.349961717E1,3.846031238E0,-9.810359019E-1,-4.778913858E0,6.212278599E0
1.350964317E1,5.248210509E0,-2.504657164E0,-4.831189427E0,7.560252134E0
1.351967017E1,5.847065964E0,-3.974340200E0,-4.258530376E0,8.253401806E0
1.352969617E1,5.341578848E0,-4.990761112E0,-3.733945377E0,8.208684983E0
1.353972317E1,4.323082759E0,-5.069502642E0,-3.952121365E0,7.746493714E0
1.354975017E1,3.409150966E0,-4.097374388E0,-4.361677014E0,6.887308150E0
1.355977617E1,2.216212846E0,-2.602792153E0,-4.229760320E0,5.438473935E0
1.356980317E1,7.909076916E-1,-1.493663052E0,-3.668443113E0,4.039064145E0
1.357982917E1,-7.119289112E-1,-1.194169251E0,-2.967431538E0,3.276970081E0
1.358985617E1,-1.931486773E0,-1.499936530E0,-2.183069658E0,3.278146409E0
1.359988317E1,-2.846227528E0,-1.831657845E0,-1.185026837E0,3.586121890E0
1.360990917E1,-3.715670197E0,-2.543811289E0,1.929277110E-1,4.507150096E0
1.361993617E1,-4.510290724E0,-3.681443812E0,1.652621072E0,6.052016801E0
1.362996317E1,-4.748941323E0,-4.804887482E0,1.906704665E0,7.019608969E0
1.363998917E1,-4.475286368E0,-5.179655998E0,4.190012410E-1,6.858030794E0
1.365001617E1,-3.774248773E0,-3.930111276E0,-1.797811822E0,5.737844176E0
1.366004217E1,-3.535536486E0,-1.185190267E0,-2.427582529E0,4.449477626E0
1.367006917E1,-3.357189977E0,1.538940382E0,-1.126725712E0,3.861162114E0
1.368009617E1,-2.942576194E0,3.632084541E0,1.015792336E0,4.783578874E0
1.369012217E1,-2.879029824E0,4.889727073E0,2.485901635E0,6.194993988E0
1.370014917E1,-2.846753778E0,5.271489444E0,4.427216115E0,7.449352358E0
1.371017517E1,-2.107293106E0,4.378891509E0,5.360103997E0,7.235059774E0
1.372020217E1,-3.477039479E-1,2.362982052E0,4.946107095E0,5.492591157E0
1.373022917E1,1.751206882E0,-1.755392611E-1,5.251582013E0,5.538650848E0
1.374025517E1,3.421659037E0,-2.746103316E0,6.790901295E0,8.084873183E0
1.375028217E1,4.566121693E0,-4.659099439E0,7.180144594E0,9.701090211E0
1.376030817E1,4.314195869E0,-5.063072459E0,5.125214912E0,8.397310082E0
1.377033517E1,2.751950824E0,-2.960949900E0,3.178200274E0,5.142121607E0
1.378036217E1,7.590943068E-2,-3.963733935E-1,2.433739793E0,2.466974562E0
1.379038817E1,-2.193035068E0,9.912901640E-1,2.585804822E0,3.532484335E0
1.380041517E1,-3.547589352E0,1.384274511E0,1.394165808E0,4.055281054E0
1.381044217E1,-3.970381927E0,8.698639601E-1,5.918167229E-1,4.107413175E0
1.382046817E1,-3.002770355E0,2.978571653E-2,7.193724167E-1,3.087881745E0
1.383049517E1,-1.739843988E0,-6.849703234E-1,1.318238397E0,2.287792367E0
1.384052117E1,-8.607019579E-1,-9.974589765E-1,1.831469564E0,2.256105724E0
1.385054817E1,-4.919546118E-1,-1.109346033E0,1.971125633E0,2.314736318E0
1.386057517E1,-6.849959050E-1,-8.602955765E-1,1.824264625E0,2.130086686E0
1.387060117E1,-1.079724915E0,-3.162437350E-1,1.269974309E0,1.696658698E0
1.388062817E1,-1.527981677E0,1.075671333E-1,6.773789565E-1,1.674855499E0
1.389065417E1,-1.629946154E0,1.551973826E-1,-6.770958781E-2,1.638717572E0
1.390068117E1,-1.449753825E0,2.164990067E-2,-5.053443702E-1,1.535456871E0
1.391070817E1,-1.116975626E0,-7.276567519E-2,-6.682618316E-1,1.303649979E0
1.392073417E1,-7.481388174E-1,-1.101463401E-1,-8.762672460E-1,1.157449002E0
1.393076117E1,-3.890129185E-1,2.342979312E-2,-4.747600702E-1,6.142288907E-1
1.394078817E1,-1.869740760E-1,2.210586655E-1,1.396556295E-2,2.898642366E-1
1.395081417E1,-7.499580324E-2,4.424178779E-1,3.904080641E-1,5.947910606E-1
1.396084117E1,1.052107054E-1,7.264112949E-1,6.655371753E-1,9.907988664E-1
1.397086717E1,3.306366563E-1,1.042004820E0,7.059366115E-1,1.301322843E0
1.398089417E1,5.307334922E-1,1.318633668E0,7.332303178E-1,1.599405980E0
1.399092117E1,6.331354876E-1,1.409859588E0,8.757165114E-1,1.776356950E0
1.400094717E1,6.048989908E-1,1.208722386E0,9.868976625E-1,1.673582861E0
1.401097417E1,4.140287688E-1,7.964603537E-1,9.464629968E-1,1.304439006E0
1.402100017E1,1.641661343E-1,3.081020719E-1,7.309697843E-1,8.100581657E-1
1.403102717E1,-9.983609095E-2,-1.110123128E-1,4.181484977E-1,4.440035414E-1
1.404105417E1,-3.104880282E-1,-3.751222730E-1,1.583179685E-1,5.120391728E-1
1.405108017E1,-4.278565568E-1,-4.474342042E-1,-5.865568601E-2,6.218513406E-1
1.406110717E1,-5.631921172E-1,-3.137428808E-1,-2.030493144E-1,6.759060439E-1
1.407113417E1,-8.200717029E-1,-6.283651829E-2,4.181577802E-2,8.235378469E-1
1.408116017E1,-8.582876426E-1,4.697185278E-2,-4.533042240E-1,9.717760812E-1
1.409118717E1,-1.196468669E0,1.675964034E-1,-6.758211851E-3,1.208168657E0
1.410121317E1,-1.111255149E0,4.330658412E-1,-4.169302303E-2,1.193386918E0
1.411124017E1,-8.290660362E-1,4.825601828E-1,2.819655661E-1,9.998596916E-1
1.412126717E1,-6.292653617E-1,4.116305333E-1,4.927366769E-1,8.990016820E-1
1.413129317E1,-3.647401030E-1,4.641537327E-1,7.384203064E-1,9.453774798E-1
1.414132017E1,-2.719709569E-1,6.555009413E-1,1.021315616E0,1.243678123E0
1.415134717E1,-4.672153348E-1,8.896830976E-1,1.224642016E0,1.584163581E0
1.416137317E1,-8.117350352E-1,1.039862400E0,1.029444416E0,1.673315088E0
1.417140017E1,-1.056703843E0,9.858417284E-1,5.443021389E-1,1.544270618E0
1.418142617E1,-1.224113427E0,1.074460375E0,1.243738218E-1,1.633520011E0
1.419145317E1,-1.420112681E0,1.015209954E0,-4.907930624E-1,1.813353001E0
1.420148017E1,-1.565358833E0,2.110336143E-1,-7.982653892E-1,1.769777131E0
1.421150617E1,-1.328559317E0,-1.035010380E0,-6.586688896E-1,1.808358662E0
1.422153317E1,-1.064376559E0,-2.414163900E0,-1.688231492E-1,2.643782527E0
1.423155917E1,-1.314354968E0,-3.506958804E0,1.334450387E0,3.975807701E0
1.424158617E1,-1.818387296E0,-4.510544493E0,6.698511779E-1,4.909199994E0
1.425161317E1,-1.916405050E0,-5.074054114E0,7.575512266E-1,5.476542461E0
1.426163917E1,-9.146369675E-1,-4.766356085E0,6.991516487E-1,4.903419637E0
1.427166617E1,-3.289709307E-1,-3.782740391E0,1.215468977E0,3.986817224E0
1.428169217E1,-6.486506358E-2,-3.045679563E0,1.638076415E0,3.458853252E0
1.429171917E1,5.210643902E-2,-2.352897944E0,2.034787924E0,3.111142187E0
1.430174617E1,-2.179926780E-1,-1.667693147E0,1.784005376E0,2.451814924E0
1.431177217E1,-3.402892399E-1,-1.354549021E0,1.569561227E0,2.100981262E0
1.432179917E1,-5.504235524E-1,-1.212675104E0,1.345186898E0,1.892901156E0
1.433182617E1,-7.523232311E-1,-6.578351498E-1,9.856173415E-1,1.403630604E0
1.434185217E1,-1.427194244E0,2.000917196E-2,4.842628920E-1,1.507247267E0
1.435187917E1,-2.252863194E0,6.407478315E-1,-6.065331414E-2,2.342995770E0
1.436190517E1,-3.021715919E0,1.281497417E0,-3.667993462E-1,3.302657185E0
1.437193217E1,-3.552777001E0,1.533793663E0,-4.675060876E-1,3.897859587E0
1.438195917E1,-3.847795051E0,1.482125326E0,-3.861197162E-1,4.141414091E0
1.439198517E1,-3.943687926E0,1.269605350E0,-1.371075591E-1,4.145282944E0
1.440201217E1,-3.610960890E0,1.099557209E0,1.154977119E-1,3.776427456E0
1.441203817E1,-3.030942533E0,9.401562631E-1,4.631367557E-1,3.207023868E0
1.442206517E1,-2.502575555E0,6.451431835E-1,8.847210042E-1,2.731634198E0
1.443209217E1,-2.005263432E0,5.044030416E-1,1.363847848E0,2.477011266E0
1.444211817E1,-1.584920401E0,3.136738837E-1,1.856885218E0,2.461379023E0
1.445214517E1,-1.179425059E0,1.850328004E-1,2.293359986E0,2.585494272E0
1.446217117E1,-9.578521304E-1,3.239375013E-1,2.177474165E0,2.400793608E0
1.447219817E1,-1.142145258E0,2.835367495E-1,2.006181152E0,2.325865795E0
1.448222517E1,-1.016559199E0,3.577800161E-1,1.814738488E0,2.110610083E0
1.449225117E1,-5.573549880E-1,7.984384668E-1,1.261061106E0,1.593243133E0
1.450227817E1,-1.355910838E-2,1.016624395E0,6.458927965E-1,1.204527507E0
1.451230517E1,5.458263253E-1,9.430319238E-1,-9.709199265E-2,1.093920674E0
1.452233117E1,1.183353949E0,5.062431604E-1,-1.177838270E-1,1.292471174E0
1.453235817E1,1.959214123E0,6.966448742E-1,-5.493590668E-2,2.080108655E0
1.454238417E1,2.306324286E0,-1.309945875E-1,8.227279468E-1,2.452177108E0
1.455241117E1,8.705786361E-1,-1.278897160E0,1.188562210E0,1.950939578E0
1.456243817E1,1.586552066E0,-6.545969617E-1,1.787682105E0,2.478195301E0
1.457246417E1,4.843647797E-1,-1.217150563E-1,2.011139299E0,2.072222255E0
1.458249117E1,4.508349448E-3,-9.833566618E-1,1.292015973E0,1.623673589E0
1.459251717E1,2.383598457E-1,-7.905143201E-2,9.087496984E-1,9.428099275E-1
1.460254417E1,4.044592157E-2,3.310564864E-1,7.566824766E-1,8.269235999E-1
1.461257117E1,-3.796620512E-1,2.092852968E-1,1.071012564E-1,4.465582691E-1
1.462259717E1,-5.493068804E-1,1.316857284E-1,-2.013792034E-1,5.996938915E-1
1.463262417E1,-5.078809655E-1,3.796760845E-1,-1.020841992E-1,6.422757881E-1
1.464265117E1,-7.155277263E-1,9.421010470E-1,-1.387357894E-1,1.191126328E0
1.465267717E1,-1.088932818E0,1.251763156E0,-2.627200770E-1,1.679793892E0
1.466270417E1,-1.418028148E0,8.537022561E-1,-2.934132814E-1,1.680982667E0
1.467273017E1,-1.728371166E0,-4.248779851E-1,-3.705075773E-1,1.817983513E0
1.468275717E1,-1.691539993E0,-1.737964400E0,-4.616306591E-1,2.468791338E0
1.469278417E1,-1.001771590E0,-1.630104321E0,-5.139983225E-1,1.981156403E0
1.470281017E1,-2.719713955E-1,-7.963837552E-1,-3.821506262E-1,9.242481412E-1
1.471283717E1,-2.726483569E-1,-1.150192927E0,-3.289129702E-1,1.226973772E0
1.472286317E1,1.434947213E0,-1.159078356E0,4.757528543E-2,1.845209893E0
1.473289017E1,1.953618046E0,-2.079591483E0,7.993085325E-1,2.963143320E0
1.474291717E1,1.685507274E0,-1.939053070E0,2.341588406E-1,2.579862776E0
1.475294317E1,1.859791723E0,-1.403506004E0,-1.418663156E-1,2.334262283E0
1.476297017E1,2.350774527E0,-1.127104027E0,2.961755792E-1,2.623780543E0
1.477299717E1,1.988032857E0,1.136195278E0,7.469853810E-1,2.408568352E0
1.478302317E1,9.999050861E-1,3.305515793E0,8.755704041E-1,3.562705204E0
1.479305017E1,3.105377296E-1,2.227405586E0,4.697161889E-1,2.297477448E0
1.480307617E1,-4.567093500E-1,1.317488199E0,-1.528146422E-1,1.402751189E0
1.481310317E1,-1.003878050E0,1.330814588E0,-5.719395518E-2,1.667965754E0
1.482313017E1,-1.217298205E0,1.238682350E0,-5.105671398E-1,1.810201008E0
1.483315617E1,-1.832978438E0,9.796167827E-1,-5.505527759E-1,2.150015664E0
1.484318317E1,-2.623463230E0,1.168300585E0,-3.441740569E-1,2.892393707E0
1.485320917E1,-2.427957189E0,1.220651291E0,-1.675461173E-1,2.722689367E0
1.486323617E1,-1.487660885E0,7.170352846E-1,-1.149560770E-2,1.651486197E0
1.487326317E1,-5.108689292E-1,4.775958967E-1,3.107736647E-1,7.652876414E-1
1.488328917E1,1.365023358E-1,5.230907428E-1,4.643730032E-1,7.126704000E-1
1.489331617E1,5.686844434E-1,8.741727734E-1,3.773746204E-1,1.109049881E0
1.490334317E1,1.106905113E0,2.215971941E-1,2.340611190E-1,1.152878507E0
1.491336917E1,1.671114353E0,-1.211681662E0,1.967178762E-1,2.073522017E0
1.492339617E1,1.684883376E0,-1.586379427E0,2.901329935E-2,2.314362429E0
1.493342217E1,1.152219280E0,-3.956226110E-1,-8.039044440E-2,1.220896860E0
1.494344917E1,6.728116232E-1,2.013851237E-1,-5.761553943E-2,7.046637487E-1
1.495347617E1,1.818144929E-1,1.981714940E-1,-2.557924787E-2,2.701531951E-1
1.496350217E1,-1.486990795E-1,1.024332780E-1,1.546623441E-1,2.377486768E-1
1.497352917E1,-6.390188555E-2,3.952472198E-1,4.377681720E-1,5.932493474E-1
1.498355517E1,3.118858051E-1,9.846570826E-1,6.557202119E-1,1.223434233E0
1.499358217E1,9.332346216E-1,1.304520829E0,6.511003268E-1,1.731078591E0
1.500360917E1,1.481129838E0,1.531943604E0,4.028187428E-1,2.168607789E0
1.501363517E1,1.215990768E0,5.738182622E-1,2.917842837E-1,1.375877543E0
1.502366217E1,9.914769825E-1,-1.751991870E0,-1.000283547E-1,2.015566370E0
1.503368917E1,7.466759902E-1,-2.839264664E0,-6.602213985E-1,3.009126312E0
1.504371517E1,6.127323595E-1,-2.319399830E0,-1.400371896E0,2.777786522E0
1.505374217E1,9.990815789E-2,-1.350623201E0,-1.614154286E0,2.107049769E0
1.506376817E1,-3.807432014E-1,-1.725834936E0,-1.200026407E0,2.136243195E0
1.507379517E1,-4.365335324E-1,-1.280944855E0,-7.638708973E-1,1.553988415E0
1.508382217E1,-2.601236209E-1,6.627877414E-2,-5.332765925E-1,5.970268823E-1
1.509384817E1,-4.110592604E-2,1.244420223E0,-2.890114792E-1,1.278201480E0
1.510387517E1,6.219068875E-2,1.953146029E0,-2.528973395E-1,1.970432480E0
1.511390117E1,-5.209006682E-1,-5.150344491E-1,-9.340751588E-2,7.384598526E-1
1.512392817E1,5.880867292E-2,-2.698326302E-1,5.267663026E-1,5.947695737E-1
1.513395517E1,3.466521800E-1,-1.200743276E0,6.439363182E-1,1.405918252E0
1.514398117E1,1.029668949E0,-7.085053664E-1,6.627573359E-1,1.414724455E0
1.515400817E1,9.377603665E-1,3.346665573E-1,4.494474006E-1,1.092428110E0
1.516403517E1,3.695299959E-1,3.566263604E-1,3.732061404E-1,6.348366735E-1
1.517406117E1,1.452331424E-1,-6.150686145E-3,3.482788754E-1,3.773972332E-1
1.518408817E1,2.901405766E-1,-2.975846851E-1,3.706550002E-1,5.568871772E-1
1.519411417E1,5.669152952E-1,-8.169899279E-1,2.231630784E-1,1.019150261E0
1.520414117E1,7.300678512E-1,-7.013957369E-1,3.570300741E-3,1.012406931E0
1.521416817E1,1.034085351E0,-4.160866964E-1,-1.863314670E-1,1.130123917E0
1.522419417E1,1.284066976E0,2.590316534E-4,-1.627975935E-1,1.294345828E0
1.523422117E1,1.369891823E0,4.648945749E-1,-1.535227400E-1,1.454750770E0
1.524424717E1,1.043184788E0,4.701442051E-1,-1.441934983E-1,1.153283070E0
1.525427442E1,4.675179647E-1,2.790180212E-1,-1.968967827E-1,5.789580698E-1
1.526430142E1,1.316031000E-2,3.125921488E-2,-3.639692938E-1,3.655461382E-1
1.527432742E1,-8.409114718E-2,-6.522452116E-2,-3.868950570E-1,4.012646811E-1
1.528435442E1,3.887082785E-2,-2.538217843E-2,-4.512553596E-1,4.536370750E-1
1.529438142E1,-2.759534955E-2,1.338316566E-1,-3.411324084E-1,3.674829733E-1
1.530440742E1,-1.478673496E-1,3.660146499E-1,-2.353808538E-1,4.596037677E-1
1.531443442E1,-2.409462154E-1,4.025170630E-1,-1.918073845E-1,5.068186436E-1
1.532446042E1,-1.099039730E-1,5.606368840E-2,-2.502696007E-1,2.790284815E-1
1.533448742E1,1.945783800E-1,-1.222465682E-1,-2.889313906E-1,3.691697684E-1
1.534451442E1,3.957542099E-1,-3.168331343E-1,-3.590851146E-1,6.212461261E-1
1.535454042E1,4.853042811E-1,-1.488128078E-1,-2.394025505E-1,5.612299691E-1
1.536456742E1,2.715189306E-1,1.516884685E-1,6.290257355E-2,3.173147568E-1
1.537459342E1,8.928460758E-2,1.366944534E-1,2.084374323E-1,2.647702360E-1
1.538462042E1,8.382038455E-2,-5.662151277E-2,1.755158540E-1,2.025775594E-1
1.539464742E1,-2.944365442E-3,1.273418319E-1,3.305957258E-1,3.542854010E-1
1.540467342E1,1.073688396E-1,1.656843638E-1,2.514191268E-1,3.196731979E-1
1.541470042E1,1.830482554E-1,5.777049065E-3,3.934942245E-2,1.873190198E-1
1.542472742E1,-7.472310372E-2,5.257231593E-2,5.163966676E-2,1.049478242E-1
1.543475342E1,-4.291262797E-1,2.590661520E-1,1.504114366E-1,5.233433244E-1
1.544478042E1,-3.800576153E-1,2.376384455E-1,1.802398378E-1,4.831171917E-1
1.545480642E1,-1.858825105E-1,-1.319394976E-1,-8.496369794E-4,2.279496888E-1
1.546483342E1,2.991318583E-2,-1.754749417E-1,-8.480801582E-2,1.971767061E-1
1.547486042E1,4.069860899E-1,-6.062977910E-3,-2.143589258E-2,4.075953074E-1
1.548488642E1,6.997229216E-1,-7.404680014E-2,-1.894203683E-2,7.038848602E-1
1.549491342E1,6.064971445E-1,-2.288161665E-1,-7.891170183E-2,6.530104755E-1
1.550493942E1,2.879496431E-1,-2.649905509E-1,-1.137458861E-1,4.075206935E-1
1.551496642E1,8.320617110E-2,-2.842641431E-1,-5.300968766E-2,3.008976520E-1
1.552499342E1,1.125588648E-1,-2.575470454E-1,3.720581492E-2,2.835211655E-1
1.553501942E1,3.204618798E-1,-3.354781508E-1,1.636009826E-1,4.919417522E-1
1.554504642E1,4.409568780E-1,-3.864266950E-1,2.634532996E-1,6.427878343E-1
1.555507342E1,3.230489803E-1,-3.455078799E-1,2.661628993E-1,5.427513498E-1
1.556509942E1,1.111247986E-1,-2.017283553E-1,2.485960911E-1,3.388850346E-1
1.557512642E1,-2.035371915E-1,-1.887989920E-1,1.892492276E-1,3.359876752E-1
1.558515242E1,-5.181635866E-1,-2.477623147E-1,-2.950037241E-2,5.751086323E-1
1.559517942E1,-4.127005007E-1,-4.790623784E-2,-3.136618238E-2,4.166539911E-1
1.560520642E1,-1.861791836E-1,1.719742137E-1,1.278212853E-1,2.838592954E-1
1.561523242E1,-8.816055346E-2,2.062418211E-1,1.656890233E-1,2.788562791E-1
1.562525942E1,-1.607783306E-2,9.359579623E-2,1.926084348E-1,2.147479428E-1
1.563528542E1,4.955010943E-2,-4.647133112E-2,2.372905179E-1,2.468229889E-1
1.564531242E1,1.573283638E-1,1.465429187E-2,3.223394573E-1,3.589842448E-1
1.565533942E1,9.801362347E-2,1.166583842E-1,2.962918474E-1,3.331736902E-1
1.566536542E1,-2.591503519E-1,1.916717291E-1,1.575532258E-1,3.587756619E-1
1.567539242E1,-5.072725992E-1,3.729137796E-1,4.132693252E-2,6.309501504E-1
1.568541942E1,-4.708377214E-1,4.924641967E-1,1.735114284E-1,7.030756437E-1
1.569544542E1,-2.593345026E-1,3.352325678E-1,2.103810833E-1,4.731759281E-1
1.570547242E1,9.026697636E-2,1.785505772E-1,2.919772053E-1,3.539479115E-1
1.571549842E1,3.691815019E-1,4.987616479E-2,2.389195704E-1,4.425665761E-1
1.572552542E1,5.436571179E-1,-7.656227231E-2,3.593755385E-2,5.501966477E-1
1.573555242E1,6.330964574E-1,-1.004124802E-1,-7.706454813E-2,6.456258477E-1
1.574557842E1,5.844575635E-1,-9.622178078E-2,-9.446761608E-2,5.998111412E-1
1.575560542E1,4.443033126E-1,-4.772672832E-2,-3.534934223E-2,4.482553404E-1
1.576563142E1,2.294026423E-1,-7.746391296E-2,1.209321141E-2,2.424303526E-1
1.577565842E1,5.389674682E-2,9.695326746E-2,-5.477377435E-2,1.237132238E-1
1.578568542E1,-1.806637244E-1,1.943111622E-1,-9.714211425E-2,2.825469862E-1
1.579571142E1,-2.086459403E-1,3.789422590E-1,9.060024938E-2,4.419714575E-1
1.580573842E1,-1.834502881E-1,1.800041950E-1,5.122743806E-2,2.620682522E-1
1.581576542E1,4.429887123E-3,1.180318952E-2,-7.893329998E-2,7.993375400E-2
1.582579142E1,1.699732234E-1,-2.122948587E-2,-1.402735706E-1,2.214006828E-1
1.583581842E1,2.838767285E-1,-1.151749456E-1,-1.980072055E-1,3.647713236E-1
1.584584442E1,3.287967933E-1,-2.431529546E-1,-2.444510547E-1,4.764315363E-1
1.585587142E1,3.726015383E-1,-1.645885956E-1,-2.294593602E-1,4.675178180E-1
1.586589842E1,3.645551483E-1,-8.297959149E-2,-1.867595015E-1,4.179296354E-1
1.587592442E1,2.051234680E-1,1.349145609E-1,-9.637618382E-2,2.637535681E-1
1.588595142E1,-1.302435127E-1,2.847617412E-1,3.071191549E-2,3.146360494E-1
1.589597742E1,-3.890012240E-1,2.873695993E-1,1.225599790E-1,4.989230275E-1
1.590600442E1,-4.322090048E-1,1.678998739E-1,7.283171218E-2,4.693606820E-1
1.591603142E1,-2.684234512E-1,1.310612458E-1,6.420885980E-2,3.055339212E-1
1.592605742E1,-1.458587945E-3,6.328324556E-2,9.617207944E-2,1.151345539E-1
1.593608442E1,2.409321090E-1,8.653879166E-4,-1.808138151E-2,2.416111885E-1
1.594611142E1,2.374045569E-1,-5.509948254E-2,-1.092639953E-1,2.670870593E-1
1.595613742E1,1.932186100E-1,-1.825079727E-1,-1.001265514E-1,2.840209810E-1
1.596616442E1,1.848386729E-1,-1.984428048E-2,-1.144183159E-2,1.862526402E-1
1.597619042E1,2.417067189E-2,-3.568555713E-2,-3.755898675E-2,5.716955355E-2
1.598621742E1,-9.686990809E-2,-9.589784503E-2,-7.163305124E-2,1.539852909E-1
1.599624442E1,-1.410885994E-1,-1.472211957E-2,-8.310996613E-2,1.644080295E-1
1.600627042E1,-1.475965869E-1,-1.430234796E-1,-1.006984091E-1,2.288681668E-1
1.601629742E1,-6.774467111E-2,1.289603412E-2,-7.159623206E-2,9.940658230E-2
1.602632342E1,-1.307393566E-1,1.135605294E-1,-3.923949480E-2,1.775626964E-1
1.603635042E1,-1.619111921E-1,8.561785519E-2,-5.821506176E-3,1.832472133E-1
1.604637742E1,-1.760012277E-1,2.862095118E-2,-4.186900595E-2,1.831627818E-1
1.605640342E1,-1.209125260E-1,5.145432830E-2,-2.499450803E-2,1.337614005E-1
1.606643042E1,-1.325450499E-1,1.592956960E-1,4.328456204E-2,2.116999346E-1
1.607645742E1,-2.595834113E-1,1.900438643E-1,3.443363171E-2,3.235519939E-1
1.608648342E1,-2.140321030E-1,1.187025708E-1,4.859385213E-2,2.495223515E-1
1.609651042E1,-1.629338336E-1,2.730521071E-1,7.257096291E-2,3.261463352E-1
1.610653642E1,-2.395560764E-1,2.381734657E-1,5.700331768E-2,3.425829706E-1
1.611656342E1,-2.064815934E-1,1.047926295E-1,2.231763443E-2,2.326246342E-1
1.612659042E1,1.062289249E-2,-2.916064918E-2,-7.369264159E-3,3.189820308E-2
1.613661642E1,1.017927155E-1,-1.372370750E-1,-3.683745861E-4,1.708680993E-1
1.614664342E1,4.374356847E-2,-1.375873232E-1,3.189535540E-2,1.478549457E-1
1.615667042E1,-1.904587973E-2,-1.551383257E-1,4.307172339E-2,1.621290196E-1
1.616669642E1,4.716327600E-3,-1.858601815E-1,6.280476060E-3,1.860260605E-1
1.617672342E1,-5.954767875E-3,-1.824331284E-1,-1.208264988E-2,1.829297570E-1
1.618674942E1,-3.437172431E-2,-1.313682246E-1,1.123612471E-1,1.762500375E-1
1.619677642E1,-1.040234648E-1,6.146710038E-2,2.428874727E-1,2.712810536E-1
1.620680342E1,-2.211560582E-1,1.909303021E-1,2.769276051E-1,4.025584191E-1
1.621682942E1,-3.730904021E-1,9.895476937E-2,1.901525859E-1,4.302865329E-1
1.622685642E1,-2.907940212E-1,3.299116015E-2,6.231143832E-2,2.992194759E-1
1.623688242E1,-1.526164216E-1,3.902080894E-2,-9.586510062E-3,1.578172894E-1
1.624690942E1,-9.451004494E-2,8.681536496E-2,3.595416360E-3,1.283821764E-1
1.625693596E1,-1.515624975E-1,1.092762744E-1,7.601343803E-3,1.870034097E-1
1.626696196E1,-2.724980834E-1,2.091233289E-1,3.276604235E-2,3.450527289E-1
1.627698896E1,-3.905755869E-1,3.307395673E-1,4.931834042E-2,5.141694751E-1
1.628701596E1,-4.881656161E-1,1.628279990E-1,1.267752367E-1,5.299911194E-1
1.629704196E1,-4.521692795E-1,2.140694886E-1,1.755316597E-1,5.301831446E-1
1.630706896E1,-4.834460725E-1,2.850634575E-1,2.862299405E-1,6.300070306E-1
1.631709496E1,-5.404835781E-1,4.745939362E-1,4.505010688E-1,8.487126225E-1
1.632712196E1,-5.891613926E-1,5.367077386E-1,5.318720913E-1,9.581514832E-1
1.633714896E1,-6.637969708E-1,3.689862049E-1,5.018407917E-1,9.102864484E-1
1.634717496E1,-6.448920456E-1,3.285193795E-1,5.014689088E-1,8.805008800E-1
1.635720196E1,-5.135308376E-1,2.606238502E-1,4.744810849E-1,7.461709003E-1
1.636722896E1,-5.164576979E-1,-5.114442587E-2,3.404377592E-1,6.206788009E-1
1.637725496E1,-6.797657168E-1,-1.135283697E-1,2.957007122E-1,7.499393520E-1
1.638728196E1,-5.420622533E-1,-2.708751887E-1,4.224133837E-1,7.386730813E-1
1.639730796E1,-1.991354075E-1,-9.233952194E-1,3.558790863E-1,1.009437252E0
