"Time (s)","Linear Acceleration x (m/s^2)","Linear Acceleration y (m/s^2)","Linear Acceleration z (m/s^2)","Absolute acceleration (m/s^2)"
1.802916639E-3,7.106603578E-2,6.345632315E-2,-3.094656426E-1,3.237994292E-1
1.182991662E-2,-2.302431795E-1,-6.751721442E-2,-1.586074787E0,1.604120858E0
2.185591671E-2,-6.023804489E-1,-1.048043239E-1,-2.337884048E0,2.416515668E0
3.188291669E-2,-8.787881269E-1,1.916419083E-1,-2.245890389E0,2.419301311E0
4.190991668E-2,-9.667177518E-1,5.235240215E-1,-1.255024148E0,1.668444253E0
5.193591665E-2,-8.112717895E-1,5.733045843E-1,-2.541866505E-1,1.025402807E0
6.196291663E-2,-2.509177646E-1,2.951665691E-1,2.354100716E-1,4.533221039E-1
7.198991673E-2,6.383500345E-2,4.870789111E-2,5.276094711E-1,5.336844764E-1
8.201591671E-2,2.970322694E-1,-1.143113118E-1,6.896498501E-1,7.595473394E-1
9.204291669E-2,4.569421058E-1,-2.611530232E-1,7.278479558E-1,8.981979940E-1
1.020699167E-1,6.483359825E-1,-2.912465957E-1,5.797777444E-1,9.172275392E-1
1.120959166E-1,5.671241505E-1,-1.781523818E-1,5.270229954E-1,7.944314387E-1
1.221230417E-1,7.032197759E-2,3.191059470E-2,7.857839227E-2,1.101727295E-1
1.321500416E-1,-4.893265077E-1,1.938004079E-1,-6.199025077E-1,8.131901058E-1
1.421760417E-1,-9.777054010E-1,3.620821050E-1,-9.309650248E-1,1.397750757E0
1.522030417E-1,-1.189387837E0,4.456598666E-1,-8.015977174E-1,1.501937097E0
1.622300417E-1,-1.014009301E0,4.396717331E-1,-6.408647758E-1,1.277589041E0
1.722560417E-1,-6.227480552E-1,3.504297736E-1,-5.591563690E-1,9.073433812E-1
1.822830416E-1,-2.464430549E-1,1.671166393E-1,-6.526170945E-1,7.173361991E-1
1.923100416E-1,1.237480601E-1,-1.278522938E-1,-7.131053710E-1,7.349687487E-1
2.023360417E-1,5.245855104E-1,-4.817023963E-1,-3.774576509E-1,8.060405911E-1
2.123630417E-1,8.343571816E-1,-6.115896674E-1,1.598558593E-1,1.046779692E0
2.223900417E-1,1.003128437E0,-4.566106783E-1,7.636370087E-1,1.340858476E0
2.324160417E-1,8.651144861E-1,-1.073311982E-1,1.104910335E0,1.407398276E0
2.424430416E-1,7.212311004E-1,1.173955719E-1,1.077391584E0,1.301817439E0
2.524700416E-1,6.460676283E-1,2.306390360E-2,1.015510501E0,1.203825943E0
2.624960417E-1,5.109839366E-1,-1.583452311E-1,8.785084838E-1,1.028569371E0
2.725230417E-1,2.788170232E-1,-3.910109121E-1,9.595725274E-1,1.073036766E0
2.825500417E-1,1.703067340E-1,-5.159352127E-1,8.583116162E-1,1.015821026E0
2.925760417E-1,2.439040294E-1,-4.974147418E-1,5.908517861E-1,8.099484145E-1
3.026030416E-1,4.809042513E-1,-4.478633898E-1,3.222768921E-1,7.319241150E-1
3.126300417E-1,6.077005380E-1,-4.551785490E-1,-1.151316762E-2,7.593549950E-1
3.226560417E-1,5.921760343E-1,-4.793088385E-1,-4.043390554E-1,8.624960812E-1
3.326830417E-1,3.696045479E-1,-5.631660971E-1,-5.023155856E-1,8.402883566E-1
3.427100417E-1,1.525819230E-1,-8.337976031E-1,-5.963546008E-1,1.036406530E0
3.527360416E-1,2.344601914E-2,-9.089153208E-1,-4.716761756E-1,1.024282769E0
3.627630416E-1,-1.342666894E-2,-7.731396112E-1,-2.113160348E-1,8.016106289E-1
3.727900417E-1,1.164166018E-1,-6.025663903E-1,-3.710543650E-1,7.171613638E-1
3.828160417E-1,2.878046322E-1,-4.110352868E-1,-6.416032791E-1,8.145159796E-1
3.928430417E-1,5.232228899E-1,-3.648194790E-2,-7.658197743E-1,9.282095947E-1
4.028700417E-1,5.032406151E-1,2.585431185E-1,-1.003765199E0,1.152232717E0
4.128960416E-1,4.388135080E-1,3.310803138E-1,-1.288115880E0,1.400504906E0
4.229230416E-1,4.730222046E-1,3.724753846E-1,-1.396329131E0,1.520599540E0
4.329500417E-1,4.557129845E-1,4.802173497E-1,-1.269938056E0,1.432140250E0
4.429760417E-1,5.151205494E-1,6.083605425E-1,-1.050285062E0,1.318541027E0
4.530030417E-1,7.510274881E-1,5.514902307E-1,-1.048986395E0,1.403052465E0
4.630300417E-1,1.356006147E0,5.830777667E-1,-1.059910748E0,1.817179999E0
4.730560416E-1,1.246806764E0,4.518620814E-1,-9.235478318E-1,1.616059109E0
4.830830417E-1,-6.267279625E-2,5.447602317E-2,-9.309790581E-1,9.346750896E-1
4.931100417E-1,-5.289818857E-1,-2.067631734E-1,-7.705191815E-1,9.572213194E-1
5.031360417E-1,-1.471679860E-1,-3.065022006E-1,-5.381648648E-1,6.365716274E-1
5.131630417E-1,9.620073080E-2,-2.416836041E-1,-5.062840909E-1,5.692004267E-1
5.231900417E-1,4.119848746E-1,-7.964917277E-3,-2.952487224E-1,5.069189135E-1
5.332160416E-1,5.792517874E-1,1.953897177E-1,1.804561847E-1,6.373964305E-1
5.432430417E-1,4.565325083E-1,1.915517515E-1,3.412475985E-1,6.013018611E-1
5.532700417E-1,3.113055421E-1,-6.565147754E-2,3.606211782E-1,4.809042432E-1
5.632960417E-1,4.485231750E-1,-1.517122228E-1,4.669212198E-1,6.649850093E-1
5.733230417E-1,6.017187633E-1,-1.356410044E-1,7.614589208E-1,9.799406310E-1
5.833500416E-1,6.277451587E-1,-5.226818763E-2,1.054516692E0,1.228332773E0
5.933760416E-1,6.505797784E-1,1.450739519E-1,1.261230968E0,1.426535682E0
6.034030417E-1,3.527740320E-1,9.999250397E-3,9.491633141E-1,1.012650236E0
6.134300417E-1,-3.097412292E-1,-1.033118952E-1,2.488124746E-1,4.105126359E-1
6.234560417E-1,-7.565202163E-1,1.243563167E-1,-2.449170595E-1,8.048426537E-1
6.334830417E-1,-2.267709567E-1,4.293298358E-1,-5.410861337E-1,7.269961340E-1
6.435100416E-1,1.258861676E-2,5.485080776E-1,-7.811535126E-1,9.545786478E-1
6.535360417E-1,1.209860547E-1,9.394180521E-2,-5.655239868E-1,5.859010734E-1
6.635630417E-1,-3.252140947E-2,-4.256727679E-1,1.571100068E-1,4.549049369E-1
6.735900417E-1,-3.927611299E-2,-5.832432429E-1,1.037141106E0,1.190536420E0
6.836160417E-1,1.689304456E-1,-7.310781039E-1,1.253889788E0,1.461250249E0
6.936430417E-1,1.824263310E-1,-1.112244059E0,1.114287515E0,1.584929929E0
7.036700416E-1,4.018843943E-1,-1.274382233E0,5.156986928E-1,1.432308027E0
7.136960417E-1,9.678684108E-1,-1.104835637E0,-3.852057964E-1,1.518490879E0
7.237230417E-1,1.487576978E0,-1.012520527E0,-4.257661772E-1,1.849151135E0
7.337500417E-1,1.782547665E0,-8.335488041E-1,-6.828425217E-1,2.082919513E0
7.437760417E-1,1.959972361E0,1.428141493E-1,-7.403732765E-1,2.100009554E0
7.538030416E-1,1.247940539E0,1.308026527E-1,-8.134301430E-1,1.495370696E0
7.638300416E-1,2.169978108E-1,-5.811715744E-1,-7.957119101E-1,1.008962781E0
7.738560417E-1,1.070281479E-1,-1.493472872E0,-1.014356845E0,1.808545286E0
7.838830417E-1,2.594207856E-1,-2.418013122E0,-1.300469878E0,2.757772381E0
7.939100417E-1,-2.877701336E-1,-2.799225855E0,-1.415378190E0,3.149884515E0
8.039360417E-1,-4.722811797E-1,-2.329871462E0,-1.646596393E0,2.891821264E0
8.139630416E-1,-3.364956760E-1,-1.156507043E0,-1.630753947E0,2.027337248E0
8.239900416E-1,-3.748795404E-1,-4.646497227E-1,-1.583177492E0,1.692006207E0
8.340160417E-1,-5.125160899E-1,6.016097859E-2,-1.647050137E0,1.725997172E0
8.440430417E-1,-4.697051523E-1,8.009194404E-2,-1.487181998E0,1.561649111E0
8.540700417E-1,-6.649013637E-1,-4.642543048E-1,-1.314297958E0,1.544346142E0
8.640970417E-1,-8.365781003E-1,-2.762166202E-1,-1.330002995E0,1.595326457E0
8.741230416E-1,-1.113344359E0,3.428890581E-1,-2.171584557E0,2.464323042E0
8.841500417E-1,-1.062070709E0,1.011448440E0,-3.060324499E0,3.393612850E0
8.941760417E-1,-1.319738500E0,1.192727328E0,-2.952310638E0,3.446802329E0
9.042030417E-1,-2.243268498E0,3.226091601E-1,-2.097243057E0,3.087840453E0
9.142300417E-1,-3.348543991E0,-1.028366993E0,-8.837756556E-1,3.612664521E0
9.242570417E-1,-3.580793350E0,-1.537603124E0,-6.430358469E-1,3.949658148E0
9.342830416E-1,-3.885830604E0,-1.567588815E0,-5.954231393E-1,4.232203078E0
9.443100417E-1,-4.135309954E0,-1.522052454E0,-8.742329997E-1,4.492406418E0
9.543370417E-1,-4.491452749E0,-1.592145659E0,-1.349998718E0,4.952834758E0
9.643630417E-1,-4.402993147E0,-1.578981238E0,-1.551422433E0,4.928127633E0
9.743900417E-1,-3.130688723E0,-1.209560731E0,-1.173321004E0,3.555408727E0
9.844170416E-1,-1.399043993E0,-7.487408613E-1,-1.826073754E-1,1.597273435E0
9.944430416E-1,-3.328691232E-1,-3.790115485E-1,1.156982714E0,1.262165048E0
1.004470042E0,-5.025073743E-1,-2.761516430E-1,2.630039594E0,2.691817537E0
1.014497042E0,-1.203601395E0,-4.812989384E-1,3.669778032E0,3.891988668E0
1.024523042E0,-2.186321880E0,-8.115979180E-1,3.503303710E0,4.208542672E0
1.034550042E0,-2.664670898E0,-9.897757351E-1,2.629605145E0,3.872331368E0
1.044577042E0,-1.895161530E0,-9.207910158E-1,2.105484708E0,2.978684135E0
1.054603042E0,-1.010691226E0,-5.518283460E-1,1.915039140E0,2.234588594E0
1.064630042E0,-7.687509835E-2,6.117956355E-2,1.782081642E0,1.784787858E0
1.074657042E0,8.761695975E-1,5.473480631E-1,1.616022472E0,1.918017647E0
1.084683042E0,1.773151774E0,8.255692551E-1,1.451009368E0,2.435376767E0
1.094710042E0,2.447929816E0,1.199308369E0,1.863991193E0,3.302296794E0
1.104737042E0,3.320725570E0,1.856231061E0,2.818236030E0,4.734476358E0
1.114763042E0,3.771937661E0,2.236882169E0,3.421860766E0,5.562399361E0
1.124789833E0,4.202350620E0,1.817898177E0,3.808785644E0,5.955783122E0
1.134816833E0,4.985993877E0,9.394326702E-1,3.953265665E0,6.432027527E0
1.144842833E0,4.975337327E0,7.277064532E-2,3.690781231E0,6.195251664E0
1.154869833E0,4.209451479E0,-5.286023283E-1,3.152578944E0,5.285608401E0
1.164896833E0,3.481735670E0,-7.688307980E-1,2.636717699E0,4.434621099E0
1.174922833E0,3.093712100E0,-3.872701558E-1,2.537732524E0,4.020089439E0
1.184949833E0,2.382265584E0,7.239864546E-1,2.182241693E0,3.310819310E0
1.194976833E0,2.549981271E0,1.222105786E0,1.533864999E0,3.216937809E0
1.205002833E0,2.808686650E0,8.995301011E-1,1.132605672E0,3.159219952E0
1.215029833E0,2.696020160E0,6.931666580E-1,8.223091400E-1,2.902618997E0
1.225056833E0,2.562310125E0,5.888225099E-1,5.443000558E-1,2.684847794E0
1.235082833E0,1.984656674E0,4.775298232E-1,4.874037239E-1,2.098680356E0
1.245109833E0,1.254338855E0,4.684172300E-1,4.988350305E-1,1.428851655E0
1.255136833E0,5.633663642E-1,4.887550154E-1,3.063134086E-1,8.062822271E-1
1.265162833E0,-3.902589601E-1,4.691653812E-1,-3.094346523E-3,6.102686178E-1
1.275189833E0,-1.460898764E0,2.017675316E-1,-2.205986358E0,2.653546900E0
1.285216833E0,-2.163867402E0,-2.230780014E-1,-7.736813557E0,8.036813420E0
1.295242833E0,-1.311952640E0,1.939287543E-2,-7.714010001E0,7.824803263E0
1.305269833E0,-2.188192404E0,4.985774606E-1,-5.227091535E0,5.688519262E0
1.315296833E0,-4.135871871E0,6.931593490E-1,-3.224973321E0,5.290213506E0
1.325322833E0,-4.693023230E0,7.268925208E-1,-2.381013111E0,5.312444184E0
1.335349833E0,-5.379009799E0,4.808440250E-1,-1.185992066E0,5.529153152E0
1.345376833E0,-6.207050965E0,-2.204838842E-1,5.476396930E-1,6.235062474E0
1.355402833E0,-6.269674060E0,-1.307916892E0,1.013612494E0,6.484355766E0
1.365429833E0,-3.335693273E0,-3.100840441E0,2.110671773E0,5.019660983E0
1.375456833E0,2.083539523E0,-3.391887354E0,2.467619730E0,4.683501244E0
1.385482833E0,3.806862495E0,-1.571315246E0,-3.227160180E0,5.232188498E0
1.395509833E0,2.173579043E0,1.645355614E0,-2.126440544E0,3.457367545E0
1.405536833E0,2.819175385E0,3.091573189E0,-6.662989944E-1,4.236688446E0
1.415562833E0,2.930480059E0,2.914292042E0,-7.258908927E-1,4.196156464E0
1.425589833E0,2.832119951E0,1.869285847E0,2.491279904E0,4.209704093E0
1.435616833E0,1.732789614E0,8.425545394E-2,-6.149095702E-1,1.840590288E0
1.445642833E0,1.797392284E0,-2.246315482E0,-2.700199749E0,3.945583728E0
1.455669833E0,1.427531336E0,-3.664503844E0,2.466870117E-1,3.940468071E0
1.465696833E0,-4.935798454E-1,-2.759583487E0,1.759358193E0,3.309722547E0
1.475722833E0,-5.216195834E-1,4.280530232E-1,-1.381603503E0,1.537577517E0
1.485749833E0,4.833039486E-1,1.460633885E0,-2.369128060E0,2.824854301E0
1.495776833E0,6.352882862E-1,1.994445498E0,-1.200579627E0,2.413046931E0
1.505802833E0,1.583786187E0,1.291348221E0,4.639157510E-1,2.095513479E0
1.515829833E0,1.418791795E0,4.219023371E-1,1.173111820E0,1.888693485E0
1.525856833E0,-3.546785067E-1,1.406586317E0,2.088135434E0,2.542556096E0
1.535883833E0,-4.731678003E-1,5.135112494E-1,5.417633875E-1,8.837924748E-1
1.545909833E0,-2.092421005E0,-1.559650050E0,-1.318219686E0,2.923771038E0
1.555936833E0,-6.050040945E-1,-7.648292559E-1,3.714140419E-1,1.043523903E0
1.565963833E0,1.042519521E0,-8.663585544E-2,5.177417099E-1,1.167222858E0
1.575989833E0,2.130725676E0,5.402698624E-1,5.633558393E-1,2.269196605E0
1.586016833E0,4.052091211E0,3.265986861E0,-8.131792974E-1,5.267577615E0
1.596043833E0,3.735100202E0,1.000493681E0,-1.042723442E0,4.004901160E0
1.606069833E0,3.240359100E0,-3.647898336E0,4.011727151E-1,4.895715363E0
1.616096833E0,2.561296218E0,-4.821117014E0,1.154015910E0,5.579888914E0
1.626123833E0,1.762416725E0,-3.349140115E0,-5.371720076E-2,3.784935635E0
1.636149833E0,4.586589579E-1,-6.363103795E-1,-5.232322454E-1,9.428843627E-1
1.646176833E0,-1.374845145E0,6.083975261E-1,-7.550356814E-1,1.682386877E0
1.656203833E0,-1.828041634E0,1.766559039E0,-1.411035463E-2,2.542177444E0
1.666229833E0,-1.028126380E0,1.301151078E0,4.740630821E-1,1.724753254E0
1.676256833E0,-2.998039958E-1,8.536934853E-4,6.813340862E-1,7.443784667E-1
1.686283833E0,-4.749334402E-1,-5.724237013E-1,7.739048655E-1,1.073386886E0
1.696309833E0,-8.360132593E-1,-8.388415575E-2,4.408379602E-1,9.488376197E-1
1.706336833E0,-5.605576542E-1,3.749731690E-1,-3.010813200E-1,7.385659906E-1
1.716363833E0,4.798164500E-1,1.030951243E0,-7.202564427E-1,1.346051126E0
1.726389833E0,1.052388671E0,1.753290537E0,-3.626360921E-1,2.076789483E0
1.736416833E0,5.333175230E-1,1.593734640E0,1.099814487E-1,1.684195239E0
1.746443833E0,-4.822059877E-2,-5.493026412E-1,9.661825854E-2,5.598157783E-1
1.756469833E0,-2.691692635E-3,-1.421337088E0,1.194593467E-2,1.421389837E0
1.766496833E0,-3.385544441E-1,-9.444089431E-1,7.300424159E-1,1.240761578E0
1.776523833E0,-1.009585663E0,-3.727494729E-1,8.118496406E-1,1.348074634E0
1.786549833E0,-1.331568879E0,-2.386318874E-1,6.127507051E-1,1.485087298E0
1.796576833E0,-1.311489833E0,-5.454107344E-1,6.268518504E-1,1.552553282E0
1.806603833E0,-5.638236165E-1,-1.169725551E0,3.610831082E-1,1.347789281E0
1.816629833E0,-1.249475433E-1,-1.315021843E0,-2.146431005E-1,1.338269778E0
1.826656833E0,-4.422236042E-1,3.824060326E0,-3.596294904E-1,3.866307342E0
1.836683833E0,-6.930529296E-1,8.182318180E0,-4.060388410E-1,8.221649512E0
1.846709833E0,1.618606137E-1,5.696767963E0,7.354768181E-1,5.746328413E0
1.856736833E0,-9.773542757E-1,4.558044350E0,3.837538596E-1,4.677419876E0
1.866763833E0,-1.312923278E0,2.346126868E0,-1.895270435E-1,2.695180757E0
1.876789833E0,-1.448129615E0,1.713608408E-1,-2.365480129E-1,1.477294446E0
1.886816833E0,-1.235341836E0,-7.789309859E-1,3.129172540E-1,1.493559553E0
1.896843833E0,-1.258038680E-1,-1.483105320E-1,6.761685097E-1,7.035811827E-1
1.906869833E0,1.295104765E0,4.646940154E-1,8.542991837E-1,1.619587594E0
1.916896833E0,1.916325820E0,1.261103498E0,7.452813562E-1,2.412080219E0
1.926923833E0,1.520991184E0,2.320675108E0,3.007456899E-2,2.774860648E0
1.936949833E0,1.068748230E-1,2.157847694E0,-5.115799141E-1,2.220234876E0
1.946976833E0,-8.843127224E-1,4.613745511E-1,-5.753473091E-1,1.151477309E0
1.957003833E0,-1.505998631E0,-1.986434813E0,-5.185435094E-2,2.493319878E0
1.967029833E0,-8.478874925E-1,-2.241514333E0,3.024811435E-1,2.415531939E0
1.977056833E0,-7.458598651E-2,-1.219896415E0,3.415662352E-1,1.269006630E0
1.987083833E0,5.608947462E-1,-6.511646461E-1,1.027963901E-1,8.655549725E-1
1.997110833E0,2.218831229E-1,-2.701746338E0,-5.799935067E-1,2.772193691E0
2.007136833E0,-4.636746264E-1,-4.843265682E0,-5.985490608E-1,4.902089106E0
2.017163833E0,-1.016411995E-1,-4.699173331E0,-5.243338609E-1,4.729427759E0
2.027189833E0,1.068066298E-1,-2.160666052E0,-5.976485896E-1,2.244341614E0
2.037216833E0,2.643984033E0,-2.564406937E0,4.077462280E-1,3.705818600E0
2.047243833E0,3.194342389E0,-1.956395327E0,-1.556294918E-2,3.745870817E0
2.057270833E0,1.861286856E0,-2.061872081E0,-6.842271423E-1,2.860746759E0
2.067296833E0,-1.125067880E-1,-3.625060866E0,-5.395553327E-1,3.666721153E0
2.077323833E0,-8.596779643E-1,-3.046504020E0,-1.188434704E-1,3.167705276E0
2.087350833E0,-9.802472587E-1,-2.591102985E0,3.353612065E-2,2.770527754E0
2.097376833E0,-8.460272008E-1,-2.314913262E0,-1.974417615E-1,2.472563181E0
2.107403833E0,-4.156808996E-1,-2.258078325E0,-2.464098537E-1,2.309204657E0
2.117430833E0,-1.987426939E-1,-1.796859895E0,-5.974451065E-2,1.808804452E0
2.127456583E0,-3.549123222E-1,-6.825530845E-1,1.384971499E-1,7.816795572E-1
2.137483583E0,-7.441905581E-1,-3.694270849E-2,3.579899539E-2,7.459664326E-1
2.147510583E0,-8.703287407E-1,9.100547969E-2,-8.270418763E-2,8.789733198E-1
2.157536583E0,-4.403774189E-1,-8.050329566E-2,-2.534896624E-1,5.144609418E-1
2.167563583E0,4.813164800E-2,-3.039558113E-2,-3.922557843E-1,3.963649167E-1
2.177590583E0,3.610593539E-1,1.801404351E-1,-4.107996440E-1,5.758218308E-1
2.187616583E0,1.549612281E-1,4.883056569E-1,-4.677070856E-1,6.936896386E-1
2.197643583E0,-3.125468329E-1,5.024506563E-1,-4.428353691E-1,7.390841284E-1
2.207670583E0,-8.037503698E-1,4.452034914E-1,-4.680392075E-1,1.031155423E0
2.217696583E0,-9.789911306E-1,-2.059506297E-2,-3.724536037E-1,1.047649501E0
2.227723583E0,-8.765189686E-1,-4.121246231E-1,-3.502037787E-1,1.029939267E0
2.237750583E0,-6.475738710E-1,-6.289791405E-1,-2.273537596E-1,9.309438273E-1
2.247776583E0,-4.029924417E-1,-4.612032276E-1,-1.167326256E-1,6.234884370E-1
2.257803583E0,-5.516608232E-1,-4.797096652E-1,-3.706665119E-2,7.320006580E-1
2.267830583E0,-7.424051839E-1,-3.611193609E-1,1.494201142E-2,8.257093397E-1
2.277856583E0,-6.778188863E-1,-7.823176932E-1,-2.548918247E-2,1.035427020E0
2.287883583E0,-4.282097286E-1,-1.017618422E0,-2.367210174E-1,1.129135804E0
2.297910583E0,5.197206270E-2,-1.144305950E0,-5.440493930E-1,1.268119452E0
2.307936583E0,4.150894538E-1,-9.160610569E-1,-8.706761384E-1,1.330242103E0
2.317963583E0,7.864759406E-1,-5.924083149E-1,-1.202207346E0,1.553960913E0
2.327990583E0,1.065651252E0,-3.177844763E-1,-1.569355259E0,1.923402062E0
2.338016583E0,1.357499526E0,-7.652818304E-1,-1.798401221E0,2.379644552E0
2.348043583E0,1.767638727E0,-1.094627421E0,-1.714299549E0,2.694731676E0
2.358070583E0,2.263116725E0,-1.393733552E0,-1.668292487E0,3.138055185E0
2.368096583E0,2.567260378E0,-1.458019010E0,-1.508752523E0,3.315566235E0
2.378123583E0,2.543950745E0,-1.620775673E0,-1.156165419E0,3.230374228E0
2.388150583E0,2.171347160E0,-1.201031544E0,-9.595374441E-1,2.660439318E0
2.398176583E0,1.559888617E0,-7.596182173E-1,-7.464964807E-1,1.888790441E0
2.408203583E0,1.088873177E0,8.640781403E-1,-7.043006337E-1,1.558305236E0
2.418230583E0,1.053852448E-1,2.636477378E0,-1.613200021E-1,2.643509629E0
2.428256583E0,-1.099610199E0,3.362098714E0,1.009298126E-1,3.538790356E0
2.438283583E0,-1.845635321E0,3.815457902E0,1.507410733E-1,4.241086136E0
2.448310583E0,-2.329695607E0,3.848278908E0,1.518770412E-2,4.498551194E0
2.458337583E0,-2.468629837E0,3.834318096E0,-3.361106734E-1,4.572646817E0
2.468363583E0,-2.375832916E0,3.661885461E0,-5.075501592E-1,4.394495914E0
2.478390583E0,-2.087474260E0,3.346493080E0,-3.898597415E-1,3.963401991E0
2.488417583E0,-2.013253944E0,2.845760921E0,-2.548883164E-1,3.495213114E0
2.498443583E0,-1.881330819E0,2.981312828E0,-2.347496286E-1,3.533092019E0
2.508470583E0,-1.994875415E0,3.287555485E0,1.492994423E-1,3.848355404E0
2.518497583E0,-2.043365204E0,3.551620422E0,5.863447523E-1,4.139220838E0
2.528523583E0,-1.785961270E0,3.605089116E0,1.056319242E0,4.159583577E0
2.538550583E0,-1.325778381E0,2.755420269E0,1.452512834E0,3.385235990E0
2.548577583E0,-5.189220435E-1,1.032790192E0,1.685973297E0,2.044123682E0
2.558603583E0,2.188914681E-1,-1.408165065E0,1.857412491E0,2.341115864E0
2.568630583E0,2.678496201E-1,-4.539964174E0,1.359101079E0,4.746596029E0
2.578657583E0,8.479982972E-2,-7.893628280E0,-3.596505404E-2,7.894165688E0
2.588683583E0,8.514262274E-2,-9.691302692E0,-2.041524940E0,9.904363746E0
2.598710583E0,2.701666524E-1,-7.938589860E0,-2.549119391E0,8.342194475E0
2.608737583E0,5.920130432E-2,-2.731737292E0,-7.169399750E-1,2.824871033E0
2.618763583E0,-5.946973537E-1,2.063246176E0,5.275030518E-1,2.211087786E0
2.628790583E0,-8.461376401E-1,4.244442387E0,3.424409422E-1,4.341486598E0
2.638817583E0,-5.548311105E-1,4.781982184E0,1.024597001E0,4.921888884E0
2.648843583E0,8.172741026E-2,4.227505342E0,1.456803374E0,4.472220573E0
2.658870583E0,3.555802204E-1,1.722827128E0,1.259008441E0,2.163255154E0
2.668897583E0,1.136077822E0,-1.702672945E0,1.246602988E0,2.396619908E0
2.678923583E0,2.643067482E0,-4.230838839E0,1.053807424E0,5.098657969E0
2.688950583E0,4.215910898E0,-4.945030623E0,7.561046255E-1,6.542088869E0
2.698977583E0,4.628860855E0,-3.709119853E0,4.838290286E-1,5.951303507E0
2.709003583E0,3.165163906E0,-1.888546575E0,7.884506185E-2,3.686609182E0
2.719030583E0,1.172549829E0,-3.063268572E-1,3.198719688E-1,1.253406288E0
2.729057583E0,-4.876538385E-1,8.654393721E-1,1.025216879E0,1.427536767E0
2.739083583E0,-1.525064939E0,1.446706987E0,1.574275106E0,2.626238048E0
2.749110583E0,-1.861656692E0,1.318100402E0,1.691530491E0,2.839793956E0
2.759137583E0,-1.403386574E0,5.231585705E-1,1.547269156E0,2.153422998E0
2.769163583E0,-1.511893940E0,-2.343312603E-1,8.397888064E-1,1.745273521E0
2.779190583E0,-1.022358321E0,-7.756723326E-1,1.794732678E-1,1.295798888E0
2.789217583E0,-6.410464780E-1,-1.011015746E0,-6.862420928E-1,1.379862905E0
2.799243583E0,-3.219997340E-1,-8.694090468E-1,-1.249616643E0,1.555987684E0
2.809270583E0,8.603110716E-2,-5.682154602E-1,-1.303875296E0,1.424907347E0
2.819297583E0,-1.474037750E-1,-2.993850428E-1,-1.492898821E0,1.529740556E0
2.829324583E0,7.622861557E-2,1.863273740E-1,-1.163224032E0,1.180516345E0
2.839350583E0,3.092689569E-1,5.793473893E-1,-8.232710069E-1,1.053121947E0
2.849377583E0,9.817153484E-1,8.576479572E-1,-8.533578551E-1,1.558057981E0
2.859404583E0,7.148059606E-1,1.193760531E0,-1.005715830E0,1.716821510E0
2.869430583E0,1.188205384E0,1.498442566E0,-9.069008088E-1,2.116513935E0
2.879457583E0,1.637816506E0,1.685061132E0,-7.298991591E-1,2.460615108E0
2.889484583E0,1.869926409E0,1.892458947E0,-6.587619334E-1,2.740801512E0
2.899510583E0,1.886620649E0,2.029634627E0,-7.798847399E-1,2.878710544E0
2.909537583E0,1.716770728E0,2.178352709E0,-1.005405927E0,2.950146325E0
2.919564583E0,1.669640562E0,2.150849746E0,-1.341771101E0,3.035490722E0
2.929590583E0,1.989734981E0,2.111839462E0,-1.511998166E0,3.271857219E0
2.939617583E0,2.455681762E0,2.008362456E0,-1.352482615E0,3.448637687E0
2.949644583E0,2.728310239E0,1.830232294E0,-1.048446770E0,3.448574725E0
2.959670583E0,2.809808146E0,1.684869928E0,-7.389045290E-1,3.358539622E0
2.969697583E0,2.788075215E0,1.410731993E0,-6.107551235E-1,3.183794902E0
2.979724583E0,2.495627601E0,1.031492695E0,-7.596697459E-1,2.805215219E0
2.989750583E0,2.088560381E0,7.185818732E-1,-1.140705308E0,2.485890780E0
2.999777583E0,1.655774475E0,4.772479874E-1,-1.546914815E0,2.315664094E0
3.009804583E0,1.223320180E0,3.873844689E-1,-2.098877354E0,2.460053889E0
3.019830583E0,8.901377186E-1,5.154601264E-1,-2.859663845E0,3.039033005E0
3.029857583E0,7.488327357E-1,8.140902936E-1,-3.632802579E0,3.797466004E0
3.039884583E0,7.869071728E-1,1.122950165E0,-4.161891981E0,4.381961300E0
3.049910583E0,1.092206967E0,1.239220294E0,-4.502443761E0,4.795892285E0
3.059937583E0,1.588624173E0,1.173428008E0,-4.601109093E0,5.007081479E0
3.069964583E0,2.134295109E0,1.230810828E0,-4.618865333E0,5.234885659E0
3.079990583E0,2.695552382E0,2.247973752E0,-3.557376421E0,4.997430904E0
3.090017583E0,4.786196857E0,2.248236292E0,-5.158799565E-1,5.313038576E0
3.100044583E0,7.521355940E0,-2.896622341E0,4.446012867E0,9.204794760E0
3.110070583E0,7.291030607E0,-7.956986369E0,9.161126293E0,1.415623518E1
3.120098292E0,7.644162671E0,-1.089879599E1,9.562984375E0,1.639108438E1
3.130125292E0,9.878316529E0,-1.217556477E1,2.909297935E0,1.594645821E1
3.140151292E0,1.814111228E0,-9.537046711E0,-4.063629522E0,1.052422655E1
3.150178292E0,-8.855486484E0,-6.590792618E0,-6.014060104E0,1.257088331E1
3.160205292E0,-1.057458543E1,-3.802087659E0,-7.380906404E0,1.344453446E1
3.170232292E0,-7.343666657E0,-2.620478811E0,-6.839891607E0,1.037210038E1
3.180258292E0,-4.432222794E0,-2.589378056E0,-3.725772139E0,6.342779804E0
3.190285292E0,-3.373142350E0,-2.085332279E0,-2.097595060E0,4.486268501E0
3.200312292E0,-2.273695654E0,-1.557711698E0,-2.182262743E0,3.515455637E0
3.210338292E0,-1.101152841E0,-9.788759404E-1,-1.853532132E0,2.367766258E0
3.220365292E0,2.400606911E-1,-1.231982610E0,-1.572086932E0,2.011682780E0
3.230392292E0,1.079414282E0,-2.792161249E0,-1.313984401E0,3.269228447E0
3.240418292E0,1.208939245E0,-5.342741860E0,2.563568446E-1,5.483807392E0
3.250445292E0,1.302626477E0,-7.644776629E0,2.821704891E0,8.252361112E0
3.260472292E0,-1.493364260E-2,-8.128810310E0,4.588086759E0,9.334255202E0
3.270498292E0,-4.331687522E-1,-6.514005813E0,5.758426852E0,8.705135652E0
3.280525292E0,8.832584694E-2,-4.182192344E0,5.664105417E0,7.041351037E0
3.290552292E0,1.046662492E0,-2.402932568E0,4.570167089E0,5.268397719E0
3.300578292E0,1.532965551E0,-1.472246456E0,3.390619970E0,4.001724227E0
3.310605292E0,1.710419483E0,-1.126479544E0,2.611482578E0,3.318784751E0
3.320632292E0,1.883977561E0,-1.371653881E0,1.713555198E0,2.892590057E0
3.330658292E0,1.414474649E0,-1.634246489E0,8.762222224E-1,2.332223296E0
3.340685292E0,4.793314965E-1,-1.662180392E0,2.188984117E-1,1.743708363E0
3.350712292E0,-5.341849574E-1,-1.545614979E0,4.718802434E-1,1.702042948E0
3.360738292E0,-1.287222426E0,-1.106346411E0,1.257288190E0,2.112277810E0
3.370765292E0,-1.979854795E0,-6.052125478E-1,1.867154537E0,2.787897649E0
3.380792292E0,-2.537776670E0,-3.823073316E-1,3.065771180E0,3.998177366E0
3.390818292E0,-2.300655557E0,-6.566826636E-1,4.161176282E0,4.799962100E0
3.400845292E0,-1.704815950E0,-1.247817455E0,4.709904141E0,5.162038633E0
3.410872292E0,-1.028929422E0,-1.377757205E0,4.922328224E0,5.214041217E0
3.420898292E0,-4.954285157E-1,-5.446055728E-1,5.108384287E0,5.161166018E0
3.430925292E0,3.105998562E-1,7.078715283E-1,4.788731040E0,4.850721529E0
3.440952292E0,5.980847188E-1,1.435625344E0,4.491910002E0,4.753523001E0
3.450978292E0,2.657974666E-1,1.943000525E0,4.315801806E0,4.740468813E0
3.461005292E0,-6.070557363E-2,2.505365846E0,4.298410433E0,4.975628145E0
3.471032292E0,-3.428756095E-1,2.957707034E0,4.185152205E0,5.136252871E0
3.481059292E0,-6.555796594E-1,3.347621593E0,4.227990076E0,5.432518302E0
3.491085292E0,-1.179497125E0,3.661389617E0,4.551929916E0,5.959618558E0
3.501112292E0,-1.276277461E0,3.907975472E0,5.140215359E0,6.582018717E0
3.511139292E0,-1.346263078E0,4.000726345E0,5.626800765E0,7.034139778E0
3.521165292E0,-1.011282014E0,4.247340267E0,5.753039228E0,7.222191565E0
3.531192292E0,-9.472303708E-1,4.570014185E0,5.596573584E0,7.287243025E0
3.541219292E0,-9.900390060E-1,4.661753490E0,5.460522909E0,7.247719178E0
3.551245292E0,-1.177734994E0,4.752509294E0,5.461226914E0,7.334739512E0
3.561272292E0,-1.714923008E0,4.897294539E0,5.091296968E0,7.269508893E0
3.571299292E0,-2.210836624E0,5.099059147E0,4.526874012E0,7.168039557E0
3.581325292E0,-2.286026554E0,5.189217950E0,4.124057572E0,7.011544138E0
3.591352292E0,-2.054428136E0,5.030939670E0,4.039210964E0,6.770986202E0
3.601379292E0,-1.950202395E0,4.846636602E0,4.134961460E0,6.662663281E0
3.611405292E0,-2.017899849E0,4.755294322E0,4.127320318E0,6.612073571E0
3.621432292E0,-2.106321445E0,4.795766995E0,4.109838898E0,6.657833496E0
3.631459292E0,-2.331524324E0,4.929973458E0,3.995427014E0,6.760479346E0
3.641485292E0,-2.798757493E0,5.053286558E0,3.995667334E0,7.023824171E0
3.651512292E0,-3.248268628E0,5.102134783E0,3.708600621E0,7.094839461E0
3.661539292E0,-3.147831590E0,5.136335732E0,3.741131020E0,7.091322146E0
3.671565292E0,-3.369876096E0,5.048448572E0,3.867996596E0,7.197520098E0
3.681592292E0,-3.469344251E0,4.683371231E0,4.978846825E0,7.665457020E0
3.691619292E0,-3.761120312E0,4.065122316E0,6.564573119E0,8.588647488E0
3.701645292E0,-4.291643450E0,2.904250619E0,4.021735683E0,6.559514698E0
3.711672292E0,-5.023666318E0,-1.602679126E0,-1.001814100E1,1.132117276E1
3.721699292E0,-7.490496089E0,-2.230687979E1,-4.846837980E1,5.387845820E1
3.731725292E0,2.867099165E1,-6.592342715E1,-3.779579621E1,8.121850910E1
3.741752292E0,2.132391372E1,-6.217213426E1,4.225578333E1,7.813856154E1
3.751779292E0,2.960835586E0,-1.656608814E1,2.841636412E1,3.302561995E1
3.761806292E0,-4.907915422E0,9.613934673E0,-1.524158153E1,1.867675510E1
3.771832292E0,-1.375659341E1,1.961277635E1,-8.754250131E0,2.550572002E1
3.781859292E0,-1.567190503E1,2.658506295E1,9.288800247E0,3.222818626E1
3.791886292E0,-1.203114088E1,2.639334445E1,9.535957375E0,3.053344830E1
3.801912292E0,-3.811451682E0,1.685980314E1,3.936789966E0,1.772790008E1
3.811939292E0,1.483030475E0,4.390040395E0,4.311604967E0,6.329436899E0
3.821966292E0,2.190607450E0,-4.525678841E0,3.624029125E0,6.197912316E0
3.831992292E0,4.511961274E0,-9.106132060E0,2.653562357E0,1.050337226E1
3.842019292E0,8.269984900E0,-1.388846917E1,5.674488902E-1,1.617418389E1
3.852046292E0,1.011456392E1,-1.822075428E1,-6.380756539E-1,2.084963861E1
3.862072292E0,9.021818719E0,-1.404040556E1,-9.739926383E-1,1.671750170E1
3.872099292E0,5.111118445E0,-3.111587039E0,-5.241499659E-1,6.006682849E0
3.882126292E0,8.975939418E-1,3.147752652E0,3.157825358E-1,3.288425194E0
3.892152292E0,-1.893800445E0,5.002808715E0,2.077281833E-2,5.349299643E0
3.902179292E0,-4.277065172E0,4.701378316E0,-1.042192223E0,6.440683907E0
3.912206292E0,-4.415349483E0,3.994174540E0,-4.441647336E-1,5.970429099E0
3.922232292E0,-2.653646557E0,2.992202098E0,1.453288905E-1,4.002028727E0
3.932259292E0,-7.096233541E-1,1.539644971E0,4.074258006E-1,1.743578999E0
3.942286292E0,4.903700164E-1,1.864033878E-1,4.705767529E-1,7.047350256E-1
3.952312292E0,6.354126857E-1,-6.258596510E-1,2.625000755E-1,9.297074129E-1
3.962339292E0,2.692903009E-1,-8.810169393E-1,-1.112631583E-1,9.279480610E-1
3.972366292E0,-4.626653239E-2,-8.125308412E-1,-7.473256159E-1,1.104917434E0
3.982393292E0,-1.421222775E0,-5.900670898E-1,-1.354713182E0,2.050195393E0
3.992419292E0,-1.446665472E0,-3.059970742E-1,-1.541375016E0,2.135956961E0
4.002446292E0,-1.139344588E0,-2.808867913E-1,-1.250076234E0,1.714553607E0
4.012473292E0,-7.402469766E-1,-2.893792874E-1,-8.330294251E-1,1.151366137E0
4.022499292E0,1.881153063E-1,-2.542369366E-2,-6.635770424E-1,6.901943378E-1
4.032526292E0,3.867591092E-1,4.189839917E-1,2.271024207E-1,6.137635566E-1
4.042553292E0,1.496292253E0,8.730343205E-1,2.382858054E-1,1.748673656E0
4.052579292E0,2.105531632E0,1.380429967E0,-1.479591143E-1,2.522051198E0
4.062606292E0,2.187898435E0,1.674939601E0,-8.051533362E-1,2.870643504E0
4.072633292E0,1.922229315E0,1.759389768E0,-1.460703467E0,2.987318616E0
4.082659292E0,1.807575795E0,1.686600119E0,-1.517144301E0,2.900633904E0
4.092686292E0,1.560049123E0,1.761776016E0,-8.838182672E-1,2.513710947E0
4.102713292E0,1.622881402E0,1.795281731E0,-9.963889360E-2,2.422128908E0
4.112739292E0,1.439342127E0,1.865505037E0,3.697709012E-1,2.385067152E0
4.122766208E0,8.005170058E-1,2.371213762E0,5.289484835E-1,2.557981368E0
4.132793208E0,5.296488337E-1,2.838897459E0,-2.674750328E-2,2.888006596E0
4.142819208E0,8.677704377E-1,2.601593474E0,-7.718137550E-1,2.849036786E0
4.152846208E0,9.602337744E-1,1.973461010E0,-7.539505112E-1,2.320568602E0
4.162873208E0,8.008323900E-1,1.353052719E0,-1.939439571E-1,1.584202776E0
4.172899208E0,5.474900774E-1,8.778185123E-1,-8.931038330E-3,1.034596776E0
4.182926208E0,2.363563704E-1,6.028099269E-1,2.098752809E-1,6.806554013E-1
4.192953208E0,1.865984655E-1,5.719828212E-1,2.852008671E-1,6.658249542E-1
4.202979208E0,3.383234060E-1,7.222463232E-1,1.719537485E-1,8.158863708E-1
4.213006208E0,7.050164790E-1,8.627057987E-1,2.296084642E-2,1.114377284E0
4.223033208E0,1.008559769E0,1.019743885E0,-3.066086930E-1,1.466655818E0
4.233060208E0,1.266764188E0,1.259727648E0,-4.405151939E-1,1.840016003E0
4.243086208E0,1.607281908E0,1.362996494E0,-3.950250622E-1,2.144098732E0
4.253113208E0,2.091539391E0,1.311874872E0,-2.502011883E-1,2.481562681E0
4.263140208E0,2.497084435E0,9.845494938E-1,-2.134239560E-1,2.692641485E0
4.273166208E0,2.871310037E0,4.134490174E-1,-5.484179574E-1,2.952308194E0
4.283193208E0,3.010393078E0,-2.758248568E-1,-1.039561195E0,3.196753559E0
4.293220208E0,2.732725179E0,-7.330712736E-1,-1.596986861E0,3.248930198E0
4.303246208E0,2.060350050E0,-7.914878815E-1,-2.403836548E0,3.263422367E0
4.313273208E0,1.307393858E0,-5.282444787E-1,-3.553679227E0,3.823212913E0
4.323300208E0,8.623999894E-1,-6.342591763E-2,-5.037289161E0,5.110972381E0
4.333326208E0,1.021777035E0,5.843701476E-1,-6.401044623E0,6.508370691E0
4.343353208E0,2.317942996E0,2.084742295E0,-5.271729180E0,6.124552124E0
4.353380208E0,4.731977088E0,2.204630097E0,-9.149951094E-1,5.299926139E0
4.363406208E0,7.014364336E0,-2.303725199E0,3.828262720E0,8.316492787E0
4.373433208E0,6.736743214E0,-8.233416998E0,7.136192828E0,1.281007856E1
4.383460208E0,8.419295306E0,-1.059548221E1,2.133699278E0,1.370041785E1
4.393486208E0,7.477570235E0,-8.503425044E0,-4.622890556E0,1.223083853E1
4.403513208E0,3.497541279E-1,-7.895174283E0,-5.080394250E0,9.395025846E0
4.413540208E0,-4.729795200E0,-8.803455035E0,-6.765032043E0,1.206803388E1
4.423566208E0,-8.008775743E0,-8.029647380E0,-7.653939800E0,1.368205103E1
4.433593208E0,-8.608752109E0,-6.133352659E0,-5.318919718E0,1.183298503E1
4.443620208E0,-7.288466018E0,-5.397603945E0,-1.435966383E0,9.182475957E0
4.453646208E0,-5.720178460E0,-4.707719037E0,2.544405659E-1,7.412678339E0
4.463673208E0,-4.973361552E0,-3.827202035E0,-3.373013127E-1,6.284550320E0
4.473700208E0,-3.127563971E0,-3.524132661E0,-1.067286426E-1,4.713020094E0
4.483727208E0,5.102885565E-1,-3.531512432E0,3.377623656E-1,3.584139769E0
4.493753208E0,2.725710567E0,-3.885167238E0,1.197988068E0,4.894813374E0
4.503780208E0,3.774444362E0,-5.326629857E0,2.430135862E0,6.965987093E0
4.513807208E0,4.058388662E0,-5.805051965E0,3.979997381E0,8.124624669E0
4.523833208E0,2.922300681E0,-3.841051750E0,5.163483769E0,7.067891089E0
4.533860208E0,2.162403990E0,-2.064474092E0,4.429714046E0,5.344194123E0
4.543887208E0,1.683231246E0,-1.399291915E0,2.834847093E0,3.581569953E0
4.553913208E0,1.335512533E0,-1.034205219E0,1.979117607E0,2.601937867E0
4.563940208E0,6.844198081E-1,-1.089021696E0,1.794209937E0,2.207620444E0
4.573967208E0,1.407774179E-1,-1.561631087E0,2.284929324E0,2.771175193E0
4.583993208E0,-1.705988024E-1,-2.099397756E0,2.920449745E0,3.600777917E0
4.594020208E0,-5.212165640E-1,-2.415072557E0,3.585216184E0,4.354080529E0
4.604047208E0,-7.319130863E-1,-2.359432207E0,4.359809706E0,5.011043582E0
4.614073208E0,-7.599386448E-1,-1.890521180E0,4.734261888E0,5.154106392E0
4.624100208E0,-1.564448276E0,-1.173743758E0,4.407446387E0,4.821903822E0
4.634127208E0,-2.792795379E-1,-2.056991994E-2,3.141552849E0,3.154009272E0
4.644153208E0,-6.775005054E-1,1.191686524E0,2.835634713E0,3.149594883E0
4.654180208E0,-1.520266860E0,2.325853987E0,2.946366944E0,4.049924229E0
4.664207208E0,-1.819017334E0,3.440239735E0,3.484632965E0,5.223671161E0
4.674233208E0,-1.794310948E0,4.260629818E0,4.081728993E0,6.167092492E0
4.684260208E0,-1.473779011E0,4.471511405E0,4.400256066E0,6.444275930E0
4.694287208E0,-9.669553681E-1,4.122585828E0,4.717187433E0,6.338972620E0
4.704314208E0,-4.048373844E-1,3.465741781E0,4.964268547E0,6.067884443E0
4.714340208E0,-2.139021121E-1,2.800098844E0,5.104137454E0,5.825678227E0
4.724367208E0,-3.563437937E-1,2.340406537E0,5.133668232E0,5.653232100E0
4.734394208E0,-5.841839869E-1,2.232875072E0,5.151454877E0,5.644863981E0
4.744420208E0,-8.930459044E-1,2.395210735E0,5.259980369E0,5.848244090E0
4.754447208E0,-1.195575214E0,2.579731320E0,5.277265908E0,5.994493243E0
4.764474208E0,-1.224152384E0,3.056379383E0,5.130864492E0,6.096373875E0
4.774500208E0,-1.595514825E0,3.507840564E0,4.651644824E0,6.040563926E0
4.784527208E0,-1.895274382E0,4.034433205E0,4.251618090E0,6.159949078E0
4.794554208E0,-1.922511589E0,4.499292696E0,4.095543040E0,6.380686356E0
4.804580208E0,-1.899306037E0,4.625565657E0,3.982542674E0,6.392485215E0
4.814607208E0,-1.749185645E0,4.592753422E0,3.745908195E0,6.179390150E0
4.824634208E0,-1.555622781E0,4.451540825E0,3.478031459E0,5.859426660E0
4.834660208E0,-1.411129311E0,4.276786845E0,3.430408811E0,5.661262779E0
4.844687208E0,-1.366204568E0,4.137921905E0,3.469329048E0,5.570023039E0
4.854714208E0,-1.356552277E0,3.993540702E0,3.524654233E0,5.496525164E0
4.864740208E0,-1.349670835E0,3.814326466E0,3.573241087E0,5.398032013E0
4.874767208E0,-1.500612760E0,3.651068112E0,3.584021598E0,5.331730285E0
4.884794208E0,-2.127681762E0,3.509263777E0,3.061140186E0,5.119818470E0
4.894820208E0,-2.633927407E0,3.462549201E0,3.414697927E0,5.530549927E0
4.904847208E0,-3.383584600E0,3.536619390E0,3.757798216E0,6.170686258E0
4.914874208E0,-4.169886294E0,3.630771841E0,4.155805029E0,6.916731259E0
4.924901208E0,-4.679866410E0,3.626157219E0,4.725147248E0,7.574772756E0
4.934927208E0,-5.093958621E0,3.266487383E0,4.325096540E0,7.438065228E0
4.944954208E0,-5.940555925E0,7.336998492E-1,-6.090201377E0,8.539266536E0
4.954981208E0,-8.374451839E0,-1.073196090E1,-3.878696007E1,4.110638271E1
4.965007208E0,1.652582655E1,-5.283126806E1,-5.133633149E1,7.549612413E1
4.975034208E0,2.033878185E1,-6.277421036E1,4.962971635E1,8.256740445E1
4.985061208E0,4.918249791E0,-2.014331177E1,3.437429095E1,4.014391695E1
4.995087208E0,-5.389282188E-1,4.436298303E0,-2.263503723E1,2.307197644E1
5.005114208E0,-8.364846618E0,1.351411990E1,-2.942142330E0,1.616348654E1
5.015141208E0,-1.142844146E1,1.853044387E1,8.388269395E0,2.333130274E1
5.025167208E0,-1.128239205E1,1.948778978E1,5.571217718E0,2.319708576E1
5.035194208E0,-8.169802215E0,1.295266791E1,3.925443444E-1,1.531898709E1
5.045221208E0,-1.099812294E0,2.937496718E0,1.947184208E0,3.691883041E0
5.055247208E0,2.632184352E0,-3.788607488E0,5.441578515E0,7.133913225E0
5.065274208E0,4.220166501E0,-8.389535902E0,2.880169738E0,9.822906681E0
5.075301208E0,7.189611821E0,-1.269822048E1,2.018458843E0,1.473124223E1
5.085327208E0,1.034773100E1,-1.478010407E1,5.412729523E-1,1.805048447E1
5.095354208E0,8.914780759E0,-9.219949867E0,-7.144312271E-1,1.284489017E1
5.105381208E0,5.176349983E0,-1.662490295E0,5.680072993E-2,5.437067173E0
5.115407208E0,9.181365260E-1,2.433869017E0,5.488404188E-1,2.658555788E0
5.125433667E0,-2.411529291E0,4.002030859E0,5.234743202E-1,4.701675221E0
5.135460667E0,-4.167503261E0,3.960163041E0,-4.446252018E-2,5.749169649E0
5.145487667E0,-3.798702998E0,2.964677500E0,-1.193486881E-1,4.820134983E0
5.155513667E0,-1.843384143E0,1.223697690E0,1.386214033E-1,2.216916108E0
5.165540667E0,-1.209617887E-1,-4.858387166E-1,-1.244636862E-1,5.159091219E-1
5.175567667E0,1.127017488E0,-1.571756126E0,-3.484928834E-1,1.965205594E0
5.185593667E0,1.602058736E0,-1.801739396E0,-2.622180936E-1,2.425204192E0
5.195620667E0,1.374694433E0,-1.354076566E0,-4.500449860E-1,1.981375437E0
5.205647667E0,6.159028660E-1,-4.699231803E-1,-6.091300361E-1,9.854965939E-1
5.215673667E0,-3.296473074E-1,1.839229989E-1,-1.343870251E0,1.395880464E0
5.225700667E0,-1.198488443E0,6.783582920E-1,-1.725915627E0,2.208014781E0
5.235727667E0,-1.471365280E0,8.125232399E-1,-1.209733955E0,2.070885329E0
5.245753667E0,-1.265766507E0,8.631051636E-1,-7.157915088E-1,1.690997592E0
5.255780667E0,-7.577412611E-1,1.108259035E0,-3.359763336E-1,1.383940029E0
5.265807667E0,2.147642840E-1,1.549638448E0,3.006766927E-1,1.593081759E0
5.275833667E0,9.350691855E-1,1.923685418E0,5.515023637E-1,2.208862790E0
5.285860667E0,1.504572056E0,1.999821428E0,2.227133910E-1,2.512493596E0
5.295887667E0,1.685441055E0,1.999195776E0,-3.834264521E-1,2.642822571E0
5.305914667E0,1.551736867E0,1.823600382E0,-9.306241322E-1,2.568942766E0
5.315940667E0,1.432994535E0,1.379264032E0,-8.799053836E-1,2.174873811E0
5.325967667E0,1.065106438E0,1.019985960E0,-5.404441094E-1,1.570637742E0
5.335994667E0,8.793727022E-1,7.598199463E-1,-3.791053963E-1,1.222433475E0
5.346020667E0,8.488785224E-1,8.413219464E-1,-2.386108375E-1,1.218750383E0
5.356047667E0,7.604102958E-1,1.365515474E0,-2.274946958E-1,1.579433495E0
5.366074667E0,7.769887602E-1,1.904580810E0,-3.844374722E-1,2.092589727E0
5.376100667E0,8.373023511E-1,2.262591791E0,-5.126429379E-1,2.466414325E0
5.386127667E0,8.071453363E-1,2.265304314E0,-7.116412282E-1,2.507891638E0
5.396154667E0,6.755769908E-1,2.117057517E0,-7.481635219E-1,2.344799662E0
5.406180667E0,5.145837750E-1,1.914002429E0,-7.297126329E-1,2.112032738E0
5.416207667E0,5.545703246E-1,1.551978503E0,-8.498004091E-1,1.854277826E0
5.426234667E0,7.184349619E-1,1.098378995E0,-8.751130056E-1,1.577468854E0
5.436260667E0,8.876721670E-1,6.169993651E-1,-8.395362067E-1,1.368748017E0
5.446287667E0,1.221845366E0,3.266880316E-1,-7.877181816E-1,1.490010437E0
5.456314667E0,1.496093594E0,1.164157248E-1,-8.376183931E-1,1.718561385E0
5.466340667E0,1.739069085E0,1.163707012E-1,-9.100156206E-1,1.966222737E0
5.476367667E0,1.845284342E0,2.191963273E-1,-9.556367666E-1,2.089584400E0
5.486394667E0,1.922468174E0,3.738510883E-1,-1.022051781E0,2.209126152E0
5.496420667E0,2.050789268E0,5.016332155E-1,-1.173795213E0,2.415609179E0
5.506447667E0,2.258049966E0,5.016343850E-1,-1.550335436E0,2.784594525E0
5.516474667E0,2.465685179E0,4.903983754E-1,-2.190572221E0,3.334471566E0
5.526501667E0,2.558832786E0,5.426654667E-1,-3.189370794E0,4.124826918E0
5.536527667E0,2.556745038E0,7.371415204E-1,-4.189318346E0,4.962933710E0
5.546554667E0,2.836339594E0,1.406342488E0,-4.302171947E0,5.341470298E0
5.556581667E0,4.067160363E0,2.508065506E0,-1.783494329E0,5.100297837E0
5.566607667E0,6.133906390E0,5.493546814E-1,3.645234929E0,7.156419206E0
5.576634667E0,7.283643234E0,-5.747518287E0,6.110781237E0,1.110977374E1
5.586661667E0,8.444202690E0,-1.274293530E1,3.167646634E0,1.561156445E1
5.596687667E0,8.098971968E0,-1.150632170E1,-2.322212341E0,1.426118705E1
5.606714667E0,1.414714531E0,-6.467277789E0,-4.610039545E0,8.067190578E0
5.616741667E0,-3.822421936E0,-6.350254539E0,-7.180266216E0,1.031953803E1
5.626767667E0,-6.196716011E0,-6.083627937E0,-8.097764518E0,1.187365186E1
5.636794667E0,-6.890072996E0,-4.042623984E0,-5.525003664E0,9.712959387E0
5.646821667E0,-5.044682965E0,-3.092979444E0,-1.954872712E0,6.231923891E0
5.656847667E0,-3.583077273E0,-3.219338944E0,-6.070126131E-2,4.817288721E0
5.666874667E0,-3.159894103E0,-3.643112390E0,-8.567629811E-1,4.898085487E0
5.676901667E0,-2.677748780E0,-4.333556292E0,-1.250466536E0,5.245351773E0
5.686927667E0,-1.223450792E0,-5.420381189E0,-1.351761069E0,5.718795508E0
5.696954667E0,1.196726239E0,-6.437120190E0,-8.136646163E-1,6.597781456E0
5.706981667E0,3.163560015E0,-7.260161986E0,1.402714291E0,8.042740292E0
5.717008667E0,4.717908395E0,-7.701235589E0,3.814215661E0,9.803873231E0
5.727034667E0,2.944249959E0,-6.380867051E0,4.284967099E0,8.230736006E0
5.737061667E0,1.303173776E0,-3.940287185E0,4.986055858E0,6.487285874E0
5.747088667E0,6.719598301E-1,-2.665001850E0,4.436967224E0,5.219237782E0
5.757114667E0,4.105126919E-1,-2.020503615E0,3.027719255E0,3.663064211E0
5.767141667E0,-2.260007322E-2,-1.260350962E0,2.154121848E0,2.495843794E0
5.777168667E0,-4.748494595E-1,-8.215864241E-1,2.194194571E0,2.390601614E0
5.787194667E0,-4.447968176E-1,-4.302673638E-1,2.898995726E0,2.964312810E0
5.797221667E0,-3.945370755E-1,1.539396465E-2,3.562281066E0,3.584095823E0
5.807248667E0,-7.069922532E-1,4.629609007E-1,4.294626700E0,4.376984045E0
5.817274667E0,-6.726575491E-1,8.616474527E-1,4.871715894E0,4.992846910E0
5.827301667E0,-2.518131195E-1,1.158091346E0,4.659241526E0,4.807610322E0
5.837328667E0,7.858643219E-2,1.252726777E0,3.886498064E0,4.084160551E0
5.847354667E0,-2.164415579E-1,1.371216509E0,3.315944887E0,3.594797930E0
5.857381667E0,-1.173009347E0,1.624026725E0,3.395562329E0,3.942493788E0
5.867408667E0,-2.049694669E0,2.324241325E0,4.115269791E0,5.151581449E0
5.877434667E0,-2.786143879E0,3.127172792E0,5.236260554E0,6.705239144E0
5.887461667E0,-2.301031533E0,3.426215188E0,5.134526019E0,6.587644045E0
5.897488667E0,-2.043452913E0,3.190769448E0,5.238509393E0,6.465190650E0
5.907514667E0,-1.730151058E0,2.741830171E0,5.219450979E0,6.144405902E0
5.917541667E0,-1.048555090E0,2.349638121E0,4.931166875E0,5.562074597E0
5.927568667E0,-5.123994014E-1,2.163963296E0,4.639855667E0,5.145245466E0
5.937595667E0,-5.089006468E-1,2.326137577E0,4.361106618E0,4.968817448E0
5.947621667E0,-6.501132437E-1,2.712599355E0,4.377351353E0,5.190572931E0
5.957648667E0,-9.287040527E-1,3.109196697E0,4.581622077E0,5.614343789E0
5.967675667E0,-1.136041277E0,3.430115281E0,4.661653503E0,5.898075449E0
5.977701667E0,-1.346416567E0,3.676082500E0,4.656867557E0,6.083817515E0
5.987728667E0,-1.507040751E0,3.830147862E0,4.574628223E0,6.153732838E0
5.997755667E0,-1.833988983E0,3.951039045E0,4.456408632E0,6.231677384E0
6.007781667E0,-2.069807775E0,4.051855568E0,4.266475865E0,6.237343511E0
6.017808667E0,-2.246715431E0,3.926645046E0,4.046005429E0,6.069302388E0
6.027835667E0,-2.263835055E0,3.750622805E0,3.896637136E0,5.863096584E0
6.037861667E0,-2.313137901E0,3.584888740E0,3.659136685E0,5.620615225E0
6.047888667E0,-2.414290200E0,3.497103322E0,3.265790979E0,5.359470080E0
6.057915667E0,-2.460822342E0,3.497827207E0,2.994878368E0,5.221085923E0
6.067941667E0,-2.755932485E0,3.479523084E0,2.585809500E0,5.136988955E0
6.077968667E0,-2.662457142E0,3.419986149E0,2.415089514E0,4.961616738E0
6.087995667E0,-2.922567607E0,3.324088304E0,2.495126202E0,5.081005730E0
6.098022667E0,-3.326795565E0,3.263388358E0,3.558300866E0,5.863341825E0
6.108048667E0,-3.927535285E0,3.242254767E0,4.601342981E0,6.863680253E0
6.118075667E0,-4.519780463E0,3.198655588E0,5.528212616E0,7.824381620E0
6.128102917E0,-5.314382279E0,3.056617364E0,5.565985630E0,8.280444719E0
6.138128917E0,-6.415720550E0,1.459915262E0,-2.085713225E0,6.902392513E0
6.148155917E0,-8.491706055E0,-5.709031329E0,-2.321109088E1,2.536645128E1
6.158182917E0,8.924217580E0,-3.508797637E1,-6.325688164E1,7.288512070E1
6.168208917E0,2.796467372E1,-6.456220003E1,1.666572587E1,7.230523541E1
6.178235917E0,9.061529499E0,-3.068341149E1,4.826630002E1,5.790698382E1
6.188262917E0,2.869178142E0,2.231739542E0,-8.860692260E-1,3.741385207E0
6.198288917E0,-5.343523632E0,1.248343821E1,-1.737023115E1,2.204800228E1
6.208315917E0,-1.280530872E1,1.681860834E1,7.119701926E0,2.230541803E1
6.218342917E0,-1.572184610E1,1.856472726E1,8.692033417E0,2.583364063E1
6.228368917E0,-1.333160842E1,1.469912715E1,2.408739730E0,1.998995120E1
6.238395917E0,-3.819837466E0,5.125161703E0,1.861791471E-1,6.394771569E0
6.248422917E0,1.894816691E0,-2.511125354E0,2.804606463E0,4.214486712E0
6.258449917E0,4.265454356E0,-8.910015278E0,4.098036293E0,1.069468908E1
6.268475917E0,8.284652056E0,-1.469139128E1,2.517354685E0,1.705313790E1
6.278502917E0,1.353364492E1,-1.570234797E1,1.210801656E0,2.076509854E1
6.288529917E0,1.223133434E1,-8.679746078E0,5.465415859E-1,1.500807248E1
6.298555917E0,5.721795800E0,-9.542872292E-1,9.218312354E-1,5.873617635E0
6.308582917E0,1.587651928E0,2.506127154E0,1.612707831E0,3.376705273E0
6.318609917E0,-1.191502190E0,3.401917668E0,1.687590783E0,3.980035671E0
6.328635917E0,-2.958415424E0,2.831510671E0,1.114292631E0,4.243974855E0
6.338662917E0,-3.604069362E0,1.882469564E0,2.422013202E-1,4.073287260E0
6.348689917E0,-2.763775356E0,5.308470744E-1,-1.640494823E-2,2.814342189E0
6.358715917E0,-1.399728556E0,-9.354422379E-1,-2.915984519E-1,1.708602314E0
6.368742917E0,-4.882378292E-1,-1.805654692E0,-6.084612608E-1,1.966974873E0
6.378769917E0,-3.894644697E-1,-1.904920533E0,-1.252951895E0,2.313070095E0
6.388795917E0,-3.224233648E-1,-1.442462493E0,-1.184776869E0,1.894294354E0
6.398822917E0,-2.910710330E-1,-7.936577833E-1,-8.544186862E-1,1.201934405E0
6.408849917E0,-6.087849042E-1,-3.665742284E-1,-7.287348323E-1,1.017865502E0
6.418875917E0,-7.254389030E-1,2.298645723E-1,-3.112075281E-1,8.221614495E-1
6.428902917E0,-8.497640102E-1,1.098335726E0,1.716134405E-1,1.399246730E0
6.438929917E0,-1.211901371E0,2.056672736E0,2.900873852E-1,2.404736653E0
6.448956917E0,-8.991563179E-1,2.749580655E0,1.279254571E-1,2.895693490E0
6.458982917E0,-8.204476789E-2,3.020517240E0,2.934648100E-1,3.035848701E0
6.469009917E0,8.094053583E-1,3.094923643E0,1.151785270E-1,3.201086610E0
6.479036917E0,1.636178994E0,3.074971774E0,-1.835545512E-1,3.488011666E0
6.489062917E0,2.266405930E0,2.955702024E0,-7.355563402E-1,3.796552834E0
6.499089917E0,2.341811769E0,2.652244980E0,-1.071524561E0,3.696843340E0
6.509116917E0,2.149008896E0,2.251076869E0,-9.948769192E-1,3.267317920E0
6.519142917E0,1.880072206E0,1.732776166E0,-8.113327467E-1,2.682432770E0
6.529169917E0,2.265453272E0,1.329177368E0,-6.418991482E-1,2.703890811E0
6.539196917E0,2.710579727E0,1.255987185E0,-7.191923225E-1,3.072781128E0
6.549222917E0,2.764546311E0,1.212720712E0,-9.698016465E-1,3.170792183E0
6.559249917E0,2.278189677E0,1.315210124E0,-8.282721305E-1,2.757890607E0
6.569276917E0,1.890994951E0,1.329348691E0,-4.529756105E-1,2.355465294E0
6.579302917E0,1.689805562E0,1.199929928E0,1.845240927E-1,2.080702721E0
6.589329917E0,1.434431781E0,9.874350947E-1,5.668863881E-1,1.831388211E0
6.599356917E0,1.130254653E0,7.660945934E-1,2.694233251E-1,1.391749056E0
6.609383917E0,8.640904194E-1,5.335473186E-1,-1.642915571E-1,1.028745211E0
6.619409917E0,8.589454544E-1,4.784156764E-1,-3.386473417E-1,1.039880221E0
6.629436917E0,9.096956317E-1,4.352836901E-1,-2.534037083E-1,1.039822808E0
6.639463917E0,7.308602951E-1,3.513018858E-1,-1.245621021E-1,8.204178833E-1
6.649489917E0,4.588087197E-1,4.216801429E-1,-2.268883395E-1,6.631726041E-1
6.659516917E0,5.146362537E-1,5.467094010E-1,-5.434624056E-1,9.268727146E-1
6.669543917E0,8.535102481E-1,6.836716568E-1,-8.396198219E-1,1.378712488E0
6.679569917E0,1.120535192E0,7.664179444E-1,-8.903221983E-1,1.623474422E0
6.689596917E0,1.309582909E0,8.183377111E-1,-8.757884321E-1,1.775299801E0
6.699623917E0,1.390607923E0,9.525681478E-1,-1.097152249E0,2.011198531E0
6.709649917E0,1.396504109E0,9.938898361E-1,-1.771596415E0,2.465074967E0
6.719676917E0,1.504739725E0,8.988971400E-1,-2.874094774E0,3.366404384E0
6.729703917E0,1.847750552E0,8.543442804E-1,-3.602130425E0,4.137563274E0
6.739729917E0,2.641253676E0,1.307722764E0,-3.150058209E0,4.313841273E0
6.749756917E0,4.783698634E0,2.099086685E0,3.811875898E-1,5.237866122E0
6.759783917E0,7.329298879E0,-5.054648960E-1,6.723042018E0,9.958584779E0
6.769810917E0,8.398613119E0,-6.545442783E0,8.141150858E0,1.340365103E1
6.779836917E0,9.805078983E0,-1.181660186E1,2.314070093E0,1.552825083E1
6.789863917E0,7.457907218E0,-8.696250429E0,-2.123651422E0,1.165139678E1
6.799890917E0,1.896422629E0,-6.427745349E0,-4.768517216E0,8.225027993E0
6.809916917E0,-3.601624933E0,-7.312592214E0,-9.889612180E0,1.281601093E1
6.819943917E0,-7.696054956E0,-5.344972572E0,-1.051527829E1,1.408435555E1
6.829970917E0,-5.716915714E0,-2.624473044E0,-4.908493127E0,7.978990464E0
6.839996917E0,-1.805767251E0,-1.164311029E0,-1.905453215E0,2.871788204E0
6.850023917E0,1.005240086E0,-1.506438634E0,-1.752111154E0,2.519872711E0
6.860050917E0,2.278531740E0,-2.107320734E0,-1.478008887E0,3.437588956E0
6.870076917E0,2.072308337E0,-2.166137291E0,-1.049005764E0,3.176007825E0
6.880103917E0,1.060924144E0,-1.672728769E0,-8.248876890E-1,2.145698318E0
6.890130917E0,9.787641855E-1,-1.502335643E0,-4.294532852E-1,1.843752109E0
6.900156917E0,1.101361075E0,-2.729411854E0,1.510534608E0,3.308232170E0
6.910183917E0,-3.134163138E-1,-4.329878393E0,2.613941624E0,5.067422175E0
6.920210917E0,-2.593424329E0,-4.709156283E0,2.295092224E0,5.845464136E0
6.930236917E0,-4.069910016E0,-4.049624856E0,1.861456133E0,6.035614960E0
6.940263917E0,-4.051274063E0,-4.036363955E0,1.243592842E0,5.852484828E0
6.950290917E0,-3.334526753E0,-4.442188203E0,4.532361040E-1,5.572928106E0
6.960317917E0,-2.378164932E0,-4.482397751E0,4.716329062E-1,5.096076495E0
6.970343917E0,-1.471581773E0,-4.410160664E0,8.333261713E-1,4.723293608E0
6.980370917E0,-8.137950093E-1,-4.119637662E0,1.208884647E0,4.369791628E0
6.990397917E0,-2.483900133E-1,-3.464214488E0,1.276974011E0,3.700424603E0
7.000423917E0,2.940193453E-1,-2.209492056E0,6.859734133E-1,2.332136798E0
7.010450917E0,8.538794267E-1,-6.231851345E-1,6.652780706E-1,1.249025500E0
7.020477917E0,1.793915237E0,7.604303956E-1,1.067680528E0,2.221784862E0
7.030503917E0,1.568394561E0,1.391443198E0,1.824955181E0,2.779646936E0
7.040530917E0,1.794981477E0,1.648417801E0,3.567811947E0,4.320708488E0
7.050557917E0,1.328856648E0,1.681022460E0,4.669930236E0,5.138087671E0
7.060583917E0,5.131228481E-1,1.547122976E0,4.764222436E0,5.035345070E0
7.070610917E0,-3.723504004E-1,1.173479463E0,4.411357589E0,4.579931730E0
7.080637917E0,-1.006527277E0,9.012459666E-1,4.286555788E0,4.494430106E0
7.090663917E0,-1.244010479E0,1.017561119E0,4.357877786E0,4.644791868E0
7.100690917E0,-1.179533524E0,1.247809269E0,4.045758677E0,4.395052966E0
7.110717917E0,-1.525571308E0,1.571036918E0,3.576980966E0,4.194081263E0
7.120744917E0,-2.049742616E0,1.944766969E0,3.752841824E0,4.697593545E0
7.130770667E0,-2.423131628E0,2.109991742E0,4.236352764E0,5.316983805E0
7.140797667E0,-2.539890731E0,2.063689980E0,4.533780743E0,5.591514025E0
7.150824667E0,-2.664138801E0,1.836354328E0,4.815186768E0,5.801366768E0
7.160850667E0,-2.581391929E0,1.618209915E0,4.906024432E0,5.775055268E0
7.170877667E0,-2.219201358E0,1.656538414E0,4.717614280E0,5.470361842E0
7.180904667E0,-1.646792129E0,1.913962668E0,4.757821489E0,5.386282830E0
7.190930667E0,-1.372010854E0,2.320778604E0,4.980995677E0,5.663810117E0
7.200957667E0,-1.341525956E0,2.709147744E0,4.928380092E0,5.781704223E0
7.210984667E0,-1.507946046E0,2.931279958E0,4.744386342E0,5.777153731E0
7.221010667E0,-1.951224342E0,3.043298576E0,4.414931408E0,5.706186291E0
7.231037667E0,-2.401741344E0,3.182933595E0,4.092662702E0,5.713957975E0
7.241064667E0,-2.922939489E0,3.344820192E0,3.829674237E0,5.864963950E0
7.251091667E0,-3.047387534E0,3.381926038E0,3.694995904E0,5.863189340E0
7.261117667E0,-2.725338099E0,3.335058850E0,3.314022907E0,5.434411938E0
7.271144667E0,-2.822543381E0,3.527490717E0,3.155368066E0,5.510561635E0
7.281171667E0,-3.113178358E0,3.975156471E0,2.970386136E0,5.858066427E0
7.291197667E0,-2.847963274E0,4.233261926E0,3.093237891E0,5.966533499E0
7.301224667E0,-2.421613107E0,4.217148169E0,3.336597837E0,5.897578642E0
7.311251667E0,-2.209141808E0,4.154412223E0,3.236947249E0,5.711153643E0
7.321277667E0,-2.125402225E0,4.283698254E0,3.404636623E0,5.870175115E0
7.331304667E0,-2.525306313E0,4.512334326E0,3.169504879E0,6.064989219E0
7.341331667E0,-3.491435616E0,4.676001400E0,3.420111572E0,6.764042794E0
7.351357667E0,-4.606322470E0,4.678775904E0,3.133495094E0,7.275159254E0
7.361384667E0,-5.805522666E0,3.326184531E0,-5.728590265E0,8.808197510E0
7.371411667E0,-8.704718367E0,-4.308025010E0,-3.503721786E1,3.635846306E1
7.381437667E0,1.475692688E1,-3.381297228E1,-5.911465794E1,6.968232752E1
7.391464667E0,3.192270545E1,-5.646627621E1,4.350121688E1,7.810157068E1
7.401491667E0,4.044988891E0,-2.394271322E1,3.323039547E1,4.115670826E1
7.411518667E0,-2.576471497E0,3.765010464E-1,-2.088431537E1,2.104601119E1
7.421544667E0,-5.311152277E0,8.847743601E0,-1.904044913E0,1.049363104E1
7.431571667E0,-8.003077047E0,1.476521589E1,1.393917389E1,2.182570528E1
7.441598667E0,-8.379129612E0,1.570933890E1,1.733521101E0,1.788849455E1
7.451624667E0,-6.854231318E0,1.023586207E1,4.706859496E-1,1.232781021E1
7.461651667E0,-3.483376106E0,1.704626500E0,5.691159314E0,6.886868297E0
7.471678667E0,-5.603328288E-1,-4.732434048E0,2.735099148E0,5.494603921E0
7.481704667E0,1.363963769E0,-9.462713982E0,1.906012208E0,9.748653015E0
7.491731667E0,5.548111861E0,-1.266567955E1,3.485996244E0,1.426019472E1
7.501758667E0,8.391062610E0,-1.104936647E1,1.290327882E0,1.393425194E1
7.511784667E0,5.793140602E0,-4.856743514E0,3.774845481E-1,7.569077234E0
7.521811667E0,1.957138800E0,-1.913325906E-2,4.278993876E-1,2.003461068E0
7.531838667E0,-5.386374660E-1,2.003572417E0,1.169492247E0,2.381626517E0
7.541864667E0,-2.220017922E0,2.537156573E0,1.598251175E0,3.730958304E0
7.551891667E0,-2.889768820E0,2.408464619E0,1.385405509E0,4.008841987E0
7.561918667E0,-2.489816053E0,1.530913909E0,1.170397542E0,3.148445931E0
7.571945667E0,-1.322132496E0,3.976925254E-1,1.053302225E0,1.736559604E0
7.581971667E0,1.869578500E-1,-4.354585218E-1,8.886329377E-1,1.007097741E0
7.591998667E0,1.098049066E0,-8.157193279E-1,5.995936659E-1,1.493526812E0
7.602025667E0,1.260237380E0,-6.505641371E-1,6.211824632E-1,1.548321543E0
7.612051667E0,9.674437568E-1,-2.661009371E-2,-5.014383571E-1,1.089998140E0
7.622078667E0,6.061222284E-1,7.291670877E-1,-6.137973567E-1,1.129520249E0
7.632105667E0,2.405399801E-1,1.094571288E0,-5.362376225E-1,1.242375376E0
7.642131667E0,3.672826186E-1,1.109723178E0,-2.674446273E-1,1.199128301E0
7.652158667E0,6.034260772E-1,1.074201343E0,-1.768782735E-1,1.244715823E0
7.662185667E0,6.731061767E-1,1.283155687E0,-1.305788505E-1,1.454857821E0
7.672211667E0,5.623372543E-1,1.602952775E0,-1.410968951E-1,1.704578869E0
7.682238667E0,5.915898509E-1,1.698292796E0,-3.054280671E-1,1.824133569E0
7.692265667E0,8.940040438E-1,1.550747665E0,-3.598645484E-1,1.825805040E0
7.702291667E0,1.026269670E0,1.461023895E0,-3.959570352E-1,1.828825369E0
7.712318667E0,1.254598909E0,1.417039969E0,-6.940364313E-1,2.015863900E0
7.722345667E0,1.414737774E0,1.302448575E0,-8.499407423E-1,2.102440136E0
7.732372667E0,1.464463373E0,1.241643965E0,-7.916732383E-1,2.076795421E0
7.742398667E0,1.577800246E0,1.147381586E0,-9.090408897E-1,2.152276344E0
7.752425667E0,1.585790905E0,1.036407865E0,-1.073095050E0,2.177247584E0
7.762452667E0,1.482478206E0,8.943573618E-1,-1.271204563E0,2.147924059E0
7.772478667E0,1.472234030E0,9.138455468E-1,-1.220537270E0,2.119504176E0
7.782505667E0,1.630013689E0,1.081776411E0,-1.061188949E0,2.225602574E0
7.792532667E0,1.620309943E0,1.227355124E0,-1.137503300E0,2.329317210E0
7.802558667E0,1.145654465E0,1.452664715E0,-9.644339025E-1,2.086358473E0
7.812585667E0,7.454162076E-1,1.697029213E0,-7.553316236E-1,2.001519256E0
7.822612667E0,6.426032992E-1,1.870038384E0,-4.937751424E-1,2.038086467E0
7.832638667E0,8.147538064E-1,1.947838511E0,-2.452743061E-1,2.125572421E0
7.842665667E0,1.112924236E0,2.010238243E0,3.674834704E-1,2.326951278E0
7.852692667E0,1.283370134E0,1.807797112E0,8.317746127E-1,2.367914337E0
7.862718667E0,1.130573911E0,1.332294518E0,5.308991146E-1,1.826214643E0
7.872745667E0,9.654504409E-1,8.245977402E-1,-1.158415099E-1,1.274941270E0
7.882772667E0,9.289306323E-1,4.468424660E-1,-5.475835598E-1,1.167230939E0
7.892799667E0,9.273390202E-1,2.131029439E-1,-4.918619335E-1,1.071120294E0
7.902825667E0,1.053786521E0,7.024961829E-2,-4.252481139E-1,1.138524044E0
7.912852667E0,1.414261518E0,1.509283304E-2,-6.363852239E-1,1.550918950E0
7.922879667E0,1.920668108E0,-6.723713279E-2,-7.096613610E-1,2.048683983E0
7.932905667E0,2.311226300E0,-2.959158897E-1,-6.053832865E-1,2.407451380E0
7.942932667E0,2.549283698E0,-5.651760775E-1,-1.068813719E0,2.821459576E0
7.952959667E0,2.512058277E0,-7.081761682E-1,-1.744575262E0,3.139345970E0
7.962985667E0,2.343802308E0,-5.003333795E-1,-2.632414148E0,3.559964465E0
7.973012667E0,2.411049965E0,3.324317515E-1,-3.374070888E0,4.160291716E0
7.983039667E0,2.729335256E0,1.671588562E0,-3.500441498E0,4.743054916E0
7.993065667E0,3.850623057E0,3.192562205E0,-1.361590823E0,5.183983114E0
8.003092667E0,5.297619481E0,1.383036071E0,4.730127321E0,7.235445074E0
8.013119667E0,6.339826030E0,-4.677246857E0,8.703871690E0,1.173999211E1
8.023146667E0,8.896390096E0,-8.698394018E0,2.814716299E0,1.275658430E1
8.033172667E0,6.698019444E0,-7.151554633E0,-3.735718253E0,1.048636205E1
8.043199667E0,8.038550350E-1,-5.028370988E0,-4.846579299E0,7.029938023E0
8.053226667E0,-1.957670312E0,-5.753989400E0,-7.505762000E0,9.658018962E0
8.063252667E0,-4.021853212E0,-5.863279123E0,-7.833158129E0,1.057883319E1
8.073279667E0,-4.676394333E0,-4.377395207E0,-5.144496106E0,8.215600583E0
8.083306667E0,-4.346513722E0,-3.124079030E0,-3.059022324E0,6.165198205E0
8.093332667E0,-4.207614284E0,-2.373738590E0,-2.031804236E0,5.240885546E0
8.103359667E0,-3.774845773E0,-1.909639821E0,-1.446906377E0,4.470986795E0
8.113386667E0,-2.984843962E0,-2.132911658E0,-1.000099579E0,3.802473508E0
8.123412208E0,-1.168572480E0,-2.854707745E0,-5.032394457E-1,3.125406836E0
8.133439208E0,1.718931275E0,-4.158376635E0,-8.605785817E-3,4.499654989E0
8.143466208E0,4.351669212E0,-5.530199500E0,9.715499640E-1,7.103804669E0
8.153493208E0,4.855519107E0,-6.716532313E0,2.817236156E0,8.753553088E0
8.163519208E0,4.187194637E0,-6.462633346E0,3.599810250E0,8.500403668E0
8.173546208E0,2.610763662E0,-4.981649396E0,2.634843374E0,6.210903091E0
8.183573208E0,1.720786158E0,-3.434360944E0,1.933093295E0,4.300324381E0
8.193599208E0,8.357890186E-1,-2.147453098E0,1.384992549E0,2.688550252E0
8.203626208E0,1.259855703E-1,-1.507209297E0,1.011547258E0,1.819554914E0
8.213653208E0,-3.051729092E-1,-1.316012362E0,1.276184637E0,1.858404226E0
8.223679208E0,-1.597529190E0,-1.342713087E0,1.472295572E0,2.553944440E0
8.233706208E0,-7.241352662E-1,-1.061204152E0,2.842907479E0,3.119719390E0
8.243733208E0,-1.841054613E0,-5.917154199E-1,2.657224176E0,3.286403741E0
8.253759208E0,-2.925742645E0,1.662550521E-1,2.436790286E0,3.811240961E0
8.263786208E0,-3.065124771E0,8.982422519E-1,2.042484468E0,3.791249372E0
8.273813208E0,-2.715297845E0,1.102672021E0,1.915722095E0,3.501245367E0
8.283839208E0,-2.254415630E0,7.330250806E-1,1.857152290E0,3.011433251E0
8.293866208E0,-2.090488646E0,8.981089354E-2,2.124749529E0,2.982074670E0
8.303893208E0,-1.996884664E0,-2.342382896E-1,3.009626800E0,3.619429432E0
8.313920208E0,-1.598493104E0,1.582899749E-2,3.922531530E0,4.235762548E0
8.323946208E0,-7.805553424E-1,4.313602084E-1,4.350898549E0,4.441357501E0
8.333973208E0,-6.592639169E-1,6.610078490E-1,4.705242156E0,4.796964044E0
8.344000208E0,-7.885891244E-1,1.153852699E0,4.854023974E0,5.051217437E0
8.354026208E0,-7.104258844E-1,1.960978959E0,4.457550008E0,4.921371302E0
8.364053208E0,-8.549195002E-1,2.787758296E0,3.815491231E0,4.802130465E0
8.374080208E0,-1.406941681E0,3.429515356E0,3.403050858E0,5.032078658E0
8.384106208E0,-2.161164527E0,3.623412536E0,3.387428852E0,5.410584510E0
8.394133208E0,-2.675969473E0,3.451586257E0,3.855182131E0,5.825520540E0
8.404160208E0,-2.812579726E0,3.214172344E0,4.270548450E0,6.039792434E0
8.414186208E0,-2.626931798E0,3.096413514E0,4.396333753E0,5.984671904E0
8.424213208E0,-2.418716981E0,3.065701599E0,4.346816608E0,5.843246764E0
8.434240208E0,-2.202524953E0,3.205562319E0,4.084778901E0,5.640227355E0
8.444266208E0,-2.011208881E0,3.468585282E0,3.826357112E0,5.542296795E0
8.454293208E0,-1.847499414E0,3.667404647E0,3.656542860E0,5.498492213E0
8.464320208E0,-1.803762241E0,3.743740633E0,3.505001156E0,5.436376114E0
8.474347208E0,-1.947577287E0,3.612472395E0,3.201693217E0,5.205175650E0
8.484373208E0,-2.063733249E0,3.464683435E0,2.858093868E0,4.942846021E0
8.494400208E0,-2.131806242E0,3.435397071E0,2.650575600E0,4.834470177E0
8.504427208E0,-2.195266658E0,3.382333589E0,2.675997539E0,4.839456481E0
8.514453208E0,-2.348086562E0,3.264164869E0,2.917933688E0,4.968160606E0
8.524480208E0,-2.613478817E0,3.181265969E0,3.144528497E0,5.180616195E0
8.534507208E0,-3.001709963E0,3.194469566E0,3.087815183E0,5.361856126E0
8.544533208E0,-3.414027836E0,3.207856767E0,2.890157660E0,5.504447511E0
8.554560208E0,-3.752448014E0,3.093856527E0,2.497438191E0,5.467175854E0
8.564587208E0,-3.782283724E0,2.865130407E0,2.727251893E0,5.472891859E0
8.574614208E0,-3.817510567E0,2.545123989E0,3.008435138E0,5.486503898E0
8.584640208E0,-4.046161257E0,2.124563588E0,3.482506041E0,5.745697493E0
8.594667208E0,-4.369681852E0,1.349135084E0,-1.090317146E0,4.701390905E0
8.604694208E0,-4.563656507E0,-3.234390262E0,-1.706731615E1,1.796055460E1
8.614720208E0,2.494867755E0,-1.795862711E1,-6.082507610E1,6.346988684E1
8.624747208E0,2.584031011E1,-4.613731945E1,-7.826294668E0,5.345675599E1
8.634774208E0,9.380855302E0,-3.454996002E1,4.483774069E1,5.737702653E1
8.644800208E0,3.538375601E0,-5.514377519E0,2.732521111E0,7.098952947E0
8.654827208E0,-1.208554571E0,5.672968041E0,-7.221020139E0,9.262089527E0
8.664854208E0,-6.691406828E0,1.217426785E1,6.401632268E0,1.529603278E1
8.674880208E0,-8.595212882E0,1.468764673E1,1.090002274E0,1.705264659E1
8.684907208E0,-7.787546924E0,1.167662770E1,4.126036562E0,1.462920706E1
8.694934208E0,-5.652491677E0,6.290075580E0,3.741562837E0,9.247432369E0
8.704960208E0,-9.749970438E-1,3.455113882E-1,4.058661143E0,4.188403947E0
8.714987208E0,1.824160545E0,-4.303492833E0,3.707642554E0,5.966089638E0
8.725014208E0,3.015084007E0,-8.771164956E0,2.221155059E0,9.537169184E0
8.735041208E0,5.831159783E0,-1.136539679E1,2.417843553E0,1.300079367E1
8.745067208E0,8.135794224E0,-9.167632490E0,1.987509677E0,1.241719887E1
8.755094208E0,7.693519603E0,-3.698689005E0,1.254976786E0,8.628181209E0
8.765121208E0,5.075532875E0,-3.387701333E-1,9.266499259E-1,5.170539552E0
8.775147208E0,1.726264414E0,7.272626495E-1,2.350981227E-1,1.887901193E0
8.785174208E0,-1.440870004E0,1.602597849E0,4.209467559E-1,2.195819302E0
8.795201208E0,-3.458400017E0,1.906773516E0,7.285186315E-1,4.015850510E0
8.805227208E0,-3.704883546E0,1.158886567E0,2.720545721E-1,3.891425684E0
8.815254208E0,-2.619081327E0,-1.538051605E-2,3.945033078E-1,2.648670689E0
8.825281208E0,-1.140842937E0,-9.588392866E-1,9.701173961E-1,1.778207847E0
8.835307208E0,2.151965395E-1,-1.329220637E0,1.463637600E0,1.988811725E0
8.845334208E0,1.049932474E0,-1.332829539E0,2.237961857E-1,1.711396363E0
8.855361208E0,1.389872636E0,-7.838455707E-1,-6.261666298E-2,1.596897200E0
8.865388208E0,1.526023883E0,2.316959202E-2,4.874005079E-2,1.526977836E0
8.875414208E0,1.179810536E0,5.700514859E-1,-2.113451978E-1,1.327244661E0
8.885441208E0,6.088778749E-1,9.835244769E-1,-4.240611291E-1,1.232022932E0
8.895468208E0,2.502959132E-2,1.270914541E0,-3.389805599E-1,1.315582788E0
8.905494208E0,-5.022208607E-1,1.369916089E0,-4.467179203E-1,1.525926860E0
8.915521208E0,-5.217317037E-1,1.335741452E0,-7.765032220E-1,1.630756405E0
8.925548208E0,-1.114391595E-2,1.142160022E0,-1.047092482E0,1.549534243E0
8.935574208E0,7.433973102E-1,9.686479908E-1,-1.009367416E0,1.584216232E0
8.945601208E0,1.420434570E0,8.423709369E-1,-8.161075830E-1,1.842078921E0
8.955628208E0,1.751498658E0,9.428617698E-1,-7.036632872E-1,2.109947366E0
8.965654208E0,1.897065530E0,1.266532053E0,-6.494607675E-1,2.371657723E0
8.975681208E0,1.994790776E0,1.602390273E0,-6.624719918E-1,2.643050126E0
8.985708208E0,1.967844614E0,1.926085700E0,-8.608224106E-1,2.885001520E0
8.995735208E0,1.745356889E0,2.176158834E0,-8.010942721E-1,2.902359380E0
9.005761208E0,1.593078582E0,2.299975964E0,-6.735360932E-1,2.877749064E0
9.015788208E0,1.375919133E0,2.404870920E0,-7.644953799E-1,2.874197416E0
9.025815208E0,1.185280826E0,2.474069794E0,-6.965717840E-1,2.830392946E0
9.035841208E0,1.096226196E0,2.499383560E0,-6.629134566E-1,2.808573357E0
9.045868208E0,9.068850213E-1,2.454428412E0,-6.576825374E-1,2.698000295E0
9.055895208E0,7.032802945E-1,2.247273256E0,-5.069699693E-1,2.408704799E0
9.065921208E0,7.918112326E-1,1.834203138E0,-7.140035033E-1,2.121571866E0
9.075948208E0,1.086031795E0,1.212787955E0,-1.012354174E0,1.917076070E0
9.085975208E0,1.184221383E0,8.245585638E-1,-8.877962011E-1,1.694242959E0
9.096001208E0,1.231330938E0,7.414310378E-1,-9.174842691E-1,1.705190091E0
9.106028208E0,1.501475517E0,8.625034851E-1,-6.077695352E-1,1.835136180E0
9.116055208E0,1.714763818E0,8.854795343E-1,-4.783560348E-1,1.988294106E0
9.126082833E0,1.816939964E0,7.290378642E-1,-7.011606789E-1,2.079517574E0
9.136108833E0,1.977790874E0,5.196490717E-1,-1.115381529E0,2.329327768E0
9.146135833E0,2.184418026E0,3.047820228E-1,-1.727452276E0,2.801546994E0
9.156162833E0,2.424902165E0,1.892363638E-1,-2.431945868E0,3.439523458E0
9.166188833E0,2.717349925E0,1.878517431E-1,-3.234242327E0,4.228427879E0
9.176215833E0,3.060625923E0,5.493593591E-1,-3.811785266E0,4.919241167E0
9.186242833E0,4.046470283E0,1.645201832E0,-2.167664584E0,4.876410623E0
9.196268833E0,5.504320893E0,9.055348992E-1,3.303397347E0,6.483052983E0
9.206295833E0,7.846266418E0,-4.933649018E0,6.960061244E0,1.159082576E1
9.216322833E0,9.228496158E0,-9.154869187E0,2.975349253E0,1.333527181E1
9.226348833E0,6.301905667E0,-6.553968024E0,-2.863934652E0,9.532608959E0
9.236375833E0,1.098288582E0,-3.300466722E0,-5.318581749E0,6.355047617E0
9.246402833E0,-1.516001755E0,-4.134382001E0,-8.448989806E0,9.527686213E0
9.256429833E0,-3.836809595E0,-6.341040496E0,-8.053978229E0,1.094515727E1
9.266455833E0,-5.196388975E0,-6.574918597E0,-4.154853687E0,9.353866693E0
9.276482833E0,-4.407791373E0,-4.241757930E0,-5.164423855E-1,6.139042911E0
9.286509833E0,-4.345066244E0,-2.491906140E0,-9.274488017E-2,5.009770303E0
9.296535833E0,-4.319909475E0,-2.171727814E0,-4.384135585E-1,4.854917715E0
9.306562833E0,-3.894338595E0,-2.870021018E0,-5.079008460E-1,4.864242696E0
9.316589833E0,-2.672296836E0,-4.217871469E0,-6.760689609E-1,5.038718027E0
9.326615833E0,-7.045232664E-1,-5.776449140E0,-4.926656333E-1,5.840071672E0
9.336642833E0,1.915354159E0,-7.011210347E0,1.635670871E-1,7.269966044E0
9.346669833E0,3.850186855E0,-6.981447435E0,7.471937612E-1,8.007674170E0
9.356695833E0,3.904390544E0,-6.128103613E0,1.344130452E0,7.389492952E0
9.366722833E0,3.862764800E0,-4.762342556E0,2.292058542E0,6.546326518E0
9.376749833E0,3.222056145E0,-3.683686219E0,2.550546989E0,5.518738978E0
9.386776833E0,1.618566011E0,-2.904027840E0,1.883825533E0,3.821247475E0
9.396802833E0,1.220992184E-1,-2.356052517E0,1.502425690E0,2.796993857E0
9.406829833E0,-1.126554096E0,-1.945390867E0,1.893024958E0,2.938913617E0
9.416856833E0,-2.079163467E0,-1.786926645E0,2.196523224E0,3.512939201E0
9.426882833E0,-2.946684448E0,-1.738291259E0,2.280985377E0,4.111873056E0
9.436909833E0,-3.810030809E0,-1.461434954E0,2.269350588E0,4.669269641E0
9.446936833E0,-4.148545711E0,-8.294544375E-1,2.603261100E0,4.967433395E0
9.456962833E0,-3.728193471E0,-1.903601986E-1,2.727254816E0,4.623157189E0
9.466989833E0,-2.812633520E0,-6.839254260E-2,2.172239445E0,3.554463260E0
9.477016833E0,-1.381444459E0,-2.625715578E-1,1.842913150E0,2.318115937E0
9.487042833E0,-5.472125539E-1,-6.303263390E-1,1.924409888E0,2.097643032E0
9.497069833E0,-4.553826168E-1,-8.889890331E-1,2.696087403E0,2.875162971E0
9.507096833E0,-8.116882575E-1,-9.279583865E-1,3.692726600E0,3.893093158E0
9.517123833E0,-1.026199796E0,-6.167917889E-1,4.504658686E0,4.661058679E0
9.527149833E0,-1.179515837E0,3.006287456E-2,4.968006672E0,5.106197380E0
9.537176833E0,-1.483660805E0,8.446624607E-1,5.023134221E0,5.305335189E0
9.547203833E0,-1.676062559E0,1.715423384E0,4.806839867E0,5.371924478E0
9.557229833E0,-1.865286936E0,2.478185649E0,4.493536697E0,5.460088966E0
9.567256833E0,-2.137699943E0,3.054822269E0,4.339566060E0,5.721322726E0
9.577283833E0,-2.354254206E0,3.515254834E0,4.244000922E0,5.992584854E0
9.587309833E0,-2.583079143E0,3.900924314E0,4.247405756E0,6.319016064E0
9.597336833E0,-2.524843214E0,4.059775037E0,4.249770954E0,6.396652231E0
9.607363833E0,-2.459401469E0,4.161652830E0,4.200262579E0,6.403921892E0
9.617390833E0,-2.321555406E0,4.307471278E0,4.155435485E0,6.419624007E0
9.627416833E0,-2.142913905E0,4.446122795E0,4.158583041E0,6.453983330E0
9.637443833E0,-1.969543815E0,4.574466839E0,4.110041796E0,6.457344134E0
9.647470833E0,-1.777266460E0,4.715007591E0,3.980595551E0,6.421457280E0
9.657496833E0,-1.725862418E0,4.772959930E0,3.880730955E0,6.389039077E0
9.667523833E0,-1.819338346E0,4.742733918E0,3.737679994E0,6.306644811E0
9.677550833E0,-2.007117291E0,4.646810346E0,3.592770787E0,6.207202924E0
9.687576833E0,-2.175825543E0,4.570511783E0,3.440682369E0,6.120628229E0
9.697603833E0,-2.392457574E0,4.508379269E0,3.246075922E0,6.048664792E0
9.707630833E0,-2.524701127E0,4.456639012E0,2.965676204E0,5.918697695E0
9.717656833E0,-2.587140619E0,4.380159770E0,2.653752392E0,5.737725852E0
9.727683833E0,-2.656649103E0,4.290647085E0,2.632151608E0,5.691718453E0
9.737710833E0,-3.027609620E0,4.147123083E0,2.745071867E0,5.822410964E0
9.747737833E0,-3.431720049E0,4.001805741E0,3.704764847E0,6.443324783E0
9.757763833E0,-3.810619331E0,3.804635875E0,4.287527595E0,6.883238098E0
9.767790833E0,-4.385995291E0,3.289648204E0,4.416020159E0,7.039884519E0
9.777817833E0,-5.043533403E0,1.507113987E0,-1.967402126E0,5.619545611E0
9.787843833E0,-6.260509719E0,-5.877601293E0,-2.066709599E1,2.238010356E1
9.797870833E0,3.065828775E0,-2.876778412E1,-6.319695002E1,6.950423872E1
9.807897833E0,3.544420979E1,-5.723813207E1,1.729536223E0,6.734602487E1
9.817923833E0,1.535501284E1,-3.395499647E1,4.407741554E1,5.771946609E1
9.827950833E0,2.641717360E0,-7.198033565E-1,8.876684979E0,9.289366163E0
9.837977833E0,-5.353439341E0,9.712814598E0,-1.448260358E1,1.824126878E1
9.848003833E0,-1.038840657E1,1.482776355E1,2.765527182E0,1.831474007E1
9.858030833E0,-1.284261513E1,1.551180008E1,7.438547087E0,2.146813191E1
9.868057833E0,-1.084849240E1,1.269788485E1,2.858146785E0,1.694388001E1
9.878084833E0,-6.093910850E0,5.053916888E0,-1.147935610E0,7.999723841E0
9.888110833E0,-4.387682798E0,-1.604754303E0,3.122636230E0,5.619417561E0
9.898137833E0,-2.992157951E0,-6.141284407E0,5.839990833E0,8.987428792E0
9.908164833E0,1.553214897E-1,-9.925100101E0,2.887531675E0,1.033777423E1
9.918190833E0,4.909260866E0,-1.134817323E1,1.626913057E0,1.247111559E1
9.928217833E0,7.562541972E0,-7.882053131E0,1.368497846E0,1.100870515E1
9.938244833E0,5.688502339E0,-1.681165132E0,3.187176919E-1,5.940282487E0
9.948270833E0,2.146015853E0,1.913285560E0,5.198898308E-1,2.921700038E0
9.958297833E0,-5.274635831E-1,2.594276268E0,1.299989090E0,2.949314975E0
9.968324833E0,-2.278929496E0,2.627441091E0,8.040773754E-1,3.569804863E0
9.978351833E0,-2.805687028E0,2.409634062E0,7.222071469E-1,3.768262090E0
9.988377833E0,-2.281521713E0,1.362190163E0,3.301221013E-1,2.677663901E0
9.998404833E0,-4.087544341E-1,5.238871336E-2,5.533908682E-1,6.899755196E-1
1.000843183E1,1.074372374E0,-6.079946530E-1,7.042618959E-1,1.421238303E0
1.001845783E1,2.098524621E0,-6.133121109E-1,1.046734486E0,2.423965844E0
1.002848483E1,2.519704388E0,-2.911363757E-1,8.557283163E-2,2.537911209E0
1.003851183E1,2.511875551E0,4.638841760E-1,1.220657431E-2,2.554379830E0
1.004853783E1,2.088565351E0,1.261135658E0,-1.933756077E-1,2.447439989E0
1.005856483E1,1.632513228E0,1.503124432E0,-3.827400986E-1,2.251881986E0
1.006859183E1,1.391197761E0,1.303825595E0,-5.445372335E-1,1.982905240E0
1.007861783E1,1.337816190E0,1.003979207E0,-5.431116823E-1,1.758606467E0
1.008864483E1,1.236842085E0,7.726446444E-1,-6.902334023E-1,1.613437399E0
1.009867183E1,9.924327099E-1,5.879644310E-1,-1.124345895E0,1.610831632E0
1.010869883E1,7.525774388E-1,5.062747353E-1,-1.324091460E0,1.604962648E0
1.011872483E1,6.107285187E-1,4.566950244E-1,-1.247968898E0,1.462527278E0
1.012875233E1,6.367419040E-1,4.873946607E-1,-1.006064909E0,1.286530376E0
1.013877933E1,8.075396580E-1,5.101900309E-1,-9.000057721E-1,1.312411733E0
1.014880533E1,1.109552732E0,5.163892490E-1,-7.827784538E-1,1.452758490E0
1.015883233E1,1.394025328E0,5.132738525E-1,-5.326661432E-1,1.578128602E0
1.016885933E1,1.458168407E0,7.357089525E-1,-3.698931080E-1,1.674617472E0
1.017888533E1,1.154254257E0,1.075531585E0,-4.395854867E-1,1.637774856E0
1.018891233E1,8.186954145E-1,1.327004542E0,-4.629877979E-1,1.626518041E0
1.019893933E1,6.879845631E-1,1.437223973E0,-4.519921088E-1,1.656270622E0
1.020896533E1,6.927166416E-1,1.431497210E0,-4.838068823E-1,1.662260421E0
1.021899233E1,7.588089627E-1,1.360269352E0,-6.572013116E-1,1.690573073E0
1.022901933E1,7.748654169E-1,1.162901850E0,-9.933554006E-1,1.714500534E0
1.023904633E1,6.055902779E-1,1.059108510E0,-1.046199027E0,1.607166085E0
1.024907233E1,4.563721850E-1,1.172159162E0,-1.056086084E0,1.642422141E0
1.025909933E1,6.577770431E-1,1.224940808E0,-1.071163130E0,1.755147023E0
1.026912633E1,1.040077212E0,1.229561278E0,-9.218041921E-1,1.855614322E0
1.027915233E1,1.369669044E0,1.122052032E0,-7.367994583E-1,1.917776706E0
1.028917933E1,1.516855156E0,9.991102302E-1,-6.615504706E-1,1.933059710E0
1.029920633E1,1.654232126E0,8.361237717E-1,-6.552623749E-1,1.965949050E0
1.030923233E1,1.846582863E0,6.203960127E-1,-7.176352821E-1,2.075996117E0
1.031925933E1,2.116343280E0,3.063981932E-1,-1.064641730E0,2.388775993E0
1.032928633E1,2.409649265E0,4.443299174E-3,-1.443036105E0,2.808697656E0
1.033931333E1,2.550132422E0,-2.496164668E-1,-1.869398113E0,3.171771280E0
1.034933933E1,2.717240875E0,-3.799976814E-1,-2.437315950E0,3.669918971E0
1.035936633E1,3.028291113E0,-3.013871294E-1,-3.224312586E0,4.433686154E0
1.036939333E1,3.410857476E0,2.039602375E-1,-4.209980652E0,5.422129249E0
1.037941933E1,4.042422548E0,1.559947674E0,-4.453500227E0,6.213556234E0
1.038944633E1,5.450969728E0,3.391335377E0,-1.173019288E0,6.526116829E0
1.039947333E1,7.559969782E0,3.320639616E-1,3.844538444E0,8.487866954E0
1.040949933E1,9.859989016E0,-5.714822411E0,4.854291776E0,1.238720014E1
1.041952633E1,9.364129341E0,-9.326914737E0,1.966995159E0,1.336216026E1
1.042955333E1,6.480291352E0,-6.707950940E0,-7.595106286E-1,9.357758183E0
1.043957933E1,4.507795425E-1,-3.133346867E0,-2.817285565E0,4.237707250E0
1.044960633E1,-2.999535383E0,-3.860397263E0,-5.965146976E0,7.712513078E0
1.045963333E1,-4.203607771E0,-6.013247926E0,-6.943248160E0,1.010139416E1
1.046966033E1,-4.741739892E0,-6.100541008E0,-4.687184200E0,9.037167339E0
1.047968633E1,-4.875673875E0,-4.975926726E0,-2.114311226E0,7.280271593E0
1.048971333E1,-5.323570009E0,-4.568072909E0,-7.596174864E-1,7.055827837E0
1.049974033E1,-5.779162248E0,-5.000236525E0,-3.895811217E-1,7.651983733E0
1.050976633E1,-5.264329528E0,-5.456412317E0,-1.682258561E-1,7.583791973E0
1.051979333E1,-3.184910538E0,-6.010924242E0,4.666373375E-1,6.818549390E0
1.052982033E1,4.687844351E-2,-6.276178502E0,6.787483013E-1,6.312948078E0
1.053984633E1,3.962996309E0,-5.564622644E0,6.489438736E-1,6.862324174E0
1.054987333E1,5.175714390E0,-4.979330390E0,1.911239035E0,7.431997392E0
1.055990033E1,4.580555837E0,-4.271709123E0,3.102351654E0,6.989533346E0
1.056992733E1,3.495968378E0,-3.267037606E0,2.854501923E0,5.571670382E0
1.057995333E1,2.171474922E0,-2.215679580E0,3.466175352E0,4.651764279E0
1.058998033E1,1.259551940E0,-1.595295262E0,3.138840911E0,3.739486639E0
1.060000733E1,-5.950623661E-2,-9.907440341E-1,2.309474766E0,2.513720038E0
1.061003333E1,-1.043526557E0,-3.422772932E-1,2.189064224E0,2.449102611E0
1.062006033E1,-1.492642713E0,-6.220560372E-2,2.530864384E0,2.938898831E0
1.063008733E1,-2.005475393E0,-1.004756302E-1,3.155234165E0,3.739990580E0
1.064011333E1,-2.302897233E0,1.423568970E-1,3.989663998E0,4.608798105E0
1.065014033E1,-2.222709687E0,7.260183620E-1,4.360970378E0,4.948293004E0
1.066016733E1,-1.873679445E0,1.246647427E0,3.889692398E0,4.493830373E0
1.067019333E1,-1.224086823E0,1.454781992E0,3.131834777E0,3.663764220E0
1.068022033E1,-8.027586821E-1,1.497743824E0,2.605409952E0,3.110597866E0
1.069024733E1,-8.228751504E-1,1.392338991E0,2.720990694E0,3.165362813E0
1.070027433E1,-1.339446833E0,1.475276483E0,3.454349651E0,3.987867855E0
1.071030033E1,-1.895156268E0,1.697584698E0,4.013203719E0,4.751759166E0
1.072032733E1,-2.500521720E0,1.997505931E0,4.333993664E0,5.387591289E0
1.073035433E1,-2.982797728E0,2.252166790E0,4.433978128E0,5.799094721E0
1.074038033E1,-3.273185661E0,2.411052597E0,4.385861390E0,5.980192232E0
1.075040733E1,-3.198103611E0,2.442341048E0,4.133601397E0,5.768843646E0
1.076043433E1,-2.939161420E0,2.400486093E0,3.800636964E0,5.370832773E0
1.077046033E1,-2.827272025E0,2.385245326E0,3.490830429E0,5.086134038E0
1.078048733E1,-2.865749043E0,2.449298065E0,3.331418374E0,5.030897233E0
1.079051433E1,-2.996551257E0,2.566694368E0,3.227577086E0,5.097498726E0
1.080054033E1,-3.007410121E0,2.714158807E0,3.216258046E0,5.172570878E0
1.081056733E1,-2.814391193E0,2.868703056E0,3.079109264E0,5.062723464E0
1.082059433E1,-2.540912824E0,2.936896209E0,2.886817730E0,4.838937272E0
1.083062133E1,-2.340183173E0,3.015371690E0,2.809825103E0,4.739624544E0
1.084064733E1,-2.062363247E0,3.237309192E0,2.742486228E0,4.717493368E0
1.085067433E1,-1.915703091E0,3.454692882E0,2.595683109E0,4.726773957E0
1.086070133E1,-2.086345602E0,3.563172181E0,2.476162512E0,4.814604319E0
1.087072733E1,-2.263759772E0,3.675089058E0,2.545267830E0,5.010915707E0
1.088075433E1,-2.340799470E0,3.661190227E0,2.500844779E0,5.013769105E0
1.089078133E1,-2.365540501E0,3.573090228E0,2.332132142E0,4.878687935E0
1.090080733E1,-2.385974473E0,3.494355716E0,2.122034082E0,4.733542511E0
1.091083433E1,-2.700295059E0,3.526702513E0,2.447931570E0,5.071645984E0
1.092086133E1,-3.496430015E0,3.605514209E0,2.714846440E0,5.709215949E0
1.093088833E1,-4.244770123E0,3.635412192E0,3.455266202E0,6.570628564E0
1.094091433E1,-4.899371470E0,3.639833272E0,4.085553657E0,7.344656270E0
1.095094133E1,-5.406456630E0,3.557718483E0,4.471564322E0,7.866512670E0
1.096096833E1,-5.940260641E0,3.092624518E0,1.395555837E0,6.840950152E0
1.097099433E1,-6.732965328E0,-3.976106644E-1,-1.085699542E1,1.278144224E1
1.098102133E1,-5.418955053E0,-1.173241716E1,-5.098687849E1,5.259920593E1
1.099104833E1,2.485562964E1,-4.133030943E1,-2.917172615E1,5.636476212E1
1.100107433E1,1.871426396E1,-4.230447427E1,4.790323939E1,6.659288673E1
1.101110133E1,5.727230787E0,-1.139411129E1,2.006844402E1,2.377749755E1
1.102112833E1,8.477775648E-1,4.947049082E0,-1.224295393E1,1.323185332E1
1.103115433E1,-5.774435944E0,1.127656822E1,-4.794237363E0,1.354584118E1
1.104118133E1,-1.000050813E1,1.381601281E1,7.551411213E0,1.865251147E1
1.105120833E1,-9.008305804E0,1.312659217E1,6.712539834E0,1.727759204E1
1.106123533E1,-4.338450996E0,8.860706878E0,-1.751783710E0,1.002013122E1
1.107126133E1,-2.151805473E0,2.682577996E0,1.209552983E0,3.645478009E0
1.108128833E1,-8.157260522E-1,-1.999421479E0,4.689896431E0,5.163160251E0
1.109131533E1,1.368709516E0,-6.147824517E0,2.978598843E0,6.967148850E0
1.110134133E1,4.743715666E0,-1.072580027E1,2.206960212E0,1.193383020E1
1.111136833E1,8.132374772E0,-1.203022988E1,6.498905379E-1,1.453562204E1
1.112139533E1,7.856979686E0,-7.446383525E0,3.927057275E-1,1.083212699E1
1.113142079E1,4.301714987E0,-1.955528185E0,1.075831547E0,4.846262047E0
1.114144779E1,2.458935446E-1,7.561034560E-2,1.061947626E0,1.092663406E0
1.115147479E1,-2.722162184E0,8.753363693E-1,3.807285833E-1,2.884672420E0
1.116150179E1,-4.149002671E0,1.365483314E0,6.178624141E-1,4.411408143E0
1.117152779E1,-3.466805390E0,1.071642017E0,1.425597954E0,3.898651786E0
1.118155479E1,-1.906534950E0,5.821897209E-2,7.805177741E-1,2.060939824E0
1.119158179E1,-3.182794431E-1,-1.044104555E0,3.599031401E-1,1.149341723E0
1.120160779E1,1.021269423E0,-1.619714404E0,6.878300504E-1,2.034594840E0
1.121163479E1,1.905444736E0,-1.671837654E0,5.927744968E-1,2.603294525E0
1.122166179E1,2.236009179E0,-1.110762228E0,1.987562156E-1,2.504602526E0
1.123168779E1,1.788103690E0,-3.816781712E-1,-3.374602839E-1,1.859266650E0
1.124171479E1,5.863962078E-1,1.662106133E-1,-8.759678686E-1,1.067148625E0
1.125174179E1,-6.751958254E-1,5.491190386E-1,-7.303219128E-1,1.136129930E0
1.126176879E1,-1.617800025E0,7.692170066E-1,-3.224026072E-1,1.820141524E0
1.127179479E1,-2.032432812E0,1.021068864E0,-3.082722259E-1,2.295298787E0
1.128182179E1,-2.168657441E0,1.068308519E0,-5.255465003E-1,2.473976013E0
1.129184879E1,-1.775878331E0,8.452068365E-1,-6.170635383E-1,2.061282575E0
1.130187479E1,-1.010934616E0,7.048648900E-1,-5.906331003E-1,1.366627517E0
1.131190179E1,1.233543232E-2,6.640571719E-1,-4.242809844E-1,7.881233687E-1
1.132192879E1,6.873359607E-1,1.015599963E0,-9.506987929E-2,1.230004996E0
1.133195479E1,9.610980660E-1,1.659294207E0,-2.398991983E-2,1.917691913E0
1.134198179E1,9.672376424E-1,2.202123395E0,-2.442311811E-1,2.417549374E0
1.135200879E1,8.789047788E-1,2.522341483E0,-3.659573472E-1,2.696035042E0
1.136203479E1,8.900236979E-1,2.506777364E0,-1.682688332E-1,2.665406036E0
1.137206179E1,1.037172973E0,2.292918960E0,-2.780666792E-1,2.531901698E0
1.138208879E1,1.236681433E0,1.923759093E0,-5.953319228E-1,2.363186432E0
1.139211579E1,1.096520896E0,1.480336078E0,-6.767684340E-1,1.962592289E0
1.140214179E1,7.929960246E-1,1.081102812E0,-7.569150496E-1,1.539657877E0
1.141216879E1,6.079442208E-1,7.257435429E-1,-1.225774037E0,1.548813047E0
1.142219579E1,7.672950268E-1,4.497584724E-1,-1.647358870E0,1.872115271E0
1.143222179E1,1.265843982E0,2.187127626E-1,-1.311117657E0,1.835545088E0
1.144224879E1,1.556888995E0,1.735804439E-1,-4.427616942E-1,1.627904000E0
1.145227579E1,1.421019438E0,4.199072671E-1,3.367698008E-1,1.519550017E0
1.146230179E1,1.301251504E0,7.638206112E-1,4.878905046E-1,1.585785152E0
1.147232879E1,1.528383380E0,8.797843462E-1,1.270611656E-1,1.768083933E0
1.148235579E1,1.745711668E0,8.864794081E-1,-4.729638238E-2,1.958466726E0
1.149238279E1,1.713121043E0,9.153184605E-1,2.546696305E-2,1.942482987E0
1.150240879E1,1.689284722E0,8.975838554E-1,1.169209242E-2,1.912975785E0
1.151243579E1,1.925141082E0,8.348432314E-1,-3.301823276E-1,2.124182614E0
1.152246279E1,2.277851562E0,6.818748075E-1,-9.810949588E-1,2.572179681E0
1.153248879E1,2.662784586E0,4.946335137E-1,-1.831833846E0,3.269663485E0
1.154251579E1,3.077510635E0,4.968952167E-1,-2.527591698E0,4.013314884E0
1.155254279E1,3.739489707E0,9.457403541E-1,-2.547449427E0,4.622521678E0
1.156256879E1,5.335010671E0,1.495970364E0,-2.220474114E-1,5.545229593E0
1.157259579E1,7.337232381E0,-1.437813957E0,3.653651412E0,8.321746008E0
1.158262279E1,8.834321317E0,-6.941322087E0,4.468547451E0,1.209111665E1
1.159264979E1,9.473141322E0,-9.585800210E0,8.445461011E-1,1.350337848E1
1.160267579E1,7.097014144E0,-5.993717641E0,-1.710026988E0,9.445446163E0
1.161270279E1,2.607473727E0,-3.746011691E0,-4.047925655E0,6.100592179E0
1.162272979E1,-1.321516930E0,-4.178498658E0,-7.790250092E0,8.938358603E0
1.163275579E1,-3.759296857E0,-4.297588899E0,-8.086793972E0,9.899384827E0
1.164278279E1,-3.273993746E0,-3.966792614E0,-5.073486350E0,7.224592890E0
1.165280979E1,-2.137802269E0,-2.823011743E0,-2.687615372E0,4.445544987E0
1.166283579E1,-2.017485282E0,-1.750997844E0,-2.402015140E0,3.592480625E0
1.167286279E1,-2.235938867E0,-1.104857710E0,-2.263649991E0,3.368121799E0
1.168288979E1,-2.022333062E0,-9.603466988E-1,-1.743072674E0,2.837322531E0
1.169291679E1,-1.249168454E0,-1.632583541E0,-8.598131812E-1,2.228234626E0
1.170294279E1,5.201795603E-1,-2.740388832E0,-2.186010808E-2,2.789407749E0
1.171296979E1,2.634665326E0,-4.254920597E0,1.485900435E0,5.220508670E0
1.172299679E1,3.534730740E0,-5.556208500E0,2.348713092E0,6.991582617E0
1.173302279E1,3.166609046E0,-5.451852658E0,2.897776289E0,6.938819617E0
1.174304979E1,2.827487787E0,-4.314756909E0,3.717205091E0,6.358413958E0
1.175307679E1,1.922551935E0,-3.574704060E0,2.577617259E0,4.808204009E0
1.176310279E1,1.042203917E0,-2.765333054E0,1.566511173E0,3.344729161E0
1.177312979E1,2.352062961E-1,-2.115191671E0,1.356060819E0,2.523540915E0
1.178315679E1,-4.444819450E-1,-1.537157566E0,1.704392027E0,2.337813030E0
1.179318379E1,-8.712500426E-1,-7.331695068E-1,2.576300758E0,2.816725006E0
1.180320979E1,-1.792284449E0,1.515194839E-1,2.858339159E0,3.377179954E0
1.181323679E1,-3.114453344E0,9.858446521E-1,2.728680660E0,4.256454799E0
1.182326379E1,-3.559643679E0,1.720749612E0,2.752541100E0,4.817522689E0
1.183328979E1,-3.505398475E0,1.803311713E0,2.533320799E0,4.685879413E0
1.184331679E1,-3.110661717E0,1.409086586E0,2.330780266E0,4.134522702E0
1.185334379E1,-2.440547999E0,8.524679089E-1,2.373005349E0,3.509149535E0
1.186336979E1,-1.828636588E0,2.743548667E-1,2.606640206E0,3.195896671E0
1.187339679E1,-1.458730032E0,-5.905512393E-2,3.109700142E0,3.435347986E0
1.188342379E1,-1.635589594E0,2.789940476E-2,3.962906554E0,4.287255539E0
1.189345079E1,-1.848519461E0,5.184322661E-1,4.601431274E0,4.985876651E0
1.190347679E1,-1.653038270E0,1.092561015E0,4.554750613E0,4.967089514E0
1.191350379E1,-1.836516004E0,1.580567295E0,3.968566659E0,4.649785515E0
1.192353079E1,-2.230098229E0,1.947569540E0,3.229439424E0,4.381283398E0
1.193355679E1,-2.555702479E0,2.198519756E0,2.926446065E0,4.464212232E0
1.194358379E1,-2.784817731E0,2.388868845E0,3.102316863E0,4.804817798E0
1.195361079E1,-2.741501265E0,2.516922868E0,3.304339333E0,4.976885405E0
1.196363679E1,-2.561196231E0,2.619318724E0,3.229792011E0,4.883862523E0
1.197366379E1,-2.431797348E0,2.681685711E0,2.930534438E0,4.657586144E0
1.198369079E1,-2.534231503E0,2.857674623E0,2.816186289E0,4.745475611E0
1.199371779E1,-2.710681176E0,3.187200308E0,3.016118964E0,5.157810761E0
1.200374379E1,-2.730518440E0,3.534181101E0,3.024623154E0,5.393932910E0
1.201377079E1,-2.659746080E0,3.684039391E0,2.891209574E0,5.385674354E0
1.202379779E1,-2.469982298E0,3.798008641E0,2.898053155E0,5.378140411E0
1.203382379E1,-2.422952558E0,3.786063949E0,2.805325086E0,5.298568501E0
1.204385079E1,-2.657470052E0,3.637346451E0,2.544643933E0,5.173746130E0
1.205387779E1,-2.914046752E0,3.616290627E0,2.521121753E0,5.284437649E0
1.206390379E1,-3.272391024E0,3.666984233E0,2.648323252E0,5.582914331E0
1.207393079E1,-3.680507381E0,3.749697776E0,3.580184070E0,6.357993863E0
1.208395779E1,-3.988405092E0,3.855122489E0,3.897083278E0,6.779129934E0
1.209398379E1,-4.454852395E0,3.788954812E0,4.176878979E0,7.186668661E0
1.210401079E1,-5.061409510E0,3.892364575E0,5.348573288E0,8.329201909E0
1.211403779E1,-5.741301527E0,3.969699265E0,5.213865134E0,8.712373104E0
1.212406479E1,-6.306549525E0,2.537654171E0,-1.795824645E0,7.031162192E0
1.213409104E1,-5.319434273E0,-3.619821176E0,-2.459026896E1,2.541811979E1
1.214411804E1,1.149333971E1,-2.369139287E1,-6.076558887E1,6.622564265E1
1.215414504E1,2.888311460E1,-4.875837363E1,1.847916145E1,5.960782428E1
1.216417104E1,6.432785649E0,-2.891644840E1,3.816816561E1,4.831511757E1
1.217419804E1,1.934071535E0,-3.144296363E0,-1.823810881E0,4.117465051E0
1.218422504E1,-1.447932856E0,7.452446503E0,-7.974928551E0,1.101067454E1
1.219425104E1,-8.356210281E0,1.258366066E1,3.724679587E0,1.555789201E1
1.220427804E1,-1.102485144E1,1.328059380E1,7.488269470E0,1.881477347E1
1.221430504E1,-7.599593439E0,1.105794785E1,4.235512519E0,1.407023800E1
1.222433204E1,-2.667662333E0,5.415709264E0,1.476678937E0,6.215055095E0
1.223435804E1,-3.155414844E-1,-4.333833450E-1,3.134056134E0,3.179574721E0
1.224438504E1,-7.106933945E-1,-4.927736313E0,3.359240887E0,6.006011123E0
1.225441204E1,-1.918277620E0,-9.875742584E0,2.246537383E0,1.030810413E1
1.226443804E1,-2.143147793E-1,-1.348223503E1,2.296863492E0,1.367816414E1
1.227446504E1,3.683500570E0,-1.134464853E1,1.855066588E0,1.207106038E1
1.228449204E1,3.670216866E0,-5.743353315E0,1.622412601E0,7.006341541E0
1.229451804E1,8.233493596E-1,-2.136441622E0,1.340512780E0,2.653160659E0
1.230454504E1,-1.644209267E0,2.844378054E-2,9.669810958E-1,1.907691171E0
1.231457204E1,-3.225273283E0,1.452638403E0,9.951116118E-1,3.674614701E0
1.232459904E1,-3.408060168E0,1.935661685E0,1.208402251E0,4.101450508E0
1.233462504E1,-2.419079362E0,1.456463066E0,1.352070094E0,3.130706496E0
1.234465204E1,-1.114809379E0,5.193233818E-1,1.243359830E0,1.748839728E0
1.235467904E1,2.326987177E-2,-5.108110052E-1,8.791508004E-1,1.017042526E0
1.236470504E1,5.737130123E-1,-1.232852676E0,7.010811567E-1,1.529897751E0
1.237473204E1,6.885757166E-1,-1.443757067E0,8.383712952E-1,1.805945020E0
1.238475904E1,7.705656669E-1,-1.235561691E0,8.618045966E-1,1.692067168E0
1.239478604E1,8.165569416E-1,-6.842271423E-1,7.422664587E-1,1.298418853E0
1.240481204E1,7.103551331E-1,2.121369839E-2,7.365399881E-1,1.023496747E0
1.241483904E1,5.449876884E-1,6.421406382E-1,7.842754872E-1,1.150845002E0
1.242486604E1,3.519249067E-1,1.089356741E0,8.338458426E-1,1.416279682E0
1.243489204E1,3.281933972E-1,1.263811929E0,9.962952344E-1,1.642417636E0
1.244491904E1,4.663186643E-1,1.185736397E0,1.057154371E0,1.655596347E0
1.245494604E1,6.035782510E-1,1.045411992E0,9.063944399E-1,1.509550867E0
1.246497204E1,6.580044267E-1,9.928484470E-1,5.481953247E-1,1.311196392E0
1.247499904E1,5.689501628E-1,8.288615298E-1,7.515448205E-2,1.008148759E0
1.248502604E1,7.002055362E-1,6.737910318E-1,-2.157236660E-1,9.953988384E-1
1.249505204E1,6.757866865E-1,8.869477701E-1,-4.312052572E-1,1.195534176E0
1.250507904E1,4.723310637E-1,2.315766370E-1,3.643342332E-1,6.398935896E-1
1.251510604E1,8.920440571E-1,-2.919386137E-1,9.344727695E-1,1.324465972E0
1.252513304E1,6.532512251E-1,-4.954293197E-1,-4.889978211E-1,9.546236132E-1
1.253515904E1,2.912910345E-1,-2.172766864E-2,-8.854899131E-2,3.052269356E-1
1.254518604E1,-3.064401470E-1,3.717010671E-1,-6.534775123E-3,4.817779055E-1
1.255521304E1,-2.740968584E-1,4.811779010E-1,6.029449975E-1,8.186598379E-1
1.256523904E1,4.514649823E-2,1.203906035E0,1.049237314E0,1.597600353E0
1.257526604E1,6.486009344E-2,8.058761251E-1,2.807647307E-1,8.558457774E-1
1.258529304E1,3.381532520E-1,4.454280245E-1,1.339974836E0,1.451993908E0
1.259532004E1,-3.241031237E-1,-1.452657698E0,4.292465130E-1,1.549035117E0
1.260534604E1,9.031094742E-1,-1.058314458E0,1.091828286E0,1.768537594E0
1.261537304E1,-1.346891508E-2,-1.939250706E0,1.168511230E-2,1.939332683E0
1.262540004E1,5.060449398E-1,-1.749257712E0,-8.641826592E-2,1.823033774E0
1.263542604E1,9.030081712E-1,-4.090940112E-1,2.230782938E-1,1.016142506E0
1.264545304E1,4.168909809E-1,4.243605065E-1,8.196159124E-2,6.004978201E-1
1.265548004E1,4.414954796E-2,1.066518686E0,-1.937884212E-1,1.084880290E0
1.266550604E1,-8.597044230E-2,1.504549983E0,-3.691861796E-1,1.551566951E0
1.267553304E1,3.482601643E-2,1.739711548E0,-3.769547904E-1,1.780422432E0
1.268556004E1,4.326761243E-1,1.885560987E0,-1.123472138E-1,1.937826298E0
1.269558704E1,6.661775185E-1,1.928761386E0,1.829394972E-1,2.048750797E0
1.270561304E1,7.901115932E-1,1.799263685E0,2.600701189E-1,1.982236768E0
1.271564004E1,7.548579991E-1,1.633234336E0,3.459809196E-1,1.832202989E0
1.272566704E1,9.017019032E-1,1.674373591E0,4.368337870E-1,1.951260362E0
1.273569304E1,5.796147533E-1,1.791300362E-1,5.764571106E-1,8.368653610E-1
1.274572004E1,2.468460560E-2,-3.032923277E0,9.594029582E-1,3.181145544E0
1.275574704E1,6.174221188E-2,-3.744893119E0,9.428752184E-1,3.862259733E0
1.276577304E1,3.458209983E-1,-1.826305304E0,-3.356347466E-4,1.858758547E0
1.277580004E1,1.328275435E0,2.258843726E-1,-7.460918534E-1,1.540127408E0
1.278582704E1,2.627039387E0,4.137086338E-1,9.760581672E-2,2.661206056E0
1.279585404E1,1.746030488E-1,4.142313749E-1,1.000250437E0,1.096619712E0
1.280588004E1,1.508032000E0,-2.306010291E0,7.020611501E-1,2.843366637E0
1.281590704E1,5.336322494E-1,-2.893680022E0,-7.613963556E-1,3.039386757E0
1.282593404E1,-1.747908175E0,6.218987471E-1,5.850367302E-1,1.945304350E0
1.283596004E1,-1.681446968E0,9.183642751E-1,9.821667534E-1,2.152976632E0
1.284598704E1,-2.166574078E0,1.260297167E-1,5.763571233E-1,2.245465266E0
1.285601404E1,-1.222010403E0,1.284016398E0,-1.028280016E-1,1.775550938E0
1.286604004E1,7.157786449E-1,-5.815453577E-1,5.686587157E-1,1.083469800E0
1.287606704E1,-1.622583632E0,2.705625966E0,-3.429508559E-1,3.173453135E0
1.288609404E1,-3.708021162E0,2.522846682E0,-4.350282033E-1,4.505932296E0
1.289612104E1,-3.478220909E0,-9.580428958E-2,8.993117076E-1,3.593878225E0
1.290614704E1,-2.210202785E0,-5.634201586E-1,7.532248718E-1,2.402037955E0
1.291617404E1,-1.130372255E0,4.268713009E-1,-9.990026414E-2,1.212411071E0
1.292620104E1,-1.028503891E0,1.474995816E0,-8.755129552E-1,1.999988962E0
1.293622704E1,-9.463540924E-1,2.045152552E0,-1.115105540E0,2.514298191E0
1.294625404E1,-6.795460808E-1,2.063864227E0,-7.121130985E-1,2.286574619E0
1.295628104E1,-2.158609293E-1,1.476780387E0,-3.075097489E-1,1.523823644E0
1.296630704E1,5.173031688E-1,1.512984592E-1,1.054381621E-1,5.491912219E-1
1.297633404E1,1.355598596E0,-2.039368486E0,4.827618387E-1,2.495942782E0
1.298636104E1,1.848363340E0,-2.236765224E0,5.519970381E-1,2.953686922E0
1.299638804E1,1.744059391E0,-9.799857420E-1,4.128485814E-1,2.042684304E0
1.300641404E1,1.055453123E0,7.318135375E-1,5.232177005E-1,1.386826994E0
1.301644104E1,2.226241844E-1,1.834958013E0,6.691096779E-1,1.965792512E0
1.302646804E1,-8.410758517E-1,2.236666991E0,7.304224849E-1,2.498720637E0
1.303649404E1,-2.229543621E0,1.446480115E0,8.391508752E-1,2.786995456E0
1.304652104E1,-2.693011475E0,2.094507730E-1,9.890997239E-1,2.876542837E0
1.305654804E1,-2.167989397E0,-7.496159703E-1,8.049358197E-1,2.431054051E0
1.306657404E1,-1.247173969E0,2.076381361E-1,4.168941238E-1,1.331299070E0
1.307660104E1,7.321715333E-2,1.494619072E0,-7.797620215E-2,1.498441594E0
1.308662804E1,3.088348011E-1,3.655936503E-1,-7.375397889E-1,8.792056595E-1
1.309665504E1,6.075373276E-1,-1.477246994E0,-9.699483385E-1,1.868732208E0
1.310668104E1,1.621467691E0,-1.983948576E0,-8.098868034E-1,2.687215299E0
1.311670804E1,2.820526677E0,-1.252232103E0,-5.794503734E-1,3.139939284E0
1.312673504E1,2.090254319E0,-9.256826502E-1,1.226598933E-1,2.289344216E0
1.313676046E1,9.738842455E-1,2.081550300E-2,5.364446139E-1,1.112050643E0
1.314678746E1,-1.126760649E-1,1.180652828E0,5.747104742E-1,1.317926069E0
1.315681446E1,-1.760391396E0,-1.926005593E0,5.134113351E-1,2.659335746E0
1.316684046E1,-1.359891184E0,-2.680860084E0,7.348370596E-1,3.094559795E0
1.317686746E1,9.294185825E-2,3.388449776E-1,3.501540774E-1,4.960463545E-1
1.318689446E1,3.114888523E-1,1.988930404E0,-4.625860211E-1,2.065636775E0
1.319692146E1,-3.092965849E-1,1.774563292E0,-4.529457166E-1,1.857390395E0
1.320694746E1,-9.463828169E-1,1.099460730E0,-9.504656352E-2,1.453784091E0
1.321697446E1,-8.756380125E-1,3.435818070E-1,5.592861772E-2,9.422942202E-1
1.322700146E1,-1.558336327E-1,-7.522249979E-1,6.553201161E-2,7.709870382E-1
1.323702746E1,1.726409425E0,7.984723806E-2,4.276267612E-1,1.780373481E0
1.324705446E1,2.054292043E0,1.791604418E-1,2.380740631E-1,2.075787446E0
1.325708146E1,1.296501080E0,-2.635234845E-1,1.858479754E-1,1.336001178E0
1.326710746E1,8.567208812E-2,6.344696760E-2,-2.547900832E-1,2.761941543E-1
1.327713446E1,-1.301325618E0,4.326401639E-1,-7.529774614E-1,1.564481042E0
1.328716146E1,-1.495953991E0,1.419218642E-1,-5.155794827E-1,1.588660556E0
1.329718846E1,-5.208888276E-1,-4.731865114E-1,2.086286545E-2,7.040354426E-1
1.330721446E1,1.667185901E-1,-4.336651808E-1,1.397852916E-1,4.851808993E-1
1.331724146E1,7.600912571E-2,1.757310498E-1,2.721142137E-1,3.327235104E-1
1.332726846E1,-6.484580431E-1,-1.812730408E-1,2.350872688E-1,7.131786403E-1
1.333729446E1,-7.622766539E-2,-8.693102288E-1,6.794546449E-1,1.105969957E0
1.334732146E1,7.965589524E-1,-2.165342070E0,4.734782144E-1,2.355290654E0
1.335734846E1,1.061855166E0,-3.370719849E0,-6.526119051E-1,3.593771138E0
1.336737546E1,5.481408725E-1,-1.877505278E0,-1.066533962E0,2.227774490E0
1.337740146E1,1.613722616E-1,-8.488613462E-1,-7.594452129E-1,1.150375427E0
1.338742846E1,-3.217664301E-2,4.987195480E-1,-8.712263614E-1,1.004386328E0
1.339745546E1,5.784412171E-1,9.604542875E-1,-4.360385656E-1,1.202994726E0
1.340748146E1,1.511030306E0,1.560282719E-1,-5.008268845E-1,1.599495225E0
1.341750846E1,1.675423166E0,-2.030393010E-1,-5.166002604E-1,1.764976933E0
1.342753546E1,1.446927719E0,-1.969301301E-1,-2.498404151E-1,1.481486259E0
1.343756146E1,1.319569077E0,-6.673012072E-1,-3.182464063E-1,1.512558833E0
1.344758846E1,2.137190065E0,-1.817613418E0,-4.214876964E-1,2.837067463E0
1.345761546E1,2.590916166E0,-3.311225599E0,-3.341438893E-1,4.217666853E0
1.346764246E1,2.178545960E0,-3.494499557E0,3.386080923E-1,4.131857342E0
1.347766846E1,1.764220445E0,-3.723383551E0,3.991905089E-1,4.139494161E0
1.348769546E1,1.646995319E0,-4.071602785E0,6.769248471E-3,4.392105263E0
1.349772246E1,1.529702366E0,-4.603406464E0,-2.463064311E-1,4.857160411E0
1.350774846E1,1.789475154E0,-3.569802339E0,4.729373469E-1,4.021116736E0
1.351777546E1,1.804838567E0,-2.798737028E0,3.826218387E-1,3.352129275E0
1.352780246E1,2.285439055E0,-2.659580896E0,-1.149714625E-1,3.508535401E0
1.353782846E1,1.977291668E0,-3.033616172E0,-1.305222056E-1,3.623471466E0
1.354785546E1,1.419411015E0,-4.301554481E0,1.757502725E-1,4.533099022E0
1.355788246E1,1.870120829E0,-5.320442333E0,1.825085574E-1,5.642496603E0
1.356790946E1,1.743288875E0,-3.909216835E0,6.051751256E-1,4.322877433E0
1.357793546E1,1.116934257E0,-1.877332200E0,1.165351907E0,2.475876288E0
1.358796246E1,3.385369024E-1,-2.251347595E-1,5.817090797E-1,7.097029997E-1
1.359798946E1,-4.377504842E-1,8.681396163E-1,2.171351838E-1,9.962126117E-1
1.360801546E1,-1.916018841E0,7.553228527E-1,6.371839535E-1,2.155839558E0
1.361804246E1,-3.023396993E0,2.151301736E-1,1.126233961E0,3.233514080E0
1.362806946E1,-1.467858705E0,-2.823047411E-1,5.987583911E-1,1.610222579E0
1.363809546E1,-1.884709632E-1,-6.379136860E-1,-7.317381084E-1,9.888861583E-1
1.364812246E1,-1.137335485E0,-2.831605981E0,2.771042275E-1,3.064035116E0
1.365814946E1,-1.596603138E0,-3.948752199E0,7.799355376E-1,4.330136829E0
1.366817646E1,-9.533747712E-1,-1.254820665E0,8.081869447E-1,1.771063097E0
1.367820246E1,-2.342273699E0,-1.833763427E0,2.000525798E-1,2.981435128E0
1.368822946E1,-4.148816437E0,-4.924091159E0,-8.728349304E-1,6.497783652E0
1.369825646E1,-7.003638496E-1,3.435765445E-2,-1.081754192E0,1.289140063E0
1.370828246E1,2.065499547E0,1.232903547E0,-1.022186852E0,2.613657494E0
1.371830946E1,1.081645433E0,2.265722390E0,1.392716721E0,2.871082489E0
1.372833646E1,1.513719002E0,2.008384091E0,6.772022974E-1,2.604525835E0
1.373836246E1,-6.983674639E-1,-9.871766478E-1,-2.519710236E0,2.794847853E0
1.374838946E1,-3.063092571E0,-7.577599722E-1,-2.099184918E0,3.789896251E0
1.375841646E1,-3.188543706E0,-7.013267398E-2,-2.854294932E-1,3.202061766E0
1.376844346E1,-4.639509220E0,3.532308823E-1,2.275200142E0,5.179416332E0
1.377846946E1,-6.193240426E0,-7.498445964E-1,2.133215713E0,6.593110281E0
1.378849646E1,-5.143766958E0,-4.771287042E-1,1.927545750E0,5.513748538E0
1.379852346E1,-2.768012248E0,2.465408313E-1,-8.209765595E-1,2.897701969E0
1.380854946E1,-1.762633218E0,9.344295001E-1,-5.640037107E-1,2.073194284E0
1.381857646E1,-1.888618496E-1,1.925176458E0,5.617889682E-2,1.935233645E0
1.382860346E1,1.042844187E0,1.947439731E0,-2.447165183E-1,2.222595708E0
1.383863046E1,1.036964520E0,1.786033190E0,-1.988256220E0,2.866770442E0
1.384865646E1,1.580933915E0,1.803815158E0,-4.484494563E0,5.085645746E0
1.385868346E1,1.615575160E0,1.385708249E0,-3.138685375E0,3.792310157E0
1.386871046E1,1.910894049E0,3.196935922E-1,-1.232730469E0,2.296376378E0
1.387873646E1,1.061197720E0,1.369546545E-1,-1.902106853E0,2.182408683E0
1.388876346E1,4.963783228E-1,7.317287529E-1,-2.670766035E0,2.813327145E0
1.389879046E1,2.243852050E0,1.383417894E0,-3.032014035E0,4.017689162E0
1.390881646E1,3.739145890E0,1.726047190E0,-2.442500969E0,4.788137621E0
1.391884346E1,4.031659285E0,2.364514022E0,-1.736285226E0,4.985969268E0
1.392887046E1,4.208689587E0,2.653059497E0,-1.605761924E0,5.227835507E0
1.393889746E1,5.030443241E0,2.822683715E0,-1.430797298E0,5.943070205E0
1.394892346E1,5.274877321E0,2.853654077E0,-7.657946312E-1,6.045999814E0
1.395895046E1,4.725119766E0,2.617732959E0,-3.869462201E-1,5.415626466E0
1.396897746E1,3.530203825E0,2.073883431E0,-4.851867521E-1,4.122952549E0
1.397900346E1,2.723897345E0,1.655964802E0,-6.359531146E-1,3.250580338E0
1.398903046E1,2.347723158E0,1.434381641E0,-8.249187523E-1,2.872237049E0
1.399905746E1,2.230497594E0,9.237402052E-1,-9.306583384E-1,2.587380997E0
1.400908346E1,1.966061359E0,3.108362299E-1,-6.249661964E-1,2.086288373E0
1.401911046E1,1.512174752E0,-1.362167358E-2,-3.407844990E-2,1.512620036E0
1.402913746E1,9.970865089E-1,-4.601594996E-1,4.381011710E-1,1.182311679E0
1.403916446E1,3.063864988E-1,-9.263141495E-1,1.332579278E0,1.651574437E0
1.404919046E1,4.532831740E-1,-1.313176462E0,2.240233793E0,2.636009390E0
1.405921746E1,1.487737484E0,-1.900986819E0,1.732996021E0,2.971597031E0
1.406924446E1,1.434839478E0,-1.827616834E0,9.632820010E-1,2.515324996E0
1.407927046E1,1.159664832E0,-2.059320356E0,2.101337278E-1,2.372715540E0
1.408929746E1,3.462756193E-1,-2.339698147E0,1.109392226E-2,2.365209779E0
1.409932446E1,-2.211457890E-1,-2.649134553E0,-6.057306111E-2,2.659039006E0
1.410935146E1,-4.874578106E-1,-2.680751910E0,-2.085994184E-1,2.732683597E0
1.411937746E1,-6.128197753E-1,-2.911611386E0,-5.420012230E-1,3.024366755E0
1.412940529E1,-6.517908829E-1,-3.269961798E0,-7.483114564E-1,3.417228636E0
1.413943229E1,-7.076639521E-1,-3.342287470E0,-6.772835737E-1,3.482870489E0
1.414945829E1,-8.571158606E-1,-3.299482636E0,-7.531149441E-1,3.491191112E0
1.415948529E1,-8.711430386E-1,-3.400799973E0,-7.775808638E-1,3.595686673E0
1.416951229E1,-1.061717830E0,-3.359608093E0,-3.932047874E-1,3.545253347E0
1.417953829E1,-1.277709591E0,-3.432930130E0,9.103003800E-2,3.664128484E0
1.418956529E1,-1.422958521E0,-3.598353124E0,1.390046883E-1,3.871986371E0
1.419959229E1,-1.298419259E0,-3.584685842E0,-1.184558183E-1,3.814432715E0
1.420961929E1,-1.069664196E0,-3.439648581E0,-5.260014868E-1,3.640335344E0
1.421964529E1,-7.400718525E-1,-3.476523170E0,-1.079898870E0,3.714848754E0
1.422967229E1,-4.653468570E-1,-3.649376220E0,-1.495003234E0,3.971086647E0
1.423969929E1,-5.113387164E-1,-3.664033143E0,-1.465658982E0,3.979291697E0
1.424972529E1,-3.703521144E-1,-3.152268749E0,-1.180231243E0,3.386281846E0
1.425975229E1,-1.071008179E-1,-2.761354316E0,-1.039461865E0,2.952461552E0
1.426977929E1,3.144869390E-1,-2.811438642E0,-1.247891715E0,3.091977200E0
1.427980629E1,3.443413603E-1,-2.751976259E0,-1.746705987E0,3.277640327E0
1.428983229E1,2.729395482E-1,-2.421386966E0,-2.414425271E0,3.430314887E0
1.429985929E1,2.439554849E-1,-1.832529957E0,-2.988860999E0,3.514394740E0
1.430988629E1,1.244398588E-1,-1.440841206E0,-3.470075153E0,3.759378968E0
1.431991229E1,-1.078881454E-1,-1.337103707E0,-3.729403260E0,3.963323712E0
1.432993929E1,-4.893023148E-1,-1.205070508E0,-3.326965719E0,3.572157972E0
1.433996629E1,-8.129603192E-1,-1.262310656E0,-2.648186427E0,3.044211561E0
1.434999229E1,-8.859882420E-1,-1.560793181E0,-2.068115737E0,2.738275593E0
1.436001929E1,-7.306446791E-1,-1.798046880E0,-1.585519302E0,2.506129623E0
1.437004629E1,-3.562623712E-1,-1.974492459E0,-1.424492830E0,2.460634709E0
1.438007329E1,-1.653268066E-1,-1.765555364E0,-1.538830454E0,2.347875181E0
1.439009929E1,-2.302838176E-1,-1.364678153E0,-1.834494329E0,2.297987498E0
1.440012629E1,-1.741563946E-2,-1.233424534E0,-2.083392173E0,2.421190272E0
1.441015329E1,1.158266178E0,-1.261932341E0,-2.005099125E0,2.637134102E0
1.442017929E1,1.449760695E0,-1.000338145E0,-2.014769835E0,2.676150214E0
1.443020629E1,6.647708246E-1,-6.521548721E-1,-1.819182225E0,2.043685444E0
1.444023329E1,-1.821220565E-1,-9.384056067E-1,-1.316131060E0,1.626645165E0
1.445026029E1,-7.194694805E-1,-1.261789084E0,-6.734945780E-1,1.601044338E0
1.446028629E1,-6.948234665E-1,-1.230656462E0,-2.076311195E-1,1.428427687E0
1.447031329E1,-7.379317716E-1,-1.131859567E0,-8.958285213E-2,1.354132367E0
1.448034029E1,-1.330630401E0,-1.097993664E0,-5.611034918E-1,1.814112587E0
1.449036629E1,-2.188327475E0,-1.071971800E0,-1.460365498E0,2.840874524E0
1.450039329E1,-2.236533090E0,-8.421025497E-1,-1.322323261E0,2.731255348E0
1.451042029E1,-1.907050674E0,-5.776633912E-1,-9.291787004E-1,2.198615547E0
1.452044629E1,-1.455719301E0,-3.423383966E-1,-3.986660868E-1,1.547659171E0
1.453047329E1,-1.959931138E-1,-5.644250026E-1,1.526357174E-2,5.976804003E-1
1.454050029E1,1.179131382E0,-1.176000198E0,8.597219646E-2,1.667548650E0
1.455052729E1,8.062497622E-1,-1.068730396E0,1.055346411E-1,1.342892735E0
1.456055329E1,7.458948022E-1,-8.877269116E-1,-1.824898463E-1,1.173763464E0
1.457058029E1,1.012765525E0,-5.753481862E-1,-4.987201327E-1,1.267060107E0
1.458060729E1,1.153502159E0,-5.825376302E-2,-3.769933820E-1,1.214942279E0
1.459063329E1,1.052291534E0,3.039713064E-1,-6.588057876E-2,1.097294982E0
1.460066029E1,1.852339447E-2,3.320458353E-1,-1.038523972E-2,3.327242192E-1
1.461068729E1,-9.309442672E-1,2.255165827E-1,-2.106371731E-1,9.807563288E-1
1.462071429E1,-1.201273911E0,4.053172946E-2,-3.529215646E-1,1.252699270E0
1.463074029E1,-1.146894805E0,-5.802776814E-3,-2.904610223E-1,1.183118325E0
1.464076729E1,-1.272528958E0,6.083472401E-2,-6.136185050E-2,1.275459168E0
1.465079429E1,-1.168370751E0,2.230911577E-1,5.386612934E-1,1.305762561E0
1.466082029E1,-1.299412116E-1,1.160774633E-1,1.120168059E0,1.133638028E0
1.467084729E1,9.823541567E-1,-2.131821737E-1,1.331018656E0,1.667955932E0
1.468087429E1,1.242259969E0,-2.766849822E-1,1.275128045E0,1.801587062E0
1.469090029E1,8.090613958E-1,-2.688804111E-1,9.033112031E-1,1.242114386E0
1.470092729E1,6.384194702E-2,-9.465414226E-2,2.800366062E-1,3.024164375E-1
1.471095429E1,-2.510803172E-1,1.125667951E-1,-2.425267178E-1,3.667857929E-1
1.472098129E1,-2.597771734E-1,3.223186997E-1,-3.626536703E-1,5.503555292E-1
1.473100729E1,-2.194965819E-1,6.462833905E-1,-1.708182192E-1,7.035906724E-1
1.474103429E1,1.184061170E-3,8.074206671E-1,1.473463261E-1,8.207560390E-1
1.475106129E1,5.407396862E-1,5.781396469E-1,3.004872429E-1,8.467215852E-1
1.476108729E1,8.291404420E-1,3.721577346E-2,2.326618803E-1,8.619689304E-1
1.477111429E1,3.981974325E-1,-1.368254310E-1,7.531915426E-2,4.277328241E-1
1.478114129E1,-5.082165956E-2,-2.144173980E-3,-6.747745335E-2,8.450233887E-2
1.479116729E1,-2.142855433E-1,2.661652565E-2,1.769192040E-2,2.166558043E-1
1.480119429E1,-2.476941946E-1,-3.543412685E-4,2.529961574E-1,3.540615699E-1
1.481122129E1,-2.201698887E-1,-2.810405731E-2,3.672115749E-1,4.290791986E-1
1.482124829E1,-3.246280575E-1,-4.787173927E-2,3.771307915E-1,4.999027036E-1
1.483127429E1,-3.508221218E-1,-9.621008635E-2,2.076679569E-1,4.188776936E-1
1.484130129E1,-3.263965479E-1,-1.244474602E-1,-7.914791107E-3,3.494059540E-1
1.485132829E1,-3.976083255E-1,-1.565130061E-1,-7.574249268E-2,4.339650064E-1
1.486135429E1,-3.194070786E-1,-1.875298539E-1,-2.153529525E-3,3.703956880E-1
1.487138129E1,-1.758728448E-1,-1.143806013E-1,2.354287827E-1,3.153424983E-1
1.488140829E1,-1.611948717E-1,-6.124753743E-2,4.683368307E-1,4.990735763E-1
1.489143529E1,2.626072258E-2,-1.372683576E-1,5.794690114E-1,5.960843587E-1
1.490146129E1,2.222906739E-2,-1.493361336E-1,4.841471171E-1,5.071428233E-1
1.491148829E1,-1.586621502E-1,-1.677399525E-1,2.101483458E-1,3.122061768E-1
1.492151529E1,-3.241444927E-1,-1.820796642E-1,6.737805068E-2,3.778391959E-1
1.493154129E1,-3.639076057E-1,-1.404644457E-1,1.479252005E-1,4.171820597E-1
1.494156829E1,-2.837425715E-1,-2.434622723E-1,1.215033871E-1,3.931244052E-1
1.495159529E1,-2.641950372E-1,-2.991675264E-1,4.864532590E-2,4.020778460E-1
1.496162129E1,-2.091984656E-1,-2.223266342E-1,-7.496188939E-2,3.143444213E-1
1.497164829E1,-1.720338553E-2,-1.913568565E-1,-1.661544800E-1,2.540092798E-1
1.498167529E1,1.008703172E-1,-1.830175576E-1,-1.304823714E-1,2.463653720E-1
1.499170229E1,-5.960476220E-2,-1.221033114E-1,2.913375199E-2,1.389630233E-1
1.500172829E1,-1.697320989E-1,-1.078840524E-1,2.066493720E-1,2.883607412E-1
1.501175529E1,-3.515615022E-1,-1.085947815E-1,3.337198931E-1,4.967466995E-1
1.502178229E1,-4.713420072E-1,-1.861174589E-1,4.354070663E-1,6.681184848E-1
1.503180829E1,-4.770977139E-1,-2.555353108E-1,5.021144414E-1,7.382678619E-1
1.504183529E1,-4.374521300E-1,-2.427234766E-1,4.122146702E-1,6.482283444E-1
1.505186229E1,-2.919640490E-1,-1.667430022E-1,3.324984097E-1,4.728651258E-1
1.506188929E1,-2.190156484E-1,-1.073671585E-1,2.647169012E-1,3.599591626E-1
1.507191529E1,-1.960679582E-1,-8.755913079E-3,1.663965547E-1,2.573074497E-1
1.508194229E1,-5.564853609E-2,7.368105680E-2,-6.464798570E-2,1.127165461E-1
1.509196929E1,-7.137725383E-2,1.270845544E-1,-2.441766851E0,2.446113356E0
1.510199529E1,-6.679742217E-2,1.022809580E-1,-1.008006184E0,1.015381582E0
1.511202229E1,6.702049345E-2,-7.968877852E-2,1.351490343E-1,1.706086441E-1
1.512204929E1,2.167536530E-1,-7.659121603E-2,2.389072913E-1,3.315494749E-1
1.513207454E1,3.643049240E-1,-5.231650025E-2,9.833683562E-1,1.049984961E0
1.514210154E1,3.754312983E-1,3.053269833E-2,1.191862525E0,1.249966873E0
1.515212854E1,2.879060814E-1,2.229777217E-2,1.186416428E0,1.221053252E0
1.516215554E1,1.469042766E-1,-8.972055405E-2,7.505977178E-1,7.700828385E-1