"Time (s)","Linear Acceleration x (m/s^2)","Linear Acceleration y (m/s^2)","Linear Acceleration z (m/s^2)","Absolute acceleration (m/s^2)"
9.141166578E-3,6.948516794E-1,-1.418562584E0,-6.992351907E-1,1.727445661E0
1.916816668E-2,1.134687719E0,-1.745060581E0,-1.100173506E0,2.354386203E0
2.919616667E-2,1.080509612E0,-2.387017617E0,-2.160149742E0,3.395821113E0
3.922316665E-2,9.449487872E-1,-3.124538037E0,-2.957357955E0,4.404728394E0
4.925016663E-2,5.000629458E-1,-3.706752316E0,-3.621368349E0,5.206187127E0
5.927816662E-2,8.887504667E-1,-3.698463303E0,-4.095062399E0,5.589100486E0
6.930516660E-2,1.937640383E0,-3.669555253E0,-4.512447762E0,6.130438061E0
7.933216658E-2,1.445772310E0,-4.571232160E0,-5.471101692E0,7.274570417E0
8.936016657E-2,-1.199760944E-1,-5.808013580E0,-6.613531271E0,8.802625283E0
9.938716667E-2,-8.150141537E-1,-7.492724463E0,-6.728502733E0,1.010336167E1
1.094151667E-1,-7.233149019E-1,-8.484749622E0,-6.850653992E0,1.092911802E1
1.194421666E-1,-3.505312228E-1,-8.283172710E0,-6.139175316E0,1.031616672E1
1.294691666E-1,-1.659311748E0,-7.936837449E0,-4.902861089E0,9.475481572E0
1.394971666E-1,-4.123673410E0,-8.351974558E0,-5.169073123E0,1.065267470E1
1.495241666E-1,-5.693975918E0,-9.645294460E0,-6.073735617E0,1.274140225E1
1.595521666E-1,-6.185298153E0,-1.083569284E1,-6.300682429E0,1.397743724E1
1.695791667E-1,-6.392238716E0,-1.146366041E1,-5.993449253E0,1.442905610E1
1.796061667E-1,-6.528188235E0,-1.181171710E1,-5.557315378E0,1.459512441E1
1.896341667E-1,-6.438580239E0,-1.208546385E1,-5.165052577E0,1.463528340E1
1.996611666E-1,-6.169796600E0,-1.213258656E1,-5.231806730E0,1.458210713E1
2.096891666E-1,-6.053291413E0,-1.221474930E1,-4.626274924E0,1.439600142E1
2.197161666E-1,-5.105992776E0,-1.154622661E1,-2.862531612E0,1.294529252E1
2.297431666E-1,-3.133579586E0,-1.040230540E1,-1.195270574E0,1.092959059E1
2.397711666E-1,-1.062717996E0,-9.763132228E0,1.294292879E-1,9.821653240E0
2.497981667E-1,1.106157546E0,-9.674268583E0,1.082838850E0,9.797326018E0
2.598261667E-1,4.326579394E0,-9.421227987E0,2.394403673E0,1.064011255E1
2.698531667E-1,7.352955544E0,-8.981921997E0,4.777607882E0,1.255254616E1
2.798801666E-1,9.977029223E0,-8.526225092E0,7.501597028E0,1.511659963E1
2.899081666E-1,1.397704396E1,-6.657652606E0,9.735536878E0,1.828832345E1
2.999351666E-1,1.816087645E1,-3.180837368E0,1.052084601E1,2.122789110E1
3.099621666E-1,2.140464974E1,2.356615019E-1,8.987267522E0,2.321606221E1
3.199901666E-1,2.216756637E1,1.919105878E0,5.357169864E0,2.288631109E1
3.300171667E-1,2.036918269E1,2.117976115E0,1.412733495E0,2.052767016E1
3.400451667E-1,1.944302700E1,2.487550550E0,-6.477089417E-1,1.961220879E1
3.500721666E-1,1.925842456E1,3.091555647E0,-4.293780023E-1,1.950971548E1
3.600991666E-1,1.918835854E1,3.448090206E0,1.433466260E0,1.954833126E1
3.701271666E-1,1.964169083E1,3.268926841E0,2.503190097E0,2.006857897E1
3.801541666E-1,1.901606916E1,3.914180537E0,2.402163367E0,1.956277292E1
3.901821666E-1,1.765463504E1,4.925257679E0,1.105969850E0,1.836212055E1
4.002091666E-1,1.690793625E1,5.941741741E0,-2.244147626E0,1.806152822E1
4.102361667E-1,1.586717162E1,7.089978189E0,-4.021593888E0,1.783838960E1
4.202641667E-1,1.367229878E1,6.950625592E0,-6.996248492E0,1.685794895E1
4.302911666E-1,1.002959335E1,5.408620684E0,-1.154898065E1,1.622420644E1
4.403191666E-1,8.360861156E0,4.564651119E0,-1.161430340E1,1.502105464E1
4.503461666E-1,6.278853604E0,5.288985482E0,-6.802665308E0,1.066178340E1
4.603731666E-1,1.693818507E0,1.329769691E0,-5.953774141E0,6.331250673E0
4.704011666E-1,-2.051914857E0,-1.601967520E0,-5.547285649E0,6.127726543E0
4.804281667E-1,-3.713142153E0,-1.062678820E0,-2.750423239E0,4.741470122E0
4.904561667E-1,-2.483517140E0,1.977133062E0,7.748051906E-1,3.267603956E0
5.004831250E-1,5.701859719E-1,4.879125486E0,3.661149881E0,6.126581102E0
5.105101250E-1,3.781467453E0,4.537648092E0,3.508074453E0,6.869958709E0
5.205381250E-1,3.436523829E0,2.308007700E0,4.173217453E0,5.878123806E0
5.305651249E-1,-1.338634070E0,-1.118285256E0,5.288001981E0,5.568255385E0
5.405921249E-1,-6.206528224E0,-5.918376267E-1,6.501606792E0,9.007894052E0
5.506201249E-1,-9.334617859E0,-2.132400026E0,4.035058272E0,1.039056859E1
5.606471250E-1,-8.117054483E0,-1.201708066E0,2.147163076E0,8.481803171E0
5.706751250E-1,-6.044845694E0,1.053229135E0,1.559782197E0,6.331064017E0
5.807021250E-1,-3.597596494E0,6.469897342E-1,1.168409343E0,3.837509172E0
5.907291250E-1,-2.343630107E0,3.055222803E-1,4.819099724E-1,2.412091036E0
6.007571250E-1,-1.862610081E0,7.981157005E-1,-8.598786700E-1,2.201294236E0
6.107841249E-1,-1.528805403E0,3.582846308E-1,-7.467268610E-1,1.738739441E0
6.208121249E-1,-1.367722213E0,-4.666329521E-1,-6.264730239E-1,1.575080574E0
6.308391250E-1,-2.823293579E0,-1.764016085E0,-6.177992642E-1,3.385914251E0
6.408661250E-1,-3.080312036E0,-1.919920980E0,1.231145289E0,3.832771521E0
6.508941250E-1,-2.642043343E0,-4.262298614E-1,7.193910547E-1,2.771207031E0
6.609211250E-1,-9.250745398E-1,-8.378066003E-2,-3.630291346E-1,9.972824353E-1
6.709491250E-1,1.209615841E0,-6.117959279E-1,-2.867099603E-1,1.385520603E0
6.809761249E-1,1.693985737E0,-1.707433748E-1,5.529092769E-1,1.790097664E0
6.910031249E-1,1.495311967E0,-2.513063121E-1,9.814270806E-1,1.806187104E0
7.010311249E-1,-5.015449226E-2,-1.061906987E-1,5.312663928E-1,5.440918284E-1
7.110581250E-1,-9.328548449E-1,9.272748470E-2,1.185276660E-1,9.449155284E-1
7.210861250E-1,-1.434547117E0,6.695488769E-1,-3.602615744E-4,1.583104943E0
7.311131250E-1,-2.004785129E0,1.407192673E0,2.434242288E-1,2.461424382E0
7.411401250E-1,-2.513768295E0,2.252555630E0,8.627812278E-1,3.483881364E0
7.511681250E-1,-2.594625640E0,3.038659980E0,1.438880489E0,4.246871054E0
7.611951249E-1,-2.013632844E0,3.792605814E0,1.599179567E0,4.582133933E0
7.712221249E-1,-7.412503588E-1,4.101347571E0,1.766906948E0,4.526860298E0
7.812501249E-1,8.656557190E-1,4.878747756E0,2.527160392E-1,4.961391426E0
7.912771250E-1,1.826334540E0,5.831916413E0,-2.915545685E0,6.771052617E0
8.013051250E-1,1.304009197E0,6.925417660E0,-9.042455882E-1,7.104893373E0
8.113321250E-1,-3.027843216E-1,6.907940918E0,1.991491485E0,7.195648991E0
8.213591250E-1,-5.757256240E-1,6.359648675E0,3.468073651E0,7.266644763E0
8.313871250E-1,-5.788831204E-1,5.468255852E0,2.291776999E0,5.957278703E0
8.414141249E-1,-1.271718534E0,4.416536468E0,-1.837305086E0,4.949621438E0
8.514421249E-1,-1.738806399E0,4.070913398E0,-4.487158554E0,6.303203589E0
8.614691249E-1,-2.790563205E0,4.271881616E0,-3.295912326E0,6.074475582E0
8.714961250E-1,-3.299430888E0,4.185679039E0,-2.002733341E0,5.693601148E0
8.815241250E-1,-2.991658307E0,4.385501786E0,-8.135886025E-1,5.370714269E0
8.915511250E-1,-7.174191543E-1,-6.005441308E-2,7.265054351E-1,1.022793685E0
9.015791250E-1,2.493842738E0,-2.182704090E1,1.751538126E0,2.203875795E1
9.116061250E-1,-2.248935619E0,-3.802591221E1,-3.265868747E-1,3.809375762E1
9.216331249E-1,-8.314286037E-1,-3.896784719E1,-2.342495162E0,3.904704435E1
9.316611249E-1,7.347067398E0,-2.149448870E1,-4.961464223E0,2.325099075E1
9.416881250E-1,1.257614114E1,-6.147415797E0,-4.754697322E0,1.478367997E1
9.517151250E-1,1.079655041E1,3.885065496E-2,-5.031688113E0,1.191154463E1
9.617431250E-1,7.706710922E0,2.530805327E0,-4.317853010E0,9.189244988E0
9.717701250E-1,-1.280970583E0,4.099225616E0,-3.149847125E0,5.325980961E0
9.817981250E-1,-8.102998361E0,3.434591324E0,-4.025253661E0,9.677689137E0
9.918251249E-1,-8.206262528E0,2.352372279E0,-4.027217156E0,9.439008319E0
1.001852125E0,-6.649898613E0,1.333739365E0,-3.714298732E0,7.732789104E0
1.011880125E0,-3.663095834E0,9.874193072E-2,-3.895066574E0,5.347856082E0
1.021907125E0,-9.355340391E-2,-1.763986849E0,-4.770629815E0,5.087171186E0
1.031935125E0,1.017317875E0,-3.971207846E0,-5.490467670E0,6.852055360E0
1.041962125E0,-6.796113503E-1,-5.463642399E0,-3.880864856E0,6.736050169E0
1.051989125E0,-1.753840468E0,-6.085815965E0,-2.931970806E-1,6.340274195E0
1.062017125E0,-2.794276772E0,-4.828693836E0,-1.339902331E0,5.737560901E0
1.072044125E0,-3.104487934E0,-2.646959682E0,-7.714579520E-1,4.152034232E0
1.082072125E0,-2.780789584E0,-1.537741703E0,2.303793904E0,3.924908484E0
1.092099125E0,-2.254618528E0,-1.173566002E0,4.718127081E0,5.359224293E0
1.102126125E0,-1.503353204E0,-9.550099450E-1,5.102986722E0,5.404867097E0
1.112154125E0,-8.552693099E-1,-7.505497706E-1,3.634438630E0,3.808405796E0
1.122181125E0,-5.133836339E-1,-7.968801838E-1,1.875451443E0,2.101404031E0
1.132209125E0,-2.010427693E-1,-6.909865236E-1,3.364955664E-1,7.944242173E-1
1.142236125E0,3.462300110E-1,1.951578391E-1,-1.011410433E-1,4.101113426E-1
1.152263125E0,7.090228450E-1,9.515758753E-1,-3.114314765E-1,1.226865765E0
1.162291125E0,1.120771492E0,1.462545925E0,-1.598570287E-2,1.842667865E0
1.172318125E0,1.473095033E0,1.625041217E0,2.464075148E-2,2.193484693E0
1.182345125E0,1.836664231E0,1.785611022E0,5.149549270E-1,2.612837690E0
1.192373125E0,1.865865664E0,1.764266346E0,1.221786820E0,2.843739343E0
1.202400125E0,1.547253661E0,1.632712179E0,1.276878117E0,2.586534492E0
1.212428125E0,1.205921862E0,1.467220774E0,1.093305074E0,2.191415141E0
1.222455125E0,6.893560275E-1,1.398548149E0,9.659924778E-1,1.834200133E0
1.232482125E0,3.017376700E-1,1.573891529E0,1.006309907E0,1.892310702E0
1.242510125E0,3.189010021E-1,1.881472029E0,1.037886041E0,2.172289640E0
1.252537125E0,2.093969786E-1,2.053650311E0,1.046939870E0,2.314607911E0
1.262565125E0,-1.425109711E-1,2.188353787E0,9.127679050E-1,2.375362482E0
1.272592125E0,-5.615677607E-1,2.395651031E0,7.609736019E-1,2.575574311E0
1.282619125E0,-7.638605185E-1,2.539659181E0,6.229486147E-1,2.724227712E0
1.292647125E0,-9.218541858E-1,2.600468470E0,4.518359882E-1,2.795783819E0
1.302674125E0,-1.074549399E0,2.628893539E0,3.775971070E-1,2.865016095E0
1.312702125E0,-1.015447497E0,2.654685023E0,2.877482066E-1,2.856796321E0
1.322729125E0,-7.617942587E-1,2.688376679E0,9.091250896E-2,2.795704696E0
1.332756125E0,-5.550969395E-1,2.705556384E0,-1.317874700E-1,2.765056219E0
1.342784125E0,-5.929681858E-1,2.577822788E0,-1.798264396E-1,2.651248601E0
1.352811125E0,-6.300887959E-1,2.417054763E0,-2.154555711E-1,2.507107242E0
1.362838125E0,-4.982988408E-1,2.163396701E0,-1.565100825E-1,2.225552162E0
1.372866125E0,-3.278444646E-1,1.933453776E0,6.336715311E-2,1.962075660E0
1.382893125E0,-3.667578310E-1,1.710013540E0,1.151837164E-1,1.752690760E0
1.392921125E0,-4.906533140E-1,1.423637967E0,-1.525070786E-2,1.505894525E0
1.402948125E0,-5.206834441E-1,1.063529590E0,-3.031670219E-1,1.222340656E0
1.412975125E0,-5.321855021E-1,7.621851450E-1,-6.806802213E-1,1.152160218E0
1.423003125E0,-5.712644908E-1,7.114892006E-1,-1.036603746E0,1.380980568E0
1.433030125E0,-7.313127235E-1,7.922725779E-1,-1.513887402E0,1.858593340E0
1.443058125E0,-1.104261879E0,8.942930424E-1,-2.066145226E0,2.507610503E0
1.453085125E0,-1.537385607E0,8.397098690E-1,-2.380926572E0,2.955922616E0
1.463112125E0,-1.725350786E0,7.177679408E-1,-2.464286233E0,3.092690219E0
1.473140125E0,-1.937831587E0,7.032440418E-1,-2.578137369E0,3.300990114E0
1.483167125E0,-2.055904997E0,6.859889084E-1,-2.710519793E0,3.470481766E0
1.493194125E0,-2.021167274E0,7.198132968E-1,-3.013978298E0,3.699636943E0
1.503222542E0,-1.818913838E0,8.214928687E-1,-3.207134051E0,3.777433905E0
1.513249542E0,-1.622345358E0,1.049268816E0,-3.105983067E0,3.657881945E0
1.523277542E0,-1.561560336E0,1.365558743E0,-3.008766675E0,3.654572242E0
1.533304542E0,-1.644137054E0,1.503326161E0,-3.142323512E0,3.851931107E0
1.543331542E0,-2.134481050E0,1.215703377E0,-3.371938701E0,4.171799930E0
1.553359542E0,-2.798404613E0,3.179563844E-1,-2.801822603E0,3.972703682E0
1.563386542E0,-3.193626690E0,-1.217830009E0,-2.266885402E0,4.101357189E0
1.573414542E0,-3.034165810E0,-2.729819990E0,-1.008456127E0,4.204172107E0
1.583441542E0,-2.047369670E0,-3.115849659E0,3.314219373E-1,3.743004430E0
1.593468542E0,-5.214216551E-1,-2.843761758E0,-8.495045400E-1,3.013390025E0
1.603496542E0,8.232993659E-1,-2.425056678E0,-2.904189223E0,3.872084294E0
1.613523542E0,1.310502384E0,-1.905663130E0,-1.866715996E0,2.972136785E0
1.623551542E0,9.071433221E-1,-8.205514669E-2,1.505405138E0,1.759513195E0
1.633578542E0,1.619434614E-1,2.739645066E0,4.714160037E0,5.454831403E0
1.643605542E0,-1.236223742E0,4.639234693E0,6.136855141E0,7.791773784E0
1.653633542E0,-2.508557256E0,5.185073444E0,5.086260177E0,7.684262405E0
1.663660542E0,-2.961773772E0,4.289737843E0,3.704692049E0,6.395208974E0
1.673687542E0,-3.003441616E0,2.569143766E0,3.446617585E0,5.244076087E0
1.683715542E0,-2.429269889E0,1.203055850E0,3.733374689E0,4.613760087E0
1.693742542E0,-1.564856704E0,1.948491061E-1,4.095033163E0,4.388170380E0
1.703770542E0,-8.780076697E-1,-5.888152009E-1,4.154077762E0,4.286486074E0
1.713797542E0,-4.684814031E-1,-1.298982346E0,3.675110985E0,3.925973856E0
1.723824542E0,1.135675460E-2,-1.725813886E0,2.963522674E0,3.429435695E0
1.733852542E0,6.705702393E-1,-1.956357320E0,2.072011445E0,2.927495489E0
1.743879542E0,1.325263534E0,-2.033813047E0,2.141381642E0,3.237010083E0
1.753907542E0,2.007598956E0,-2.237967412E0,3.110185461E0,4.325760662E0
1.763934542E0,3.018951355E0,-2.584468149E0,3.219509683E0,5.114566012E0
1.773961542E0,4.087142345E0,-2.912067177E0,2.838089958E0,5.765381375E0
1.783989542E0,4.203099064E0,-2.975908247E0,2.568733292E0,5.755037998E0
1.794016542E0,3.274343702E0,-2.309254911E0,2.688168519E0,4.824959575E0
1.804044542E0,2.113029809E0,-4.567529118E-1,1.033684816E0,2.396251760E0
1.814071542E0,1.257956381E0,5.956324697E-1,-6.223391886E-1,1.524643683E0
1.824098542E0,8.418438104E-1,6.823876083E-1,-5.906670141E-1,1.234196650E0
1.834126542E0,9.335635275E-1,7.183947623E-1,-1.421224236E-1,1.186520408E0
1.844153542E0,9.590876471E-1,7.249383813E-1,1.484386591E-1,1.211370632E0
1.854181542E0,5.565349160E-1,7.964726329E-1,3.083469971E-1,1.019400627E0
1.864208542E0,3.042702453E-1,1.207294496E0,4.774836302E-2,1.245961592E0
1.874235542E0,1.099590392E0,1.790349605E0,-1.910297231E-1,2.109725834E0
1.884263542E0,1.192878771E0,1.662246466E0,1.171770322E-1,2.049330020E0
1.894290542E0,-4.430479154E-2,1.179020870E0,-2.776170101E-1,1.212074391E0
1.904317542E0,-3.691863258E-1,1.156354723E0,-9.537434381E-1,1.543723205E0
1.914345542E0,-4.068228064E-1,1.066415191E0,-1.193243052E0,1.651234428E0
1.924372542E0,-4.239747365E-1,9.189799869E-1,-1.322073001E0,1.664979223E0
1.934400542E0,-2.821724479E-1,8.219700015E-1,-1.609230346E0,1.828900839E0
1.944427542E0,-2.653962015E-1,9.294231141E-1,-1.943510402E0,2.170597879E0
1.954454542E0,-2.322100367E-1,1.075939136E0,-2.204936491E0,2.464408946E0
1.964482542E0,1.709414493E-1,1.258653515E0,-2.244990503E0,2.579420867E0
1.974509542E0,5.629687536E-1,1.219572480E0,-2.180996236E0,2.561451821E0
1.984537542E0,8.444386585E-1,9.483663386E-1,-1.902709116E0,2.287526468E0
1.994564542E0,1.384435748E0,6.286271381E-1,-1.384608972E0,2.056447526E0
2.004591542E0,1.851474205E0,2.800319284E-1,-9.407444930E-1,2.095560740E0
2.014619542E0,2.012895071E0,-1.719332832E-1,-6.497748361E-1,2.122148666E0
2.024646542E0,2.180329068E0,-5.971895832E-1,-6.666306777E-1,2.356876472E0
2.034673542E0,2.467207502E0,-6.726420540E-1,-1.032555280E0,2.757848907E0
2.044701542E0,2.278795595E0,-5.613484901E-1,-1.620750092E0,2.852166256E0
2.054728542E0,1.921621789E0,-6.395193315E-1,-2.517607577E0,3.231093188E0
2.064756542E0,1.952711727E0,-1.233425118E0,-3.434118285E0,4.138549142E0
2.074783542E0,1.829701074E0,-2.246341794E0,-3.998306767E0,4.937642604E0
2.084810542E0,1.659389662E0,-3.288456541E0,-4.339481860E0,5.691978856E0
2.094838542E0,1.940409916E0,-4.004842200E0,-4.677070271E0,6.455922708E0
2.104865542E0,2.379999935E0,-4.556600672E0,-5.356213844E0,7.424017519E0
2.114893542E0,2.623164437E0,-4.793338062E0,-6.123256856E0,8.206787189E0
2.124920542E0,2.727301886E0,-4.516958304E0,-6.718661284E0,8.542920891E0
2.134947542E0,2.605111451E0,-4.480137218E0,-6.879379023E0,8.613018687E0
2.144975542E0,2.478955142E0,-4.821755530E0,-6.568980750E0,8.517397083E0
2.155002542E0,2.301694169E0,-5.445945216E0,-6.856712877E0,9.053763130E0
2.165030542E0,2.188352325E0,-5.833325007E0,-7.263178564E0,9.569238705E0
2.175057542E0,1.975484586E0,-5.065908943E0,-7.110896603E0,8.951582166E0
2.185084542E0,1.246562642E0,-3.318068011E0,-7.026510172E0,7.869900822E0
2.195112542E0,6.593292595E-1,-1.555987355E0,-7.414457143E0,7.604602977E0
2.205139542E0,1.867083201E-1,-1.150275958E0,-8.122515197E0,8.205683878E0
2.215166542E0,-1.890500715E0,-1.851289871E0,-7.043029726E0,7.523664988E0
2.225194542E0,-2.059057523E0,-2.980584265E0,-2.388664777E0,4.339276422E0
2.235221542E0,-8.351005089E-1,-3.818262811E0,2.339896660E0,4.555396814E0
2.245249542E0,-3.317373946E-1,-4.828151799E0,4.985767590E0,6.948307560E0
2.255276542E0,-2.656072859E-1,-5.945511441E0,6.288566998E0,8.658275141E0
2.265303542E0,-1.663420440E0,-6.548520173E0,6.157588198E0,9.141442798E0
2.275331542E0,-3.337093681E0,-6.872129061E0,5.170622635E0,9.224840947E0
2.285358542E0,-3.407243020E0,-6.360684802E0,4.002699780E0,8.251619337E0
2.295386542E0,-2.912382049E0,-5.027675754E0,2.673497854E0,6.395864560E0
2.305413542E0,-2.983590903E0,-4.111055703E0,9.515209115E-1,5.167976946E0
2.315440542E0,-2.403900282E0,-3.762643511E0,-1.429733982E0,4.688321877E0
2.325468542E0,-2.213186912E0,-3.526798407E0,-1.040060620E0,4.291646468E0
2.335495542E0,-2.238307281E0,-2.519434832E0,1.858441601E0,3.848555124E0
2.345522542E0,-2.371314627E0,-6.807965809E-1,4.123429581E0,4.805131481E0
2.355550542E0,-2.420995202E0,2.304212272E-1,6.056403301E0,6.526433379E0
2.365577542E0,-6.044255126E-1,2.797828370E-1,7.321994537E0,7.352225013E0
2.375605542E0,9.808202858E-1,2.724486744E-1,4.898219861E0,5.002878623E0
2.385632542E0,7.434197489E-1,3.200999737E-1,2.505945305E0,2.633419600E0
2.395659542E0,1.388191269E0,1.136190015E0,2.966387518E0,3.466620495E0
2.405687542E0,3.673457977E0,1.747835670E0,4.791724815E0,6.285686099E0
2.415714542E0,4.677407363E0,1.542626467E0,5.783127830E0,7.596209815E0
2.425742542E0,3.749555689E0,1.549639032E0,5.543086764E0,6.869232844E0
2.435769542E0,2.745426208E0,2.013785748E0,5.982618456E0,6.883634338E0
2.445796542E0,1.514389239E0,2.694839022E0,7.114215483E0,7.756777299E0
2.455824542E0,-3.423210011E-1,3.631246635E0,7.854896323E0,8.660400224E0
2.465851542E0,-1.825307915E0,4.725286996E0,8.522953575E0,9.914677192E0
2.475879542E0,-3.089989763E0,5.879360136E0,8.796409725E0,1.102232899E1
2.485906542E0,-3.370899943E0,6.462678954E0,8.260760332E0,1.101677571E1
2.495933542E0,-2.745419776E0,6.415845680E0,7.907838768E0,1.054676820E1
2.505961292E0,-2.245631650E0,6.473540742E0,7.053316147E0,9.833557846E0
2.515988292E0,-1.470451799E0,6.389675297E0,5.788158190E0,8.746025047E0
2.526015292E0,-8.932170086E-1,5.909717125E0,4.720644892E0,7.616238003E0
2.536043292E0,-4.777863698E-1,5.372583125E0,3.732775349E0,6.559461948E0
2.546070292E0,-8.029118791E-2,5.198607409E0,3.030286183E0,6.017856763E0
2.556098292E0,1.948337571E-1,4.904010651E0,1.959272449E0,5.284508415E0
2.566125292E0,8.282309076E-1,4.165455859E0,8.976072443E-1,4.340816480E0
2.576152292E0,8.986046331E-1,3.165145195E0,-5.966753206E-1,3.343898299E0
2.586180292E0,3.936854285E-1,1.753147280E0,-2.704225265E0,3.246744198E0
2.596207292E0,-2.446593435E-1,-2.258913893E-1,-5.393057150E0,5.403327728E0
2.606235292E0,-2.241727610E0,-3.081893708E0,-7.632733703E0,8.531238790E0
2.616262292E0,-4.236576127E0,-5.903038436E0,-9.106671174E0,1.165014592E1
2.626289292E0,-4.055979609E0,-7.804296273E0,-9.796874755E0,1.316574213E1
2.636317292E0,-2.900525358E0,-8.526999264E0,-9.427929481E0,1.303873529E1
2.646344292E0,-1.516008918E0,-7.346784977E0,-8.730492893E0,1.151064893E1
2.656371292E0,-9.902541836E-1,-4.494899683E0,-7.282557991E0,8.615124921E0
2.666399292E0,-1.694770872E0,-1.289174811E0,-5.877114805E0,6.250975798E0
2.676426292E0,-2.554122269E0,1.029925057E0,-4.734172133E0,5.476921761E0
2.686454292E0,-4.482483413E0,9.344745237E-1,-4.285057147E0,6.271173330E0
2.696481292E0,-5.766231131E0,-9.691888583E-1,-4.010342091E0,7.090246271E0
2.706508292E0,-6.002557461E0,-2.484590689E0,-3.327800117E0,7.299187666E0
2.716536292E0,-4.265543818E0,-3.624696000E0,4.229951817E-1,5.613573735E0
2.726563292E0,-1.390599006E0,-3.220144690E0,8.139140586E0,8.862770836E0
2.736591292E0,-1.811069798E0,-1.529504145E0,1.221413651E1,1.244204515E1
2.746618292E0,-1.501858510E0,-4.508729517E-2,8.460766683E0,8.593147544E0
2.756645292E0,-5.526057333E-2,7.405785137E-1,5.522363062E0,5.572073587E0
2.766673292E0,1.094497321E0,1.818586979E0,7.042294731E0,7.355208906E0
2.776700292E0,6.727291775E-1,2.731575909E0,8.206536763E0,8.675328070E0
2.786728292E0,-1.123359762E-1,2.758186002E0,7.391884552E0,7.890511176E0
2.796755292E0,-1.108361800E0,2.181392677E0,6.941362433E0,7.359989967E0
2.806782292E0,-2.565882482E0,9.194998044E-1,7.162279011E0,7.663385246E0
2.816810292E0,-2.678494008E0,-1.695107818E-3,7.723594172E0,8.174854125E0
2.826837292E0,-2.329332788E0,-6.820022768E-1,8.030567147E0,8.389334124E0
2.836864292E0,-1.571155617E0,-1.292044625E0,7.881069045E0,8.139358610E0
2.846892292E0,-5.596336479E-1,-2.405639829E0,6.603185792E0,7.049989745E0
2.856919292E0,1.237922797E-1,-3.861155062E0,4.385097159E0,5.844049969E0
2.866947292E0,8.138987973E-1,-5.106645910E0,3.148809829E0,6.054359341E0
2.876974292E0,2.283783416E0,-5.466321008E0,2.588043137E0,6.464851068E0
2.887001292E0,3.907029100E0,-4.653135279E0,2.476358979E0,6.561165910E0
2.897029292E0,4.762779635E0,-2.503963684E0,2.799911149E0,6.065756872E0
2.907056292E0,3.743725430E0,-8.509160578E-2,2.269770856E0,4.378878899E0
2.917084292E0,2.443960288E0,1.557771925E0,-9.988552916E-1,3.065502757E0
2.927111292E0,2.298223700E0,2.242994263E0,-2.786725677E0,4.251904919E0
2.937138292E0,2.733576826E0,1.765121793E0,-2.788403828E0,4.285241314E0
2.947166292E0,2.977255445E0,1.227486686E0,-3.190155491E0,4.532975359E0
2.957193292E0,2.603423653E0,8.040056008E-1,-2.225843210E0,3.518325982E0
2.967220292E0,1.540903000E0,8.397484607E-1,-4.925291008E-1,1.822675080E0
2.977248292E0,6.380234675E-1,1.443778117E0,4.826303494E-1,1.650606328E0
2.987275292E0,2.243078171E-1,1.920210418E0,3.944058055E-1,1.973088438E0
2.997303292E0,-2.066514916E-1,2.008233817E0,-4.960181709E-1,2.078879970E0
3.007330292E0,1.546177042E-1,2.097734224E0,-6.529487778E-1,2.202439015E0
3.017357292E0,1.229036491E-1,2.276291817E0,-7.483301675E-1,2.399293184E0
3.027385292E0,-3.301329187E-1,2.497715934E0,-1.295750005E0,2.833115018E0
3.037412292E0,-7.729549854E-1,2.197619870E0,-2.151321616E0,3.170989940E0
3.047440292E0,-1.006758973E0,1.753995126E0,-3.056096962E0,3.664667949E0
3.057467292E0,-7.996235512E-1,1.238620954E0,-3.589268889E0,3.880261699E0
3.067494292E0,-2.412913473E-1,4.270952493E-1,-3.456781508E0,3.491413791E0
3.077522292E0,5.727474909E-1,-2.838945991E-1,-2.809149749E0,2.880964794E0
3.087549292E0,1.489664726E0,-8.820244145E-1,-1.991067123E0,2.638449612E0
3.097576292E0,1.687690771E0,-1.700339321E0,-1.579690944E0,2.869647613E0
3.107604292E0,1.847496490E0,-2.550050268E0,-2.362196771E0,3.936492504E0
3.117631292E0,2.408250172E0,-2.797654123E0,-4.192993906E0,5.586388402E0
3.127659292E0,3.006616069E0,-2.684930331E0,-6.047251239E0,7.267588225E0
3.137686292E0,3.556472734E0,-2.829804454E0,-6.987071287E0,8.335193862E0
3.147713292E0,3.941399618E0,-3.221153920E0,-6.715329541E0,8.426512586E0
3.157741292E0,4.374231278E0,-3.596137029E0,-6.045315226E0,8.283232279E0
3.167768292E0,5.104173707E0,-4.133771551E0,-5.952533947E0,8.864159117E0
3.177796292E0,5.416136695E0,-4.373193982E0,-6.460467537E0,9.497210280E0
3.187823292E0,4.880470930E0,-4.104121490E0,-6.547913817E0,9.139911655E0
3.197850292E0,3.550052199E0,-3.720355278E0,-7.003214280E0,8.688436238E0
3.207878292E0,2.380194647E0,-3.464422064E0,-7.843734573E0,8.898972910E0
3.217905292E0,1.627348090E0,-3.469539548E0,-7.815166247E0,8.704182325E0
3.227932292E0,1.731642975E0,-3.728601606E0,-5.733838726E0,7.055350017E0
3.237960292E0,2.036635498E0,-3.283699247E0,-4.531631307E0,5.955354498E0
3.247987292E0,1.827773101E0,-3.121272951E0,-6.137026464E0,7.123636232E0
3.258015292E0,8.990243170E-1,-3.940843256E0,-5.535276053E0,6.854033212E0
3.268042292E0,4.716486937E-1,-4.669000529E0,-1.029563699E0,4.804375073E0
3.278069292E0,6.296862151E-1,-5.148517821E0,1.453949933E0,5.386808971E0
3.288097292E0,9.014874566E-1,-5.358283174E0,3.665877939E0,6.554581548E0
3.298124292E0,3.004869506E-2,-5.454299718E0,5.986409791E0,8.098604232E0
3.308152292E0,-1.872535145E0,-5.937008420E0,6.241883998E0,8.815643634E0
3.318179292E0,-3.794366410E0,-6.613949931E0,5.242382004E0,9.253330170E0
3.328206292E0,-5.170723792E0,-6.890143747E0,4.149267257E0,9.561740645E0
3.338234292E0,-6.490968953E0,-6.569317549E0,2.123083073E0,9.476080031E0
3.348261292E0,-6.599784467E0,-5.608804790E0,-1.191002107E0,8.742673058E0
3.358288292E0,-5.740117466E0,-4.048504529E0,-2.667772261E0,7.513743826E0
3.368316292E0,-5.897612804E0,-3.432265887E0,-1.587515541E0,7.005889772E0
3.378343292E0,-5.102870362E0,-2.965268653E0,1.198913390E0,6.022416246E0
3.388371292E0,-2.535182553E0,-1.720171908E0,4.126599357E0,5.139549029E0
3.398398292E0,-1.782452502E0,-8.815121984E-1,4.327280183E0,4.762305582E0
3.408425292E0,-2.917448662E0,2.224695987E-1,3.982183947E0,4.941537049E0
3.418453292E0,-2.037651890E0,1.357804166E0,4.562660434E0,5.178178021E0
3.428480292E0,-3.511706159E-1,1.205291240E0,4.046120034E0,4.236405919E0
3.438508292E0,8.191972518E-1,5.388372946E-1,4.822308676E0,4.920984732E0
3.448535292E0,1.515300528E0,6.336101353E-2,4.119684147E0,4.389982663E0
3.458562292E0,2.483836398E0,3.817775738E-1,4.993241501E0,5.589960470E0
3.468590292E0,2.767867530E0,1.079494243E0,5.887830997E0,6.594918675E0
3.478617292E0,2.278984314E0,1.903462238E0,6.091616988E0,6.776779140E0
3.488644292E0,2.525716203E0,2.621261753E0,6.460882105E0,7.415743596E0
3.498672292E0,2.113274661E0,3.372432498E0,7.062988611E0,8.107098055E0
3.508699917E0,8.759193367E-1,4.448244749E0,7.532781984E0,8.791866721E0
3.518727917E0,3.227604568E-2,4.870752858E0,8.245725971E0,9.576913487E0
3.528754917E0,-1.215090223E0,5.431487975E0,7.808897447E0,9.589389199E0
3.538781917E0,-2.045272712E0,5.900000807E0,7.513385015E0,9.769549855E0
3.548809917E0,-2.950610560E0,6.190872889E0,8.008407953E0,1.054360506E1
3.558836917E0,-3.562154181E0,6.614562135E0,7.851482134E0,1.086679099E1
3.568864917E0,-3.840662325E0,6.955773481E0,7.096520639E0,1.065335989E1
3.578891917E0,-3.524012793E0,6.840140113E0,6.406424062E0,1.001241490E1
3.588918917E0,-3.296635334E0,6.186051859E0,5.679773031E0,9.021910209E0
3.598946917E0,-3.059449171E0,5.644920702E0,4.907617798E0,8.081464683E0
3.608973917E0,-2.396785098E0,5.048312332E0,3.375828854E0,6.528878668E0
3.619000917E0,-1.312285493E0,4.291183859E0,1.414321306E0,4.704960880E0
3.629028917E0,-4.526342793E-1,2.951140611E0,-9.488449332E-1,3.132796738E0
3.639055917E0,4.521629937E-1,1.027920046E0,-4.262002160E0,4.407463375E0
3.649083917E0,1.138258906E0,-1.726033157E0,-8.484901650E0,8.733176959E0
3.659110917E0,-2.527438501E-1,-5.781757827E0,-1.115789197E1,1.256945330E1
3.669137917E0,-7.346709256E-1,-9.308900635E0,-1.173475604E1,1.499666202E1
3.679165917E0,3.375274538E-1,-1.031900948E1,-1.239178895E1,1.612923789E1
3.689192917E0,3.255095252E-1,-8.432661456E0,-1.150891085E1,1.427132666E1
3.699220917E0,-8.303402907E-1,-4.531918990E0,-9.030946807E0,1.013833098E1
3.709247917E0,-1.535238510E0,-6.257731122E-1,-6.103875675E0,6.325017591E0
3.719274917E0,-1.283752834E0,2.158730623E0,-3.773494189E0,4.532923741E0
3.729302917E0,-9.610640059E-1,3.661056910E0,-2.866227637E0,4.747867162E0
3.739329917E0,-5.629658300E-1,3.286974857E0,-4.731012590E0,5.788230676E0
3.749356917E0,2.289486060E-1,1.042179651E0,-4.668130463E0,4.788527740E0
3.759384917E0,6.443856767E-1,-1.763157129E0,1.079502721E0,2.165475025E0
3.769411917E0,-5.901343328E-1,-2.855369065E0,7.521541881E0,8.066906675E0
3.779439917E0,-2.074450903E0,-1.635036448E0,1.339392453E1,1.365188284E1
3.789466917E0,-4.173741071E0,-1.732501931E0,1.112267536E1,1.200564803E1
3.799493917E0,-5.617534683E0,-2.776432824E0,6.595103186E0,9.097288671E0
3.809521917E0,-4.737326121E0,-4.427501167E0,-3.530838248E-1,6.493819642E0
3.819548917E0,-4.462926523E0,-4.400259574E0,2.912381172E0,6.911002935E0
3.829576917E0,-4.267056493E0,-7.257178152E-1,5.927019036E0,7.339209230E0
3.839603917E0,-2.697887760E0,1.514697241E0,6.427583966E0,7.133494357E0
3.849630917E0,-2.106838923E0,1.444055275E0,7.800530666E0,8.208065823E0
3.859658917E0,-2.281407546E0,1.247648470E0,7.235211332E0,7.688285252E0
3.869685917E0,-2.006886180E0,1.128148924E0,6.558644042E0,6.950980061E0
3.879712917E0,-1.841600158E0,3.912781298E-1,6.829855446E0,7.084597033E0
3.889740917E0,-1.494626089E0,-6.950462455E-1,6.805832745E0,7.002596360E0
3.899767917E0,-7.174872744E-1,-2.236685702E0,6.428608983E0,6.844308904E0
3.909795917E0,1.101935637E0,-4.456681112E0,6.308865023E0,7.802438501E0
3.919822917E0,3.039282709E0,-5.979002538E0,5.012561871E0,8.373260251E0
3.929849917E0,4.309802563E0,-5.735275387E0,3.954212329E0,8.191677303E0
3.939877917E0,4.926006707E0,-2.540414057E0,5.207067161E0,7.604787576E0
3.949904917E0,2.960503172E0,3.023653686E-1,5.386912311E0,6.154252847E0
3.959932917E0,1.499418321E0,1.486425369E0,3.883694909E0,4.420497915E0
3.969959917E0,1.510448216E0,2.200524766E0,2.012765994E0,3.342901435E0
3.979986917E0,1.477044973E0,2.700499712E0,-6.478082274E0,7.172162191E0
3.990014917E0,1.350944505E0,1.711219820E0,-8.048235093E0,8.338309928E0
4.000041917E0,1.904805343E0,7.968667352E-1,-4.891380665E0,5.309320559E0
4.010069917E0,2.353430333E0,4.847347623E-1,-2.455323036E0,3.435434955E0
4.020096917E0,1.755246869E0,8.627005363E-1,-3.495196180E-1,1.986783267E0
4.030123917E0,6.886200824E-1,1.427550924E0,4.792986059E-1,1.655846132E0
4.040151917E0,4.945722641E-1,1.689795038E0,4.677398300E-1,1.821754523E0
4.050178917E0,4.016755025E-1,1.707234943E0,1.225652506E-1,1.758128721E0
4.060205917E0,5.471488193E-2,1.631349193E0,-6.250995129E-1,1.747868219E0
4.070233917E0,-2.429578038E-1,1.739381765E0,-1.303102879E0,2.186905241E0
4.080260917E0,-3.246715461E-1,1.899703063E0,-1.684118561E0,2.559402013E0
4.090288917E0,-4.477723195E-1,1.837008047E0,-1.910066668E0,2.687648283E0
4.100315917E0,-2.585597831E-1,1.592892641E0,-1.941290799E0,2.524434609E0
4.110342917E0,3.179996538E-1,1.082235417E0,-1.677650955E0,2.021600852E0
4.120370917E0,8.015069394E-1,3.237112141E-1,-1.260546259E0,1.528456474E0
4.130397917E0,1.387162451E0,-3.761864662E-1,-8.677086765E-1,1.678884829E0
4.140424917E0,1.811237467E0,-7.889250469E-1,-7.861215263E-1,2.126257498E0
4.150452917E0,1.893081237E0,-8.029817533E-1,-1.161516645E0,2.361706413E0
4.160479917E0,1.835809660E0,-8.024098957E-1,-2.114187704E0,2.912704653E0
4.170507917E0,1.492138976E0,-9.285594803E-1,-3.632673356E0,4.035469879E0
4.180534917E0,1.114960822E0,-1.209849730E0,-5.374141408E0,5.620344284E0
4.190561917E0,1.021480654E0,-1.838221929E0,-6.572669758E0,6.900903588E0
4.200589917E0,1.302879954E0,-2.528804995E0,-6.585961064E0,7.174066770E0
4.210616917E0,2.074599861E0,-2.684984710E0,-5.186203710E0,6.197565361E0
4.220644917E0,3.143508158E0,-2.994231082E0,-3.453611147E0,5.547476297E0
4.230671917E0,4.112456696E0,-3.449308181E0,-2.635914291E0,5.979805278E0
4.240698917E0,4.277889045E0,-3.665768597E0,-3.841597295E0,6.818802231E0
4.250726917E0,3.606272008E0,-3.400805528E0,-5.730311100E0,7.576750051E0
4.260753917E0,2.447580153E0,-2.998641636E0,-7.219326201E0,8.191530447E0
4.270780917E0,1.384900748E0,-2.933683748E0,-9.020675588E0,9.586294304E0
4.280808917E0,8.553027852E-1,-3.202564452E0,-9.883462079E0,1.042452803E1
4.290835917E0,3.104058748E-1,-3.337162094E0,-8.401315702E0,9.045170434E0
4.300863917E0,-1.643900827E-1,-3.003436353E0,-8.122454971E0,8.661520004E0
4.310890917E0,-3.471426152E-1,-2.935726181E0,-8.806872148E0,9.289778966E0
4.320917917E0,2.931209207E-2,-3.399903302E0,-5.840831662E0,6.758366383E0
4.330945917E0,1.515998100E0,-3.931504667E0,-1.323808454E0,4.416723674E0
4.340972917E0,3.181291696E0,-4.421818843E0,1.541314352E0,5.661161424E0
4.351000917E0,4.680542348E0,-5.342728996E0,4.050047024E0,8.176497459E0
4.361027917E0,3.267067426E0,-6.456164571E0,6.217799317E0,9.540273522E0
4.371054917E0,4.641516861E-1,-7.189794838E0,6.716798362E0,9.850074458E0
4.381082917E0,-2.547337452E0,-7.767946472E0,6.263366668E0,1.029852817E1
4.391109917E0,-4.861164594E0,-8.066249780E0,5.021067231E0,1.067269520E1
4.401136917E0,-5.928793666E0,-7.616997676E0,3.352237970E0,1.021796200E1
4.411164917E0,-6.189129249E0,-6.087798171E0,1.449875301E0,8.801633134E0
4.421191917E0,-5.529394923E0,-3.375485330E0,-5.051663956E-1,6.497946023E0
4.431219917E0,-4.760823157E0,-1.837674045E0,-5.669504151E-1,5.134580392E0
4.441246917E0,-5.361123751E0,-1.714194884E0,1.250406310E0,5.765728741E0
4.451273917E0,-4.591114155E0,-1.453030751E0,2.737031361E0,5.539040370E0
4.461301917E0,-2.879332417E0,-4.937535077E-1,3.716768889E0,4.727443142E0
4.471328917E0,-1.504256014E0,1.026138985E0,3.672032719E0,4.098728054E0
4.481355917E0,-5.515371546E-2,1.619493964E0,4.925405613E0,5.185115532E0
4.491383917E0,8.658809830E-1,9.554882473E-1,5.616213797E0,5.762340243E0
4.501409875E0,1.363330954E0,4.041203696E-1,4.000215883E0,4.245434215E0
4.511437875E0,1.969371468E0,2.281098229E-1,4.167555594E0,4.615081548E0
4.521464875E0,2.961835168E0,4.234202743E-1,4.686331676E0,5.559987129E0
4.531491875E0,3.250512497E0,9.781713510E-1,6.142188971E0,7.017772869E0
4.541519875E0,3.789177884E0,1.770426972E0,7.442588097E0,8.537235986E0
4.551546875E0,3.289823620E0,2.336101232E0,7.969417550E0,8.932632563E0
4.561574875E0,1.522645800E0,3.666311803E0,7.969238625E0,8.903317176E0
4.571601875E0,-4.762350304E-1,4.657329487E0,7.879521872E0,9.165390482E0
4.581628875E0,-2.148203296E0,5.473630612E0,7.583093766E0,9.595765761E0
4.591656875E0,-3.581803749E0,6.229932289E0,7.664312761E0,1.050633449E1
4.601683875E0,-4.450257946E0,6.584513294E0,7.434909534E0,1.088294495E1
4.611710875E0,-4.391267726E0,6.142642715E0,7.378217270E0,1.055714838E1
4.621738875E0,-3.486864263E0,5.632687157E0,6.745711673E0,9.454629183E0
4.631765875E0,-2.334007490E0,5.067352620E0,5.786948985E0,8.038310277E0
4.641793875E0,-1.757233753E0,4.463975514E0,5.235626131E0,7.101177989E0
4.651820875E0,-1.368748984E0,4.186552613E0,4.721565828E0,6.457079869E0
4.661847875E0,-1.206378676E0,4.138530600E0,4.080834369E0,5.935991424E0
4.671875875E0,-9.569693470E-1,4.071781710E0,2.670051506E0,4.962295000E0
4.681902875E0,-4.363261025E-1,3.706914868E0,1.102400710E0,3.891900003E0
4.691930875E0,-6.098410575E-1,3.101966030E0,-7.184751615E-1,3.241960198E0
4.701957875E0,-1.082313332E0,2.080113055E0,-2.651231073E0,3.539392415E0
4.711984875E0,-5.533357581E-1,9.618085027E-1,-5.537796203E0,5.647870647E0
4.722012875E0,-1.787912924E0,-1.543286033E0,-7.473311707E0,7.837649665E0
4.732039875E0,-2.752060752E0,-4.960566675E0,-8.635797236E0,1.033237891E1
4.742066875E0,-1.763964191E0,-7.395276521E0,-1.096903275E1,1.334621159E1
4.752094875E0,-9.747005899E-1,-9.087635563E0,-1.217867198E1,1.522679259E1
4.762121875E0,-3.186020632E-1,-8.792131902E0,-1.053904488E1,1.372860363E1
4.772149875E0,-5.854779026E-1,-5.659108386E0,-7.575607576E0,9.474076327E0
4.782176875E0,-1.302316575E0,-1.775905228E0,-5.164409968E0,5.614356433E0
4.792203875E0,-2.201147641E0,1.048461315E0,-3.791141086E0,4.507446373E0
4.802231875E0,-3.048141240E0,2.310662336E0,-2.869764033E0,4.781827167E0
4.812258875E0,-3.594283462E0,8.663480294E-1,-2.803954498E0,4.640214794E0
4.822285875E0,-2.905573551E0,-1.868365495E0,-3.275731831E0,4.760626672E0
4.832313875E0,-1.639234602E0,-4.065940341E0,-2.130633582E0,4.874275372E0
4.842340875E0,4.713399607E-1,-5.033736978E0,3.018351431E0,5.888218294E0
4.852368875E0,-1.405813023E0,-4.140839081E0,8.164750221E0,9.262073457E0
4.862395875E0,-3.749481429E0,-7.064816451E-1,9.024870381E0,9.798265800E0
4.872422875E0,-3.590514639E0,1.823386958E0,6.621560082E0,7.749941503E0
4.882450875E0,-3.292301670E0,2.825770460E0,5.226462375E0,6.792653232E0
4.892477875E0,-2.764462696E0,3.419525388E0,6.159285060E0,7.567839872E0
4.902504875E0,-1.828593173E0,3.129950804E0,7.329173164E0,8.176620591E0
4.912532875E0,-1.622717534E0,1.791828366E0,7.175223577E0,7.571505429E0
4.922559875E0,-2.012073976E0,1.024457325E0,6.871419793E0,7.232866961E0
4.932587875E0,-2.693395345E0,2.905452222E-1,7.014084839E0,7.519054537E0
4.942614875E0,-2.393752440E0,-8.125565690E-1,8.007605715E0,8.397145242E0
4.952641875E0,-1.496854170E0,-1.874298665E0,8.564989793E0,8.894527421E0
4.962669875E0,-5.402992447E-1,-3.005609763E0,7.798202305E0,8.374817760E0
4.972696875E0,8.736076400E-1,-4.579770264E0,6.484065145E0,7.986274901E0
4.982724875E0,2.521188996E0,-6.281022336E0,5.167810124E0,8.515509205E0
4.992751875E0,3.304506564E0,-7.464146782E0,3.831027868E0,9.017207180E0
5.002778875E0,3.580010701E0,-5.935882831E0,3.679685555E0,7.848010409E0
5.012806875E0,3.554849839E0,-2.691469272E0,4.842421929E0,6.582553787E0
5.022833875E0,3.059939167E0,-4.721819597E-1,4.241774887E0,5.251555741E0
5.032860875E0,2.363618083E0,1.705042822E0,-1.997919767E0,3.533489049E0
5.042888875E0,2.138657863E0,3.518132249E0,-8.394808921E0,9.350076405E0
5.052915875E0,2.517307907E0,2.391299533E0,-3.413223259E0,4.868803300E0
5.062943875E0,2.555802759E0,1.509801952E0,-2.037476327E0,3.600408236E0
5.072970875E0,2.166708564E0,1.104322690E0,-1.238076578E0,2.728917041E0
5.082997875E0,1.811056788E0,9.576984948E-1,-3.570789715E-1,2.079571708E0
5.093025875E0,1.339000544E0,1.553093567E0,2.618219082E-1,2.067262150E0
5.103052875E0,8.089494216E-1,2.161035596E0,5.074646437E-1,2.362624468E0
5.113079875E0,4.297792675E-1,2.067713449E0,2.210838085E-1,2.123447003E0
5.123107875E0,3.948127717E-1,1.701032217E0,-5.956751543E-1,1.845051928E0
5.133134875E0,3.304122694E-1,1.466471161E0,-1.260367334E0,1.961692063E0
5.143162875E0,-2.151830909E-1,1.348820504E0,-1.683214581E0,2.167678906E0
5.153189875E0,-3.576132973E-1,1.382101101E0,-2.149046465E0,2.580017719E0
5.163216875E0,-2.260352308E-1,1.476903763E0,-2.466200026E0,2.883483868E0
5.173244875E0,-2.839806993E-1,1.219804029E0,-2.946928276E0,3.202023294E0
5.183271875E0,-6.797680557E-2,1.050447614E0,-3.199353161E0,3.368073883E0
5.193299875E0,4.870457281E-1,7.396248329E-1,-2.861433213E0,2.995339458E0
5.203326875E0,1.134869860E0,3.149649489E-1,-2.236747244E0,2.527878706E0
5.213353875E0,1.414175418E0,-8.141253769E-2,-1.575512085E0,2.118669026E0
5.223381875E0,1.556288194E0,-4.775888801E-1,-1.108256696E0,1.969354459E0
5.233408875E0,1.807292497E0,-7.813008624E-1,-1.276210365E0,2.346369558E0
5.243435875E0,1.841517420E0,-9.322069734E-1,-2.177714778E0,3.000439618E0
5.253463875E0,1.826242007E0,-1.162448691E0,-3.645533722E0,4.239854119E0
5.263490875E0,1.873714236E0,-1.700400133E0,-5.144316012E0,5.732900913E0
5.273518875E0,2.082263076E0,-2.291512704E0,-6.051126189E0,6.797277259E0
5.283545875E0,2.386164508E0,-2.812708949E0,-6.348550075E0,7.342288523E0
5.293572875E0,2.668970355E0,-3.128299550E0,-5.891762080E0,7.184881436E0
5.303600875E0,2.954344008E0,-3.452786105E0,-4.628831912E0,6.486598899E0
5.313627875E0,3.298835057E0,-3.707342300E0,-3.631402756E0,6.149291474E0
5.323655875E0,3.480218902E0,-3.552128545E0,-3.348944233E0,5.995412270E0
5.333682875E0,2.923707229E0,-3.411680179E0,-4.103984081E0,6.085253564E0
5.343709875E0,2.170427978E0,-3.694379607E0,-5.645128863E0,7.087078253E0
5.353737875E0,1.816679910E0,-4.462649950E0,-6.830496885E0,8.358902928E0
5.363764875E0,1.724525598E0,-5.361533056E0,-7.436594701E0,9.328610079E0
5.373791875E0,1.881511498E0,-5.430368233E0,-7.181708139E0,9.198147447E0
5.383819875E0,2.112417898E0,-4.423506349E0,-6.760187041E0,8.350439906E0
5.393846875E0,2.092824901E0,-3.696740128E0,-7.365162776E0,8.502436496E0
5.403874875E0,7.978591539E-1,-3.639277786E0,-8.164663682E0,8.974555982E0
5.413901875E0,-1.175063182E0,-3.609758703E0,-4.856700829E0,6.164306475E0
5.423928875E0,-9.668463175E-1,-4.159555433E0,-4.386733210E-1,4.292915966E0
5.433956875E0,7.630372305E-1,-3.929152917E0,3.686851902E0,5.441814533E0
5.443983875E0,-1.732290993E-1,-4.370051104E0,5.217392174E0,6.807975916E0
5.454010875E0,-1.949380715E0,-5.434323875E0,5.359288895E0,7.877432234E0
5.464038875E0,-3.409645348E0,-6.686989841E0,4.614530207E0,8.811095480E0
5.474065875E0,-4.471839726E0,-7.542164426E0,3.836226043E0,9.570696161E0
5.484093875E0,-5.060912497E0,-7.153105314E0,3.567513447E0,9.460808799E0
5.494120875E0,-4.384445195E0,-5.977057754E0,2.284697482E0,7.756830644E0
5.504148625E0,-4.419611519E0,-4.527966272E0,1.097641954E0,6.421858173E0
5.514176625E0,-3.683851403E0,-3.412506391E0,1.117802861E0,5.144457626E0
5.524203625E0,-3.265174975E0,-3.103849418E0,1.039632604E0,4.623427817E0
5.534231625E0,-2.864258587E0,-2.015722931E0,1.790050520E0,3.933369682E0
5.544258625E0,-2.298918349E0,-1.036085683E-1,3.771916026E0,4.418496443E0
5.554285625E0,-1.090950400E0,1.228271382E0,4.835104138E0,5.106569826E0
5.564313625E0,-1.221067467E0,1.190563273E0,3.757152976E0,4.126093207E0
5.574340625E0,2.551910560E-1,1.042042242E0,4.660695144E0,4.782578147E0
5.584367625E0,2.219180016E0,4.532562768E-1,5.134678631E0,5.612051838E0
5.594395625E0,2.063947988E0,-3.818886709E-1,6.199635526E0,6.545319007E0
5.604422625E0,1.860444711E0,-3.112402725E-1,6.760882859E0,7.019092681E0
5.614450625E0,2.062689229E0,7.469215733E-1,6.580078180E0,6.936137798E0
5.624477625E0,2.834096602E0,1.493138557E0,6.331748686E0,7.095957139E0
5.634504625E0,2.229384138E0,2.274680325E0,6.587028766E0,7.316643505E0
5.644532625E0,7.752706289E-1,2.925484782E0,7.452056494E0,8.043174233E0
5.654559625E0,-6.715562991E-1,4.162814671E0,7.685438751E0,8.766184041E0
5.664586625E0,-1.946589546E0,5.370858781E0,8.024456806E0,9.850240705E0
5.674614625E0,-2.759613892E0,6.201949854E0,8.618657877E0,1.097091220E1
5.684641625E0,-3.282271649E0,6.692199125E0,8.476343665E0,1.128748148E1
5.694669625E0,-3.516598524E0,6.669823000E0,8.137700416E0,1.109392501E1
5.704696625E0,-3.339942445E0,6.495570127E0,7.561736226E0,1.051320606E1
5.714723625E0,-2.806701520E0,5.966832143E0,6.441949405E0,9.218425646E0
5.724751625E0,-2.574491922E0,5.356424344E0,5.627456238E0,8.184592484E0
5.734778625E0,-2.390311061E0,4.999767578E0,4.985670526E0,7.454406308E0
5.744805625E0,-2.287169977E0,4.908645739E0,4.381240336E0,6.965717219E0
5.754833625E0,-2.080364777E0,4.786635398E0,3.161030509E0,6.101795631E0
5.764860625E0,-1.261980727E0,4.507961193E0,1.501956158E0,4.916317908E0
5.774888625E0,-3.724943881E-1,4.133466327E0,-5.189503294E-1,4.182535760E0
5.784915625E0,-5.232933488E-1,2.328319173E0,-1.923215886E0,3.064908717E0
5.794942625E0,2.061247306E-1,2.420501697E-1,-3.804863332E0,3.818122662E0
5.804970625E0,-7.883173750E-1,-2.471646708E0,-6.309442143E0,6.821989584E0
5.814997625E0,-2.657853337E0,-6.028697439E0,-9.063822777E0,1.120545673E1
5.825024625E0,-1.472748293E0,-8.408347564E0,-1.208527791E1,1.479605483E1
5.835052625E0,5.126679347E-1,-9.658968759E0,-1.311115786E1,1.629297291E1
5.845079625E0,1.178692695E0,-8.669591804E0,-1.193971966E1,1.480229861E1
5.855107625E0,4.885379376E-1,-5.548039355E0,-8.596584054E0,1.024307900E1
5.865134625E0,-1.304684843E-1,-2.073785782E0,-4.800695613E0,5.231088593E0
5.875161625E0,-6.517764111E-1,7.508392078E-1,-1.873847552E0,2.121291271E0
5.885189625E0,-9.821541819E-1,2.778477595E0,-1.123604468E0,3.153894669E0
5.895216625E0,-2.149382972E0,1.574907190E0,-2.930611036E0,3.960891423E0
5.905244625E0,-1.145655342E0,-1.251069092E0,-3.883339983E0,4.237691524E0
5.915271625E0,7.514395706E-1,-3.211877897E0,-1.520414649E0,3.632145613E0
5.925298625E0,1.128845181E0,-3.953686665E0,5.053148564E0,6.514617418E0
5.935326625E0,-1.143039809E0,-3.175683047E0,9.794162816E0,1.035939806E1
5.945353625E0,-4.166131797E0,-2.279831722E0,8.433535615E0,9.678781421E0
5.955380625E0,-5.129236627E0,-1.640894773E0,4.012625429E0,6.715859354E0
5.965408625E0,-4.119632984E0,-7.924450707E-1,5.349705309E-1,4.229129766E0
5.975435625E0,-3.556650782E0,1.391670654E0,4.322754731E0,5.768251074E0
5.985463625E0,-3.223724940E0,3.169469211E0,6.702224177E0,8.084413800E0
5.995490625E0,-2.874033670E0,2.711305951E0,6.888670249E0,7.941349211E0
6.005517625E0,-2.275378775E0,1.912215520E0,6.245813912E0,6.916943558E0
6.015545625E0,-2.127474624E0,1.429822567E0,5.900527056E0,6.433254262E0
6.025572625E0,-2.073555841E0,5.576179665E-1,6.513415829E0,6.858218237E0
6.035600625E0,-1.791067643E0,-3.490121162E-1,7.619249439E0,7.834710893E0
6.045627625E0,-1.277351156E0,-1.151137837E0,8.313184714E0,8.489156871E0
6.055654625E0,-4.462492660E-1,-2.258284732E0,8.070706528E0,8.392573634E0
6.065682625E0,1.085712464E0,-3.792958401E0,6.430854313E0,7.544613455E0
6.075709625E0,2.708314808E0,-5.483730508E0,4.198378022E0,7.418399248E0
6.085736625E0,3.540548719E0,-6.408351304E0,2.542015024E0,7.750115615E0
6.095764625E0,4.294108344E0,-4.889675617E0,2.289590871E0,6.898588295E0
6.105791625E0,3.965842149E0,-1.222333535E0,1.385297920E0,4.375048977E0
6.115819625E0,3.342797348E0,1.479009345E0,-2.507115333E0,4.432537653E0
6.125846625E0,2.720315341E0,2.469338227E0,-2.282557401E0,4.325253186E0
6.135873625E0,2.745218925E0,2.362883234E0,-1.862126224E-2,3.622125187E0
6.145901625E0,3.102900707E0,1.799253160E0,-1.423283626E0,3.858891164E0
6.155928625E0,2.846548541E0,1.044486378E0,-2.676824920E0,4.044648568E0
6.165955625E0,2.001827608E0,6.139810324E-1,-1.968956316E0,2.874208665E0
6.175983625E0,7.612998766E-1,8.627350348E-1,-4.794436169E-1,1.246497262E0
6.186010625E0,2.806305371E-1,1.648689111E0,3.657678974E-1,1.711933246E0
6.196038625E0,2.788521065E-1,1.878054332E0,1.167349827E-1,1.902228594E0
6.206065625E0,-2.017634386E-1,1.676297910E0,-1.087632397E0,2.008389255E0
6.216092625E0,-6.215566850E-1,1.630078009E0,-1.938996937E0,2.608293723E0
6.226120625E0,-7.597983116E-1,1.667101994E0,-2.416643119E0,3.032603914E0
6.236147625E0,-6.551342478E-1,1.737835177E0,-2.238698314E0,2.908787054E0
6.246174625E0,-5.777155776E-1,1.690637621E0,-1.981237807E0,2.667829474E0
6.256202625E0,-4.269756737E-1,1.687543859E0,-1.997052187E0,2.649213079E0
6.266229625E0,4.147196174E-2,1.793029969E0,-1.801536498E0,2.542087753E0
6.276257625E0,4.347947167E-1,1.366004301E0,-1.590625091E0,2.141285216E0
6.286284625E0,8.169291168E-1,5.425970542E-1,-1.484147878E0,1.778898443E0
6.296311625E0,1.240462535E0,-2.746489817E-1,-1.227775539E0,1.766808461E0
6.306339625E0,1.701407169E0,-9.087964761E-1,-9.881601495E-1,2.167292752E0
6.316366625E0,2.189410964E0,-1.200390689E0,-1.036023264E0,2.703294726E0
6.326393625E0,2.765427194E0,-1.112768993E0,-1.644733762E0,3.404554530E0
6.336421625E0,2.982747735E0,-1.026306800E0,-2.832859039E0,4.239714617E0
6.346448625E0,2.662486670E0,-1.355567606E0,-4.393552233E0,5.313162902E0
6.356476625E0,2.090974696E0,-1.977786781E0,-5.738317693E0,6.419665542E0
6.366503625E0,1.805241586E0,-2.744573100E0,-6.411103004E0,7.203736559E0
6.376530625E0,1.956565773E0,-3.380741976E0,-6.425385413E0,7.519517514E0
6.386558625E0,2.391430656E0,-3.755788820E0,-5.515249924E0,7.088220649E0
6.396585625E0,2.815603321E0,-3.655472234E0,-4.598419374E0,6.514258212E0
6.406613625E0,2.801115090E0,-3.329760103E0,-4.302202352E0,6.119027143E0
6.416640625E0,2.321287165E0,-3.289589147E0,-4.885412997E0,6.330642227E0
6.426667625E0,1.757132304E0,-3.730483240E0,-6.530551679E0,7.723478774E0
6.436695625E0,1.359547660E0,-4.483425692E0,-8.510449305E0,9.714794035E0
6.446722625E0,1.481612379E0,-5.113944989E0,-8.641810513E0,1.015029544E1
6.456749625E0,2.104511439E0,-5.150611124E0,-6.520541246E0,8.571768866E0
6.466777625E0,2.404863465E0,-4.785263641E0,-5.905367382E0,7.972169110E0
6.476804625E0,5.556081323E-1,-4.325712837E0,-8.652613828E0,9.689593284E0
6.486832625E0,-1.231517464E0,-3.773104765E0,-6.149878060E0,7.319423132E0
6.496859625E0,1.112627783E0,-3.455026758E0,7.907341754E-1,3.714890445E0
6.506886750E0,3.480884608E0,-3.327584939E0,5.656492342E0,7.428679882E0
6.516914750E0,2.248227083E0,-3.399963529E0,7.048549497E0,8.142255647E0
6.526941750E0,-1.382205766E-1,-3.991636848E0,7.148568460E0,8.188669042E0
6.536968750E0,-2.310037999E0,-5.273615491E0,5.721176580E0,8.116597647E0
6.546996750E0,-4.110048813E0,-6.352610967E0,4.321307545E0,8.713315456E0
6.557023750E0,-5.635135971E0,-7.091550506E0,2.922093397E0,9.517535175E0
6.567051750E0,-6.356433876E0,-6.830350120E0,1.519967337E0,9.453477407E0
6.577078750E0,-5.727642431E0,-5.112691931E0,3.389236227E-1,7.685074874E0
6.587105750E0,-4.497611622E0,-3.122937069E0,-4.027228850E-1,5.490303449E0
6.597133750E0,-4.240284432E0,-2.146028717E0,1.574701953E-1,4.755023467E0
6.607160750E0,-3.571381087E0,-1.508309158E0,3.042036455E0,4.927854014E0
6.617187750E0,-2.449880594E0,-9.631884456E-1,4.271013304E0,5.017090945E0
6.627215750E0,-2.374713321E0,-1.043143272E-1,2.550920334E0,3.486737642E0
6.637242750E0,-3.379323442E0,1.134341710E0,4.507943067E-1,3.593017332E0
6.647270750E0,-1.853164342E0,1.566136951E0,2.290594107E0,3.336738586E0
6.657297750E0,-9.091353223E-1,6.908707488E-1,4.934478153E0,5.064869600E0
6.667324750E0,5.792880401E-1,5.368352079E-1,4.377869416E0,4.448539906E0
6.677352750E0,1.319008329E0,3.156473190E-1,4.156987044E0,4.372637360E0
6.687379750E0,1.254253193E0,6.479083318E-1,4.750841083E0,4.956150449E0
6.697406750E0,1.650744846E0,7.794484645E-1,7.483429145E0,7.702870258E0
6.707434750E0,3.333553777E0,8.304519725E-1,7.440455618E0,8.195279804E0
6.717461750E0,2.445231619E0,1.444150584E0,5.253465402E0,5.971903156E0
6.727489750E0,1.381919399E0,2.479694231E0,5.906900522E0,6.553629412E0
6.737516750E0,3.440530926E-1,3.376875798E0,6.744325883E0,7.550337364E0
6.747543750E0,-7.661084075E-1,4.184838209E0,6.620691771E0,7.869774613E0
6.757571750E0,-2.012154960E0,5.078840060E0,6.648536212E0,8.605022818E0
6.767598750E0,-2.792224984E0,5.636240510E0,6.694280734E0,9.185702042E0
6.777625750E0,-3.257509568E0,5.832315778E0,6.705115040E0,9.464979853E0
6.787653750E0,-2.788571351E0,6.000620863E0,6.129491742E0,9.019659081E0
6.797680750E0,-1.913993658E0,5.911469536E0,5.416154822E0,8.242789385E0
6.807708750E0,-1.252455320E0,5.454518988E0,4.950863221E0,7.472045794E0
6.817735750E0,-1.091496968E0,5.048207667E0,4.502163679E0,6.851659950E0
6.827762750E0,-1.206992634E0,4.945875546E0,3.765931401E0,6.332515728E0
6.837790750E0,-1.478412637E0,4.758078766E0,2.847736695E0,5.738869380E0
6.847817750E0,-9.126200435E-1,4.464838563E0,1.869112477E0,4.925570037E0
6.857844750E0,-2.819030374E-2,3.889419333E0,5.438448501E-1,3.927358484E0
6.867872750E0,1.737785914E-1,2.795903467E0,-4.852057555E-1,2.843008938E0
6.877899750E0,-2.446877025E-1,1.349061409E0,-1.900246269E0,2.343240201E0
6.887927750E0,-1.190376163E-2,-2.163920027E-1,-4.081217069E0,4.086967086E0
6.897954750E0,-8.646596459E-1,-2.677111434E0,-6.166474797E0,6.777903315E0
6.907981750E0,-1.159001173E0,-5.397703348E0,-8.866021997E0,1.044436840E1
6.918009750E0,-1.910226882E-1,-7.541083860E0,-1.278816469E1,1.484727556E1
6.928036750E0,-2.420859839E-1,-9.003581838E0,-1.295731294E1,1.578021071E1
6.938064750E0,-9.550138919E-1,-7.629166902E0,-9.481949567E0,1.220752255E1
6.948091750E0,-1.403444169E0,-3.882502077E0,-6.716327661E0,7.883687916E0
6.958118750E0,-1.530874002E0,-2.507256836E-1,-3.978759525E0,4.270476079E0
6.968146750E0,-1.770067953E0,2.548468012E0,-1.736552297E0,3.555762034E0
6.978173750E0,-2.488760923E0,3.465347679E0,-1.713772130E0,4.597779940E0
6.988200750E0,-2.831657436E0,9.616862959E-1,-2.429751408E0,3.853156663E0
6.998228750E0,-2.452124316E0,-1.903299685E0,-3.080627786E0,4.373297487E0
7.008255750E0,-1.235400308E0,-3.659738363E0,-1.963565183E-1,3.867616151E0
7.018283750E0,-3.178563970E-1,-4.405964118E0,6.488183924E0,7.849209076E0
7.028310750E0,-2.113653414E0,-3.937469997E0,9.492495605E0,1.049183843E1
7.038337750E0,-2.928383247E0,-2.749528030E0,6.870079612E0,7.958223841E0
7.048365750E0,-2.481275318E0,-1.646233866E0,2.989702998E0,4.219613390E0
7.058392750E0,-2.128671549E0,-1.438567078E-1,3.735610664E0,4.301944252E0
7.068419750E0,-1.694354550E0,1.476804360E0,5.933871973E0,6.345283686E0
7.078447750E0,-1.366501607E0,2.544651534E0,6.542361885E0,7.151578645E0
7.088474750E0,-1.030749514E0,2.285201220E0,6.901431212E0,7.342638624E0
7.098502750E0,-1.436328764E0,1.365631834E0,6.278869976E0,6.584238665E0
7.108529750E0,-1.736258183E0,9.582083720E-1,5.854175009E0,6.180948211E0
7.118556750E0,-1.719726642E0,6.338574725E-1,5.467148974E0,5.766190503E0
7.128584750E0,-2.204048299E0,-4.183308578E-1,5.261249800E0,5.719578574E0
7.138611750E0,-1.940619978E0,-1.557872497E0,5.247722851E0,5.807888406E0
7.148638750E0,-6.183144039E-1,-2.738713605E0,4.926638206E0,5.670505174E0
7.158666750E0,1.110032569E0,-4.367745547E0,4.734326207E0,6.536300031E0
7.168693750E0,3.001954084E0,-5.577126914E0,4.609342557E0,7.833397204E0
7.178721750E0,3.965285786E0,-4.873150801E0,4.347379110E0,7.640078221E0
7.188748750E0,3.659935707E0,-2.356951818E0,4.429948812E0,6.210861271E0
7.198775750E0,2.455530027E0,-3.850911909E-1,3.589615045E0,4.366149231E0
7.208803750E0,1.088129703E0,1.553921533E0,-3.043835936E0,3.586591081E0
7.218830750E0,3.819268240E-1,2.485360767E0,-6.743365771E0,7.196934636E0
7.228857750E0,8.899997243E-1,1.505162187E0,-2.661882945E0,3.184844350E0
7.238885750E0,1.430171646E0,9.279554629E-1,-6.565369948E-1,1.826891651E0
7.248912750E0,1.557585106E0,9.828040999E-1,8.988703890E-1,2.049376305E0
7.258940750E0,9.615559030E-1,1.318537189E0,1.561061568E0,2.258327544E0
7.268967750E0,5.479312498E-1,1.623583506E0,1.470284715E0,2.257872715E0
7.278994750E0,5.024231013E-1,1.674793421E0,9.002501857E-1,1.966675462E0
7.289022750E0,1.108885711E-1,1.435565118E0,1.759545048E-2,1.439948986E0
7.299049750E0,-2.662851244E-1,1.245214275E0,-1.005875459E0,1.622729736E0
7.309076750E0,-3.359228316E-1,1.367076681E0,-1.727721248E0,2.228623680E0
7.319104750E0,-1.122758961E-1,1.649271494E0,-2.162861681E0,2.722255129E0
7.329131750E0,3.898397148E-1,1.485679264E0,-2.258968272E0,2.731694626E0
7.339159750E0,7.716880399E-1,1.162339933E0,-2.206659665E0,2.610724694E0
7.349186750E0,9.718406437E-1,7.195928568E-1,-2.227976859E0,2.534988955E0
7.359213750E0,1.226497191E0,4.448637682E-1,-2.082552513E0,2.457483286E0
7.369241750E0,1.360435998E0,3.495792961E-1,-1.642553628E0,2.161243672E0
7.379268750E0,1.411465964E0,6.504793525E-2,-1.247970506E0,1.885178449E0
7.389295750E0,1.422671861E0,-2.749395883E-1,-1.037362130E0,1.782051399E0
7.399323750E0,1.512324441E0,-3.218529689E-1,-1.279918084E0,2.007213205E0
7.409350750E0,1.519578204E0,-9.580838263E-2,-1.981288824E0,2.498760207E0
7.419378750E0,1.529019704E0,1.469685960E-1,-3.138676019E0,3.494393821E0
7.429405750E0,1.744235539E0,5.991641879E-2,-4.506286551E0,4.832449283E0
7.439432750E0,1.988171143E0,-1.955630511E-1,-5.208066450E0,5.578084398E0
7.449460750E0,2.085226298E0,-9.169229364E-1,-4.804569393E0,5.317217641E0
7.459487750E0,2.118156648E0,-1.839729926E0,-4.123680426E0,4.987577974E0
7.469515750E0,2.540953170E0,-2.605855510E0,-3.469162402E0,5.028122286E0
7.479542750E0,3.042853603E0,-3.033785741E0,-2.878890075E0,5.172119685E0
7.489569750E0,3.135688092E0,-3.006548241E0,-2.116653475E0,4.832400446E0
7.499597750E0,2.667420259E0,-2.679528088E0,-2.119352842E0,4.334357862E0
7.509624250E0,1.717689618E0,-2.436685621E0,-3.427184072E0,4.542409614E0
7.519651250E0,9.961809213E-1,-2.638934963E0,-4.816408251E0,5.581589613E0
7.529679250E0,6.530701075E-1,-3.370850242E0,-5.934283032E0,6.856008097E0
7.539706250E0,6.807327001E-1,-4.463466221E0,-6.797854219E0,8.160683164E0
7.549734250E0,1.001081327E0,-5.186504257E0,-7.187457122E0,8.919727020E0
7.559761250E0,1.581879849E0,-4.970040334E0,-7.173833109E0,8.869471588E0
7.569788250E0,2.247918496E0,-4.244821286E0,-7.381674728E0,8.806859095E0
7.579816250E0,1.915304896E0,-3.632480983E0,-8.416826611E0,9.365163167E0
7.589843250E0,5.499168912E-1,-3.386031953E0,-7.239165219E0,8.010813569E0
7.599870250E0,-9.196617723E-2,-3.331448779E0,-2.967297052E0,4.462270783E0
7.609898250E0,9.953007692E-1,-3.027333339E0,1.102594253E0,3.372103921E0
7.619925250E0,1.101176449E0,-2.673034755E0,2.250435430E0,3.663627164E0
7.629953250E0,-7.817224467E-1,-3.132273318E0,2.707100633E0,4.213148462E0
7.639980250E0,-2.417895301E0,-4.630840430E0,3.539436579E0,6.310191128E0
7.650007250E0,-3.657411756E0,-5.714588522E0,4.531862272E0,8.159102793E0
7.660035250E0,-4.945590786E0,-6.134203429E0,4.879585954E0,9.268100076E0
7.670062250E0,-6.018320385E0,-6.441654121E0,3.726843056E0,9.571021222E0
7.680089250E0,-5.840141106E0,-5.853545848E0,1.418973936E0,8.389561023E0
7.690117250E0,-4.578450840E0,-4.042004179E0,-3.466682598E-1,6.117204326E0
7.700144250E0,-3.044005505E0,-2.365746031E0,8.655972469E-1,3.951200120E0
7.710172250E0,-2.676619391E0,-1.764799612E0,2.933294031E0,4.345460034E0
7.720199250E0,-2.113147484E0,-2.195911313E0,2.380129012E0,3.866837584E0
7.730226250E0,-1.698501834E0,-1.610586900E0,2.705024287E0,3.577157396E0
7.740254250E0,-1.175268200E0,-5.612391472E-1,2.823558458E0,3.109457684E0
7.750281250E0,-5.590047799E-1,1.860917312E-1,3.512449632E0,3.561519183E0
7.760308250E0,-1.486843061E-1,5.053309947E-1,4.169390158E0,4.202532656E0
7.770336250E0,4.966313976E-1,1.172121155E-1,3.934904531E0,3.967852706E0
7.780363250E0,7.068786711E-1,-9.901499569E-2,4.790520873E0,4.843404966E0
7.790391250E0,1.183476594E0,6.219905484E-1,6.056632512E0,6.202441977E0
7.800418250E0,7.182263625E-1,1.579487314E0,6.589303333E0,6.813923076E0
7.810445250E0,1.097645754E0,1.331639630E0,6.440802766E0,6.667985496E0
7.820473250E0,7.433376686E-1,1.621203690E0,5.931710258E0,6.194032521E0
7.830500250E0,2.697278919E-1,2.548663893E0,5.782395174E0,6.324913812E0
7.840527250E0,-3.327958868E-1,3.201925936E0,6.491632612E0,7.245990392E0
7.850555250E0,-1.000807385E0,4.127451296E0,7.002843567E0,8.190072505E0
7.860582250E0,-1.685779462E0,5.033047006E0,6.766822461E0,8.600191904E0
7.870610250E0,-2.344213805E0,5.467443674E0,7.096460413E0,9.260023168E0
7.880637250E0,-2.645006711E0,5.724105451E0,7.061491724E0,9.467106690E0
7.890664250E0,-2.600845323E0,5.908956987E0,6.616581178E0,9.244420780E0
7.900692250E0,-2.390596405E0,6.043551705E0,6.065300424E0,8.889732146E0
7.910719250E0,-1.845392223E0,5.966995865E0,5.195682047E0,8.124384533E0
7.920746250E0,-1.610178180E0,5.405463188E0,4.682315224E0,7.330469419E0
7.930774250E0,-1.603997088E0,5.205529928E0,3.894238608E0,6.695927331E0
7.940801250E0,-1.173061095E0,5.063604555E0,2.865824472E0,5.935411808E0
7.950829250E0,-4.717625682E-1,4.691676031E0,1.808892295E0,5.050393573E0
7.960856250E0,1.365020800E-1,4.039016837E0,6.246679884E-1,4.089315337E0
7.970883250E0,3.481078443E-1,2.771345746E0,-1.067878456E0,2.990301107E0
7.980911250E0,1.250345206E-1,7.248781550E-1,-2.952311223E0,3.042568574E0
7.990938250E0,-3.216654195E-1,-1.334994763E0,-5.515794885E0,5.684159821E0
8.000965250E0,-1.497810921E0,-4.002169438E0,-8.297395477E0,9.333143601E0
8.010993250E0,-1.394127070E0,-7.503212614E0,-1.098975411E1,1.337970423E1
8.021020250E0,8.163522890E-1,-1.006062687E1,-1.254457202E1,1.610120900E1
8.031048250E0,2.343461853E0,-9.919409591E0,-1.142588740E1,1.531134883E1
8.041075250E0,1.042712040E0,-6.687769275E0,-8.714429423E0,1.103425514E1
8.051102250E0,-2.294660845E-1,-2.903020949E0,-5.654746363E0,6.360529990E0
8.061130250E0,-1.229061049E0,5.188468337E-2,-2.961866158E0,3.207169191E0
8.071157250E0,-1.757815843E0,2.489171398E0,-1.384117221E0,3.346889790E0
8.081184250E0,-2.824104588E0,2.929674312E0,-1.769605730E0,4.437348616E0
8.091212250E0,-3.581961332E0,3.194158494E-1,-2.699994805E0,4.496937337E0
8.101239250E0,-2.428223384E0,-2.486147802E0,-1.938444082E0,3.979292042E0
8.111267250E0,-9.446570112E-1,-4.158599414E0,9.306957605E-1,4.364919306E0
8.121294250E0,-6.608650307E-1,-3.520867576E0,5.269967414E0,6.372268640E0
8.131321250E0,-2.478637054E0,-1.040766964E0,7.806319994E0,8.256238210E0
8.141349250E0,-3.825633519E0,1.167051619E-1,6.159497899E0,7.251793315E0
8.151376250E0,-3.624546896E0,4.466454148E-2,8.969763297E-1,3.734153406E0
8.161403250E0,-2.794097262E0,5.587236750E-1,1.737291386E0,3.337264301E0
8.171431250E0,-1.915323315E0,1.270798767E0,6.804631142E0,7.182367150E0
8.181458250E0,-1.360126242E0,1.405598722E0,7.607385439E0,7.854805177E0
8.191486250E0,-9.884712213E-1,1.343573213E0,7.622829105E0,7.803190879E0
8.201513250E0,-1.401545286E0,1.314643528E0,7.153022869E0,7.406642489E0
8.211540250E0,-2.052176520E0,8.774355197E-1,6.877332498E0,7.230423490E0
8.221568250E0,-1.970519569E0,-9.772276103E-2,7.343071411E0,7.603498856E0
8.231595250E0,-1.555324280E0,-1.097211306E0,7.227010612E0,7.473458948E0
8.241622250E0,-7.584503822E-1,-2.049860145E0,6.391383269E0,6.754772660E0
8.251650250E0,5.058547591E-1,-3.266976795E0,5.740978761E0,6.624791585E0
8.261677250E0,2.008998194E0,-5.064916086E0,4.997826887E0,7.393762391E0
8.271705250E0,3.218267149E0,-6.527719288E0,3.542634129E0,8.094357239E0
8.281732250E0,4.512337834E0,-5.590755605E0,2.460985479E0,7.594352539E0
8.291759250E0,5.530303581E0,-2.102545313E0,-1.935764888E0,6.225121701E0
8.301787250E0,3.558252334E0,2.449018568E-1,-2.296138437E0,4.241861421E0
8.311814250E0,2.495919085E0,1.096179273E0,-1.773679778E-2,2.726084311E0
8.321841250E0,2.427638516E0,1.137315604E0,-1.401046519E0,3.024871385E0
8.331869250E0,2.466128106E0,9.471489483E-1,-1.209326842E0,2.905400209E0
8.341896250E0,2.392963504E0,7.362229228E-1,1.941521180E-1,2.511173743E0
8.351924250E0,1.741330934E0,1.238118094E0,1.491218916E0,2.605552474E0
8.361951250E0,8.315275678E-1,2.010932892E0,2.213553240E0,3.104046897E0
8.371978250E0,5.434935786E-2,1.872130517E0,1.683380642E0,2.518252750E0
8.382006250E0,-4.375455393E-1,1.462300926E0,1.079408435E-1,1.530170358E0
8.392033250E0,-9.263631199E-1,1.498323868E0,-1.218472034E0,2.141914363E0
8.402061250E0,-1.554116246E0,1.838093290E0,-1.881224692E0,3.054974728E0
8.412088250E0,-1.653627524E0,2.050940126E0,-1.984230412E0,3.298182790E0
8.422115250E0,-1.096071099E0,1.650947306E0,-1.728960857E0,2.629886786E0
8.432143250E0,-3.282963813E-1,1.122217509E0,-1.576212873E0,1.962548770E0
8.442170250E0,1.061181933E-1,9.305428559E-1,-1.587728380E0,1.843380722E0
8.452197250E0,3.032114607E-1,8.059959930E-1,-1.632637920E0,1.845825915E0
8.462225250E0,5.108688927E-1,6.876758301E-1,-1.652440685E0,1.861302042E0
8.472252250E0,6.612208338E-1,5.774423665E-1,-1.644740487E0,1.864356175E0
8.482279250E0,8.692622817E-1,4.726497370E-1,-1.467668670E0,1.770046896E0
8.492307250E0,1.177418586E0,2.190583330E-1,-1.059566420E0,1.599056622E0
8.502334250E0,1.446188485E0,-6.648518085E-2,-6.193611286E-1,1.574639521E0
8.512362375E0,1.617758656E0,-2.997797298E-1,-4.045010233E-1,1.694293963E0
8.522389375E0,1.752855943E0,-4.245616508E-1,-6.570435829E-1,1.919495460E0
8.532416375E0,1.731898937E0,-3.541828090E-1,-1.377208297E0,2.240897607E0
8.542444375E0,1.728382860E0,-2.189659470E-1,-2.416835493E0,2.979319922E0
8.552471375E0,1.804883006E0,-3.411142820E-1,-3.481850275E0,3.936653777E0
8.562499375E0,1.754475475E0,-7.959697723E-1,-4.342411315E0,4.750609235E0
8.572526375E0,1.503212433E0,-1.362728106E0,-4.970119271E0,5.368310822E0
8.582553375E0,1.394842623E0,-1.817204112E0,-5.126735188E0,5.615267618E0
8.592581375E0,1.757981027E0,-2.001568576E0,-4.693127895E0,5.396501042E0
8.602608375E0,2.137057187E0,-1.913831105E0,-4.006271845E0,4.927471665E0
8.612635375E0,2.474135867E0,-1.872083740E0,-3.489387921E0,4.669247678E0
8.622663375E0,2.690189901E0,-2.222469952E0,-3.772359245E0,5.138792529E0
8.632690375E0,2.637492162E0,-2.608031843E0,-4.649213551E0,5.947552576E0
8.642718375E0,2.533993814E0,-3.463853130E0,-5.857852907E0,7.261807202E0
8.652745375E0,2.376738942E0,-4.600981624E0,-6.582639846E0,8.375503999E0
8.662772375E0,2.357064962E0,-5.247580179E0,-6.387362139E0,8.596001865E0
8.672800375E0,2.298715451E0,-5.420901006E0,-6.406705313E0,8.701501791E0
8.682827375E0,1.719657937E0,-5.253776473E0,-7.380946750E0,9.221592356E0
8.692854375E0,4.868124242E-1,-4.267291551E0,-7.171563220E0,8.359311128E0
8.702882375E0,7.903286710E-1,-3.258539262E0,-3.171286526E0,4.615165843E0
8.712909375E0,2.328684916E0,-2.602664099E0,2.092817885E0,4.071427336E0
8.722937375E0,3.650251256E0,-2.305802130E0,5.225183004E0,6.778170485E0
8.732964375E0,2.300502360E0,-2.236983910E0,5.926544827E0,6.739461530E0
8.742991375E0,-2.474293157E-1,-2.891870894E0,5.820196838E0,6.503755052E0
8.753019375E0,-2.431888272E0,-4.299673432E0,5.080423486E0,7.086040854E0
8.763046375E0,-3.956391002E0,-6.051822007E0,3.984503245E0,8.255534233E0
8.773073375E0,-4.959128845E0,-6.558984935E0,3.645191952E0,8.994479787E0
8.783101375E0,-5.400752671E0,-5.150747364E0,3.334420334E0,8.174147465E0
8.793128375E0,-4.797117117E0,-3.648372545E0,2.142950742E0,6.396498476E0
8.803156375E0,-4.199745685E0,-2.761463367E0,7.021316090E-1,5.075089412E0
8.813183375E0,-3.614451093E0,-1.741748718E0,1.112473124E0,4.163597213E0
8.823210375E0,-3.698648660E0,-1.348100127E0,2.125101239E0,4.473637350E0
8.833238375E0,-3.775446867E0,-8.183587611E-1,3.014598396E0,4.900154446E0
8.843265375E0,-2.530098984E0,-8.205573142E-2,3.290821155E0,4.151823441E0
8.853292375E0,-1.582938049E0,1.873015201E-1,2.138741039E0,2.667393476E0
8.863320375E0,-9.831313978E-1,7.133170402E-1,1.929265123E0,2.279787811E0
8.873347375E0,-5.231464010E-1,1.484815630E0,3.120121635E0,3.494784489E0
8.883375375E0,-3.694730587E-1,1.803117585E0,4.882167208E0,5.217595232E0
8.893402375E0,2.814867888E-1,1.686876107E0,6.141797792E0,6.375458096E0
8.903429375E0,5.537963360E-1,1.776351956E0,5.483277349E0,5.790375388E0
8.913457375E0,9.785081506E-1,1.267424338E0,5.055648249E0,5.303152069E0
8.923484375E0,1.069916138E0,8.050616080E-1,4.301060683E0,4.504660668E0
8.933511375E0,7.387254580E-1,9.462654340E-1,4.514224146E0,4.671119054E0
8.943539375E0,1.804680984E-1,1.547817625E0,4.940932310E0,5.180841652E0
8.953566375E0,-6.333829710E-1,2.321110725E0,5.568457832E0,6.066007881E0
8.963594375E0,-1.528995145E0,2.927807297E0,5.895853377E0,6.758029947E0
8.973621375E0,-2.444703469E0,3.498554601E0,5.709220194E0,7.128229413E0
8.983648375E0,-2.603062587E0,4.434549401E0,5.573863583E0,7.583476674E0
8.993676375E0,-2.496513162E0,4.622306419E0,5.297910672E0,7.460975277E0
9.003703375E0,-2.155515239E0,4.630538714E0,4.736260466E0,6.965651293E0
9.013730375E0,-2.115962480E0,4.209264953E0,4.287482279E0,6.370063811E0
9.023758375E0,-2.497704824E0,4.071372405E0,4.034344912E0,6.252242919E0
9.033785375E0,-2.424220234E0,4.307789367E0,3.451577778E0,6.028870718E0
9.043813375E0,-1.840191710E0,4.362405869E0,2.766011039E0,5.483402918E0
9.053840375E0,-1.005319535E0,4.330950188E0,2.048917574E0,4.895493859E0
9.063867375E0,-8.404327311E-2,3.935088426E0,1.618760431E0,4.255862959E0
9.073895375E0,2.104435571E-1,2.798775619E0,1.507215144E0,3.185769758E0
9.083922375E0,-1.406021476E-1,1.198037769E0,8.527757648E-1,1.477257583E0
9.093949375E0,-4.413992929E-1,-1.880891401E-1,-2.387195957E-1,5.359084864E-1
9.103977375E0,-8.588330416E-1,-1.481884421E0,-1.706231268E0,2.417602277E0
9.114004375E0,-8.299570057E-1,-2.566472758E0,-5.026791655E0,5.704756383E0
9.124031375E0,-2.660038733E-1,-4.815205479E0,-1.101169403E1,1.202141287E1
9.134059375E0,-4.896282971E-2,-7.357480119E0,-1.331922752E1,1.521633112E1
9.144086375E0,1.542936954E-1,-6.856713461E0,-1.099082532E1,1.295517531E1
9.154114375E0,3.746765690E-1,-4.040932969E0,-7.613046713E0,8.627166513E0
9.164141375E0,-6.474724218E-2,-1.766567225E0,-4.597700458E0,4.925830029E0
9.174168375E0,-6.663090809E-1,-7.723704100E-2,-2.653783675E0,2.737243347E0
9.184196375E0,-1.094413048E0,1.016995693E0,-2.098634402E0,2.576099089E0
9.194223375E0,-3.928722270E-1,1.363661907E0,-2.352849704E0,2.747694327E0
9.204251375E0,-1.199418882E-1,1.380224145E0,-2.772521621E0,3.099400085E0
9.214278375E0,-6.965130195E-1,7.776638943E-1,-1.739899828E0,2.029074403E0
9.224305375E0,-4.407976875E-1,-3.176961833E-1,2.067395945E0,2.137606012E0
9.234333375E0,-6.159524211E-1,-1.014289602E0,6.527059722E0,6.634055275E0
9.244360375E0,-7.579981001E-1,-3.187516057E-1,8.034950219E0,8.076917032E0
9.254387375E0,-5.685075286E-1,4.385651475E-1,7.702557060E0,7.735950197E0
9.264415375E0,-1.120164697E0,-7.875749248E-1,6.044032931E0,6.197207217E0
9.274442375E0,-2.281867138E0,-3.147990049E0,3.844214509E0,5.467608634E0
9.284469375E0,-3.192885556E0,-5.706173210E0,-3.394419491E0,7.367293570E0
9.294497375E0,-2.727968177E0,-6.342393542E0,-4.355092757E0,8.163001846E0
9.304524375E0,-1.422586053E0,-3.770315643E0,1.896892891E0,4.453900960E0
9.314552375E0,-4.295549536E-1,-2.624791718E-1,4.848621731E0,4.874684140E0
9.324579375E0,-7.495209530E-2,1.075661393E0,4.899548348E0,5.016795717E0
9.334606375E0,4.891882941E-2,2.086508739E-1,3.351928944E0,3.358772973E0
9.344634375E0,-1.929294652E-1,-1.642593974E0,1.574600211E0,2.283572326E0
9.354661375E0,3.797339720E-1,-2.694383524E0,7.452896154E-1,2.821233254E0
9.364688375E0,1.621451465E0,-2.790588933E0,1.789336867E0,3.690286963E0
9.374716375E0,2.557706905E0,-2.488891316E0,4.070167878E0,5.413197867E0
9.384743375E0,3.306047597E0,-2.103636403E0,6.451959838E0,7.548709995E0
9.394771375E0,3.285390261E0,-1.557902318E0,8.658452858E0,9.390934708E0
9.404798375E0,1.985395470E0,-1.305660451E0,9.347367128E0,9.644678150E0
9.414825375E0,-1.882520033E-1,-1.349996379E0,8.415446084E0,8.525119461E0
9.424853375E0,-2.168990440E0,-1.153260376E0,6.920584937E0,7.343638396E0
9.434880375E0,-4.616503642E0,1.545695670E0,3.982692070E0,6.289921868E0
9.444907375E0,-5.232147038E0,2.811197444E0,4.084956071E0,7.208679477E0
9.454935375E0,-6.064512219E0,1.507996332E0,2.750862365E0,6.827855091E0
9.464962375E0,-6.628888983E0,-1.272093925E0,1.000720846E0,6.823623254E0
9.474990375E0,-5.601982259E0,-2.161754803E0,-1.915426079E0,6.302717360E0
9.485017375E0,-1.912733875E0,-9.187437594E-1,-7.125286016E0,7.434537093E0
9.495044375E0,-2.802255443E-1,3.840597421E-1,-2.768077737E0,2.808608659E0
9.505072625E0,1.548992477E-1,-5.839842314E-1,-1.855575442E0,1.951458834E0
9.515099625E0,6.977781377E-1,-2.322624570E0,-2.732990935E0,3.653863527E0
9.525126625E0,1.364208475E0,-2.207004066E0,-5.589563942E-1,2.654122070E0
9.535154625E0,2.525915301E0,-7.111828065E-1,1.029851528E0,2.818975569E0
9.545181625E0,3.124236905E0,1.180362806E0,4.345979579E-1,3.367935269E0
9.555209625E0,1.470698990E0,3.274695704E0,-1.960711741E-1,3.595139966E0
9.565236625E0,-1.580332237E0,3.374445695E0,-6.484304881E-1,3.782168138E0
9.575263625E0,-3.484042981E0,2.123556113E0,-8.288531975E-1,4.163537400E0
9.585291625E0,-3.074832026E0,1.145217531E0,-5.413817105E-1,3.325538954E0
9.595318625E0,-7.693845293E-1,6.417839581E-1,-1.021598768E0,1.430909936E0
9.605345625E0,6.991039938E-1,3.392928743E-1,-1.376433103E0,1.580643583E0
9.615373625E0,8.943001322E-1,5.958289361E-1,-1.554124139E0,1.889467303E0
9.625400625E0,1.063144258E0,1.222037666E0,-7.239763682E-1,1.774202230E0
9.635428625E0,1.368665369E0,1.939509737E-1,-7.258790521E-1,1.561333491E0
9.645455625E0,8.667567497E-1,-8.050142455E-1,-7.064253657E-1,1.377806952E0
9.655482625E0,6.528799269E-1,-1.502564853E0,-5.353264801E-1,1.723521911E0
9.665510625E0,1.524946533E0,-8.756328231E-1,3.379237488E-2,1.758788417E0
9.675537625E0,2.210556542E0,9.946172297E-2,5.292082460E-1,2.275195426E0
9.685564625E0,1.851218535E0,9.058219975E-1,5.421436027E-1,2.131066222E0
9.695592625E0,7.523328790E-1,8.353648031E-1,2.722393441E-1,1.156699345E0
9.705619625E0,-4.621589550E-1,-2.224877250E-1,-2.297254086E-2,5.134388232E-1
9.715647625E0,-1.604725944E0,-1.609972942E0,-1.907160017E-1,2.281124903E0
9.725674625E0,-1.619306853E0,-2.718298051E0,6.004810540E-1,3.220539780E0
9.735701625E0,-4.396969492E-1,-2.067156794E0,1.769027295E0,2.756071151E0
9.745729625E0,6.673973939E-1,-1.093626378E0,1.948288747E0,2.331794798E0
9.755756625E0,1.037409493E0,-5.209652799E-1,1.248663547E0,1.704929304E0
9.765783625E0,1.134050811E0,-5.045977539E-1,8.773163827E-1,1.519991504E0
9.775811625E0,2.534494628E-1,-5.481671119E-1,1.559261795E0,1.672130724E0
9.785838625E0,3.869517750E-1,-9.510952342E-1,9.192746866E-1,1.378179876E0
9.795865625E0,1.064683245E0,-1.986421364E0,7.681651656E-1,2.381070761E0
9.805893625E0,1.807655902E0,-2.730278412E0,1.133561326E0,3.465112025E0
9.815920625E0,1.970618094E0,-3.090066946E0,1.332805126E0,3.899771648E0
9.825948625E0,1.205404969E0,-4.101520064E0,1.222897207E0,4.446453143E0
9.835975625E0,1.044297220E0,-5.570275732E0,7.776738346E-1,5.720428743E0
9.846002625E0,7.229202148E-1,-7.123610789E0,-4.324191026E-1,7.173244077E0
9.856030625E0,-4.146348327E-1,-7.989159504E0,-1.293819255E0,8.103860802E0
9.866057625E0,-1.324727929E0,-5.742076868E0,-4.616797757E-1,5.910964309E0
9.876085625E0,-1.841853050E0,-2.985798227E0,9.266316533E-1,3.628506571E0
9.886112625E0,-8.326932102E-1,-2.345124655E0,3.975884449E-1,2.520131783E0
9.896139625E0,-7.547261444E-1,-2.215107138E0,3.096042216E-1,2.360543573E0
9.906167625E0,-2.226984002E0,-2.442073245E0,1.019291310E0,3.458631847E0
9.916194625E0,-2.247277933E0,-1.210939651E0,6.805901742E-1,2.641937912E0
9.926221625E0,-4.783978423E-1,-1.724448561E0,-1.206140256E-1,1.793637388E0
9.936249625E0,-3.297642517E-1,-4.046617048E0,-1.064611909E0,4.197291092E0
9.946276625E0,-1.675092798E0,-1.533462710E0,5.072401106E-1,2.326958594E0
9.956303625E0,-6.555810481E-2,-2.939414604E0,3.430327535E-2,2.940345693E0
9.966331625E0,7.632604480E-2,-5.080498331E0,4.727660966E-1,5.103018394E0
9.976358625E0,-2.515410778E0,-3.740998288E0,-7.172416914E-1,4.564733861E0
9.986386625E0,-3.889188368E0,-2.922912008E0,-2.667941830E0,5.548613734E0
9.996413625E0,-4.881439229E0,-3.275090391E0,-1.842366436E0,6.160274353E0
1.000644062E1,-8.164855471E0,-2.729841040E0,-2.132937093E-1,8.611758889E0
1.001646862E1,-8.604076676E0,-3.368905458E0,5.558105191E-1,9.256812883E0
1.002649562E1,-6.319744937E0,-3.799863378E0,-8.567259244E-1,7.423753570E0
1.003652263E1,-3.799086283E0,-5.869014072E-1,-2.332111677E0,4.496248961E0
1.004655063E1,-3.605046431E0,-1.356904864E-1,-1.763682647E0,4.015637952E0
1.005657762E1,-4.168208143E0,-8.721993381E-1,-4.988590041E0,6.559018326E0
1.006660562E1,-3.833493639E0,-2.209376281E-1,-2.912020691E0,4.819165013E0
1.007663262E1,-3.248990759E0,4.399450904E-1,-8.062404066E-2,3.279633039E0
1.008665962E1,-1.620258780E0,1.451616894E0,-1.171314240E-1,2.178566017E0
1.009668762E1,1.177588887E0,1.828890358E0,2.877740805E0,3.607346347E0
1.010671462E1,3.999708930E0,2.318801075E0,6.716214225E-1,4.671786091E0
1.011674163E1,3.269009287E0,1.628516217E0,2.754589672E0,4.574521948E0
1.012676962E1,3.322780867E0,9.330875641E-1,-3.246628484E-1,3.466544541E0
1.013679662E1,5.184937204E0,1.245660417E0,-7.397575647E0,9.119175902E0
1.014682462E1,8.240646495E0,1.140107650E0,-9.164620004E0,1.237733250E1
1.015685162E1,9.595416541E0,3.279339563E0,-5.424592938E0,1.150009979E1
1.016687862E1,8.793744564E0,3.591911246E0,-7.682685882E-1,9.530058052E0
1.017690662E1,9.876464131E0,2.902350274E0,1.399980133E0,1.038884619E1
1.018693362E1,1.009928982E1,2.775479727E0,1.040672824E0,1.052530012E1
1.019696063E1,9.218092207E0,2.333843037E0,2.341276018E0,9.792937284E0
1.020698862E1,6.815742606E0,3.243205524E0,3.472468418E0,8.308475567E0
1.021701562E1,4.473523140E0,3.266248816E0,4.013206058E0,6.840074084E0
1.022704362E1,3.771566947E0,3.190466563E0,3.918875266E0,6.305662334E0
1.023707062E1,4.111396011E0,3.621025702E0,5.071898246E0,7.465892854E0
1.024709762E1,5.193468876E0,3.644595244E0,6.653194689E0,9.193486445E0
1.025712562E1,5.379796835E0,3.904173027E0,7.686135739E0,1.016176479E1
1.026715263E1,4.308782516E0,3.902476750E0,7.892671090E0,9.802509296E0
1.027717963E1,2.025772833E0,3.130266846E0,7.757497498E0,8.607037442E0
1.028720762E1,-3.500114053E-2,1.654121175E0,7.027445142E0,7.219579431E0
1.029723462E1,-1.283950909E0,7.981420130E-1,6.381870434E0,6.558493031E0
1.030726262E1,-2.264983302E0,4.881773105E-1,6.218627867E0,6.636248865E0
1.031728962E1,-2.439235884E0,-4.644604191E-1,6.023453071E0,6.515180894E0
1.032731662E1,-3.187889695E0,-1.888448196E0,5.333236041E0,6.494019092E0
1.033734462E1,-4.536185996E0,-3.418822553E0,4.222201332E0,7.077592467E0
1.034737163E1,-5.806955234E0,-4.649383705E0,3.477190629E0,8.211476883E0
1.035739862E1,-7.151801385E0,-5.052787206E0,2.959249529E0,9.243163927E0
1.036742662E1,-8.079901274E0,-4.897533398E0,2.238251002E0,9.709809758E0
1.037745362E1,-8.279411781E0,-4.671189142E0,1.634318410E0,9.645707030E0
1.038748162E1,-8.143190367E0,-4.266800093E0,1.022724211E0,9.250032281E0
1.039750862E1,-7.871446282E0,-4.051469360E0,8.290123880E-2,8.853301258E0
1.040753562E1,-6.470931129E0,-4.183143101E0,-4.191605777E-1,7.716691744E0
1.041756362E1,-4.464555265E0,-4.205967708E0,-2.169574285E-1,6.137547442E0
1.042759063E1,-2.075942236E0,-4.808145258E0,-2.094542813E-1,5.241342203E0
1.043761762E1,-1.040412038E0,-4.912098520E0,-6.326506072E-1,5.060772260E0
1.044764562E1,-1.324920887E0,-4.092048452E0,-1.208722971E0,4.467805626E0
1.045767262E1,-1.218751238E0,-3.595020211E0,-1.449334726E0,4.063261749E0
1.046770062E1,-1.081184673E0,-3.437998789E0,-1.188291045E0,3.794842761E0
1.047772762E1,-1.052999631E0,-3.883565978E0,-6.694085437E-1,4.079093125E0
1.048775462E1,-8.792221364E-1,-4.400903937E0,-2.039754403E-1,4.492504091E0
1.049778262E1,4.161463380E-3,-4.580109695E0,-4.344188869E-2,4.580317602E0
1.050780975E1,1.002451329E0,-4.569624468E0,-3.127815986E-1,4.688732107E0
1.051783675E1,1.495848742E0,-4.522949946E0,-1.009138205E0,4.869599531E0
1.052786475E1,1.797086913E0,-4.445349793E0,-1.829860995E0,5.132158164E0
1.053789175E1,2.213678224E0,-4.160300369E0,-2.216951934E0,5.208007903E0
1.054791875E1,2.347347767E0,-3.864392080E0,-2.293634074E0,5.069943289E0
1.055794675E1,1.948111576E0,-3.680214143E0,-2.476679991E0,4.844900270E0
1.056797375E1,1.432335993E0,-3.567723654E0,-2.365970564E0,4.514205930E0
1.057800175E1,1.146858260E0,-3.269624999E0,-1.957913264E0,3.979843697E0
1.058802875E1,1.532190210E0,-2.802284533E0,-1.642874640E0,3.591579392E0
1.059805575E1,1.855173592E0,-2.444353074E0,-1.606320187E0,3.463639062E0
1.060808375E1,2.780307189E0,-2.442010095E0,-1.183329683E0,3.885072780E0
1.061811075E1,4.078817957E0,-2.343442411E0,-1.671525997E-1,4.707060468E0
1.062813775E1,3.606100392E0,-1.881362686E0,-2.013278210E-1,4.072348031E0
1.063816575E1,4.752753707E0,-1.872564965E0,1.739850712E-1,5.111304937E0
1.064819275E1,4.697723222E0,-1.991852258E0,-4.857609487E-1,5.125626068E0
1.065822075E1,2.666282390E0,-1.781058379E0,-1.374598539E0,3.488660471E0
1.066824775E1,8.536120628E-1,-1.583037159E0,-1.468108966E0,2.321638244E0
1.067827475E1,2.308561139E-1,-1.654650348E0,-1.261408723E0,2.093397785E0
1.068830275E1,5.324971586E-1,-1.783169809E0,-1.092325373E0,2.157874536E0
1.069832975E1,7.094707417E-1,-1.780132180E0,-7.097853220E-1,2.043529916E0
1.070835675E1,6.567770961E-1,-1.773689718E0,-2.055875176E-1,1.902524007E0
1.071838475E1,4.845663625E-1,-1.662202027E0,-1.859999299E-3,1.731393542E0
1.072841175E1,3.361931191E-1,-1.650269614E0,-2.417847061E-1,1.701433353E0
1.073843975E1,3.849809709E-1,-1.698548904E0,-5.914628202E-1,1.839322428E0
1.074846675E1,4.546471833E-1,-1.740113837E0,-1.190898904E0,2.157067552E0
1.075849375E1,4.302216093E-1,-1.687622797E0,-1.287959760E0,2.166102879E0
1.076852175E1,5.544038252E-1,-1.619941276E0,-6.699055570E-1,1.838571944E0
1.077854875E1,4.226781164E-1,-1.412703674E0,-8.319547069E-1,1.693085082E0
1.078857575E1,7.976762822E-1,-1.160667045E0,-7.441616875E-1,1.592862849E0
1.079860375E1,1.052183799E0,-9.297862262E-1,-6.231857193E-1,1.536214052E0
1.080863075E1,5.810521451E-1,-6.979856408E-1,-6.529632497E-1,1.118555567E0
1.081865875E1,2.123028986E-2,-6.662586486E-1,-6.983183473E-1,9.654013809E-1
1.082868575E1,-2.201811446E-1,-8.908618963E-1,-8.100440204E-1,1.224044921E0
1.083871275E1,-2.389069989E-1,-9.780111372E-1,-9.404316670E-1,1.377677052E0
1.084874075E1,-1.080767182E-1,-8.960127085E-1,-8.995976365E-1,1.274282252E0
1.085876775E1,-2.691941142E-2,-9.006004339E-1,-5.465831012E-1,1.053830576E0
1.086879475E1,-1.356381539E-1,-8.534432244E-1,-1.526708007E-1,8.775371328E-1
1.087882275E1,-1.829272181E-2,-8.220518625E-1,-8.547810674E-2,8.266863946E-1
1.088884975E1,1.722997575E-1,-6.576579791E-1,-3.152444458E-1,7.493866055E-1
1.089887675E1,3.290577619E-1,-4.764194369E-1,-6.101639700E-1,8.411626245E-1
1.090890475E1,5.189247479E-1,-4.400450778E-1,-5.602100372E-1,8.813386694E-1
1.091893175E1,4.946690355E-1,-4.890558547E-1,-2.165013456E-1,7.285231063E-1
1.092895975E1,7.098315150E-2,-5.488225847E-1,6.966372728E-2,5.577614833E-1
1.093898675E1,-2.776389554E-1,-5.932772112E-1,2.369993448E-2,6.554562730E-1
1.094901375E1,-1.855786380E-1,-5.666992772E-1,-3.634822208E-1,6.983600980E-1
1.095904175E1,2.449619369E-1,-4.470161283E-1,-1.674370083E0,1.750241396E0
1.096906875E1,8.226202118E-1,-1.723115981E-1,-2.127682493E0,2.287668702E0
1.097909575E1,9.680406113E-1,-1.664035714E-1,-7.100683272E-2,9.848018806E-1
1.098912375E1,8.493276617E-1,-1.310881430E-1,4.990768129E-1,9.937903417E-1
1.099915075E1,2.146843234E-1,5.066787779E-2,7.772206753E-1,8.079161904E-1
1.100917875E1,-9.645201489E-2,3.686669469E-3,9.751775765E-1,9.799427986E-1