"Time (s)","Linear Acceleration x (m/s^2)","Linear Acceleration y (m/s^2)","Linear Acceleration z (m/s^2)","Absolute acceleration (m/s^2)"
6.552166655E-3,-1.629530709E0,5.823230374E-1,-2.010041192E0,2.652307683E0
1.657816675E-2,-1.293462867E0,9.662699282E-1,-2.384239020E0,2.879465135E0
2.660416672E-2,-1.332135328E0,9.687690282E-1,-2.032899712E0,2.616443999E0
3.663016669E-2,-1.073984265E0,6.357402760E-1,-1.141542556E0,1.691368472E0
4.665716668E-2,-6.180964489E-1,4.138969141E-1,6.806159019E-2,7.469847761E-1
5.668316665E-2,-1.004675464E0,-6.988241315E-2,5.722868764E-1,1.158347361E0
6.670916674E-2,-8.880200033E-1,4.224750718E-1,-3.600276858E-1,1.047227123E0
7.673516672E-2,-2.807721859E-1,1.051549814E0,-1.160288145E0,1.590867251E0
8.676216670E-2,1.037276761E0,-9.135403222E-1,-1.352207211E0,1.933639920E0
9.678816667E-2,2.874099451E-1,-1.546216365E0,-1.382481755E0,2.093954471E0
1.068141666E-1,-1.250081643E0,-1.540111287E0,-5.609678364E-1,2.061390745E0
1.168401667E-1,-1.365078395E0,-1.416265505E0,3.919090444E-1,2.005701798E0
1.268671667E-1,-5.542411995E-1,-1.013569371E0,1.817695863E0,2.153723387E0
1.368931667E-1,6.680385411E-1,-7.735199726E-1,2.363760316E0,2.575261438E0
1.469191667E-1,1.613324566E0,-7.373069966E-1,1.683564829E0,2.445573204E0
1.569451666E-1,1.609603983E0,-5.247715981E-1,6.350029421E-1,1.808158994E0
1.669722500E-1,1.188090559E0,-2.721191838E-2,-7.685878462E-1,1.415283343E0
1.769982501E-1,9.041654813E-1,3.210407907E-1,-2.030523403E0,2.245797787E0
1.870242500E-1,8.552004589E-1,7.487888816E-1,-1.271955346E0,1.705849646E0
1.970502500E-1,5.580759497E-1,1.080363870E0,-8.871220171E-2,1.219222995E0
2.070772500E-1,4.534801521E-1,1.217154656E0,8.112906468E-1,1.531437958E0
2.171032500E-1,6.958964306E-1,1.261799317E0,9.668295068E-1,1.735271925E0
2.271292501E-1,1.234214346E0,9.135626147E-1,8.729045123E-1,1.766308011E0
2.371552500E-1,1.756583396E0,4.766145147E-1,9.078252536E-1,2.033935426E0
2.471822500E-1,1.410109849E0,1.371107751E-1,1.189128367E0,1.849658191E0
2.572082500E-1,6.690791262E-1,-2.797476806E-1,1.096165239E0,1.314345416E0
2.672342501E-1,1.044377766E-1,-3.972910409E-1,5.846268404E-1,7.145179934E-1
2.772602501E-1,-1.551542447E0,-1.055802494E-1,8.434170038E-1,1.769119385E0
2.872862500E-1,-4.030835997E0,4.066943139E-2,-3.545739877E-1,4.046605436E0
2.973132500E-1,-2.396796500E0,-4.321642005E-1,-1.774646323E0,3.013431421E0
3.073392500E-1,1.089772040E0,-9.644635771E-1,3.100678473E0,3.425200736E0
3.173652501E-1,8.513825195E-1,-1.379160390E0,6.054897058E-1,1.730188822E0
3.273912501E-1,-1.782501765E-1,-1.755176556E0,1.965658486E0,2.641255602E0
3.374182500E-1,-9.546814777E-1,-2.047318068E0,1.420365281E0,2.668401306E0
3.474442500E-1,-9.811148393E-1,-2.059456596E0,-5.633733809E-1,2.349752618E0
3.574702500E-1,-1.332530892E0,-1.932734569E0,-2.970235278E0,3.785947583E0
3.674962501E-1,-7.432509837E-1,-2.327593826E0,-3.350546955E0,4.146839753E0
3.775232501E-1,4.268230614E-1,-3.249364104E0,-2.313913972E0,4.011825380E0
3.875492500E-1,9.910501358E-1,-3.562392163E0,-1.647078788E0,4.047923767E0
3.975752500E-1,2.229505321E-1,-3.361060541E0,-1.431339335E0,3.659940873E0
4.076012500E-1,-6.130943021E-1,-3.092116688E0,-1.874829592E0,3.667704491E0
4.176282501E-1,-2.279028899E0,-2.500959969E0,-2.866673487E0,4.434702963E0
4.276542501E-1,-4.218846785E0,-1.661911713E0,-3.493226618E0,5.723919194E0
4.376802500E-1,-4.249881467E0,-1.884996731E0,-2.289686034E0,5.182409410E0
4.477062500E-1,-4.446681789E0,-3.220477982E0,-6.371143717E-1,5.527239101E0
4.577332500E-1,-5.237145823E0,-3.883693154E0,9.491370016E-1,6.588750256E0
4.677592501E-1,-6.416485950E0,-5.710372095E0,2.191763299E0,8.864731681E0
4.777852501E-1,-5.392656616E0,-7.186412809E0,1.146143730E0,9.057533875E0
4.878112500E-1,-3.408070108E0,-6.642793661E0,-1.373645443E0,7.591347133E0
4.978382500E-1,-4.209887681E0,-5.545698130E0,-1.665680243E0,7.159079041E0
5.078642500E-1,-6.505225049E0,-6.038622503E0,4.816725755E-1,8.889033870E0
5.178902501E-1,-5.810606235E0,-5.898032050E0,1.601028749E0,8.432865464E0
5.279162501E-1,-4.201682283E0,-5.455060440E0,7.711992127E-1,6.928677121E0
5.379432500E-1,-3.870156265E0,-5.893742532E0,1.506462023E-1,7.052446727E0
5.479692500E-1,-3.334904484E0,-6.456406646E0,5.082877855E-1,7.284581742E0
5.579952500E-1,-2.096292885E0,-6.916747994E0,1.327481090E0,7.348336731E0
5.680212501E-1,-1.479644353E0,-7.297953125E0,2.029231022E0,7.717981975E0
5.780482501E-1,-2.408797910E0,-7.395753070E0,2.328595161E0,8.119225718E0
5.880742500E-1,-3.000530872E0,-7.498743587E0,2.143322625E0,8.356325315E0
5.981002500E-1,-1.124946989E0,-7.832689183E0,1.441804389E0,8.043340441E0
6.081262500E-1,1.282413091E0,-7.726517780E0,9.327367312E-1,7.887563511E0
6.181522501E-1,2.859498369E0,-7.163911554E0,1.244093802E0,7.813202228E0
6.281792501E-1,3.142766147E0,-6.597892892E0,8.487068336E-1,7.357273473E0
6.382052500E-1,2.507336943E0,-6.585480423E0,-5.920656681E-2,7.046899770E0
6.482312500E-1,2.751558183E0,-6.323205904E0,-1.313177047E0,7.019860347E0
6.582572500E-1,4.187813272E0,-5.764899135E0,-2.726358438E0,7.629211780E0
6.682842501E-1,6.860777276E0,-4.556099273E0,-3.385030909E0,8.904310174E0
6.783102500E-1,9.708722717E0,-3.484141214E0,-1.441447417E0,1.041519599E1
6.883362500E-1,9.860205363E0,-2.845307177E0,-1.393214612E-1,1.026347082E1
6.983622500E-1,9.343350091E0,-2.694796922E0,-5.950214356E-1,9.742390460E0
7.083892500E-1,1.013571798E1,-2.301683351E0,1.163348870E-1,1.039442442E1
7.184152501E-1,1.106497854E1,-1.778410760E0,2.018148941E-1,1.120880119E1
7.284412500E-1,1.132028903E1,-9.170556682E-1,-6.201852205E-1,1.137429402E1
7.384672500E-1,1.134250377E1,-4.644922864E-1,-1.061529842E0,1.140153456E1
7.484942500E-1,1.189238528E1,-1.213554525E-1,-7.605072865E-1,1.191729525E1
7.585202500E-1,1.223595130E1,1.190294302E0,-5.049436167E-1,1.230407546E1
7.685462501E-1,1.206768013E1,2.628286014E0,-4.324887210E-1,1.235814863E1
7.785722500E-1,1.221722267E1,3.721175643E0,-2.983432444E0,1.311520290E1
7.885992500E-1,1.293032219E1,4.184209633E0,-9.641217781E0,1.666295060E1
7.986252500E-1,1.188650298E1,6.296247901E0,-1.865704427E1,2.300036938E1
8.086512501E-1,8.444455290E0,5.417918342E0,-6.711229473E0,1.207076076E1
8.186772501E-1,6.656845105E0,1.140098879E0,1.547969506E0,6.928897589E0
8.287042500E-1,5.347589201E0,1.885750437E-1,1.608475324E0,5.587438025E0
8.387302500E-1,4.915552470E0,-1.505307198E-2,-1.260792426E0,5.074690160E0
8.487562500E-1,4.393782029E0,-3.893257445E-1,-1.699639410E0,4.727120601E0
8.587822501E-1,5.668467439E0,-9.715903097E-1,-6.913187917E-1,5.792532478E0
8.688092501E-1,5.198691024E0,-1.694250031E0,1.836781467E0,5.768070535E0
8.788352500E-1,2.576116571E0,-6.471873701E-1,4.095484568E0,4.881415975E0
8.888612500E-1,-4.217652199E0,2.662563561E0,-1.558390560E0,5.225554126E0
8.988872500E-1,-5.873432813E0,4.675376918E0,-5.478842821E0,9.293765705E0
9.089132501E-1,-6.098662882E0,5.175157735E0,-5.824453904E-1,8.019675129E0
9.189402501E-1,-7.360796075E0,4.500995990E0,-4.032766163E-2,8.627972536E0
9.289662500E-1,-6.167979285E0,2.118491839E0,2.663869829E0,7.044727007E0
9.389922500E-1,-4.595048454E0,6.289949280E-1,2.380781561E0,5.213273996E0
9.490182500E-1,-4.122057824E0,1.192758318E0,-7.271971607E-1,4.352338317E0
9.590452501E-1,-2.519751166E0,2.403264105E0,-1.648479050E0,3.852571541E0
9.690712501E-1,-6.298030132E-1,1.865188118E0,-1.229147880E0,2.320858260E0
9.790972500E-1,-5.175364727E-1,1.098747370E0,-9.232700890E-1,1.525620346E0
9.891232500E-1,-1.010631584E0,1.446114079E0,-1.014299104E0,2.035049091E0
9.991502500E-1,-2.014663416E0,2.216503453E0,-7.037141579E-1,3.076844138E0
1.009176250E0,-6.477504569E-1,3.091148096E0,5.650106013E-2,3.158792424E0
1.019202250E0,4.463442832E-1,4.155897415E0,-4.996855080E-1,4.209559615E0
1.029228250E0,-2.661255539E0,3.027369007E0,-9.161762470E-1,4.133596868E0
1.039255250E0,-1.773944657E0,-2.899528992E-1,4.982763290E-2,1.798175498E0
1.049281250E0,-1.721660609E0,-7.167166114E-2,1.094726093E0,2.041488990E0
1.059307250E0,-2.607554126E0,9.115785813E-1,1.444897712E0,3.117377652E0
1.069333250E0,-3.197477959E0,2.314971149E0,-5.367400445E-1,3.983848214E0
1.079360250E0,-4.061233333E0,2.073240237E0,-2.266196161E0,5.091913816E0
1.089386250E0,-4.348541536E0,1.588799590E0,-7.035241234E-1,4.682845697E0
1.099412250E0,-3.296238016E0,1.660059022E0,-4.038508129E-1,3.712691274E0
1.109438250E0,-2.340455654E0,9.186753470E-1,-1.984948450E-1,2.522121580E0
1.119465250E0,-1.205247971E0,-1.001178390E0,-2.344809490E-1,1.584286008E0
1.129491250E0,-5.386969614E-1,-1.536508525E0,-1.531882793E-1,1.635395827E0
1.139517250E0,-9.181602073E-1,-1.705552699E0,2.996592772E-1,1.960031596E0
1.149543250E0,7.488973475E-1,-1.893331352E0,-5.382603206E-2,2.036773941E0
1.159570250E0,3.439207116E0,-1.971301049E0,-3.294993728E-1,3.977781197E0
1.169595875E0,1.745922461E0,-4.816000700E-1,-1.934778317E0,2.650198295E0
1.179621875E0,2.057564437E0,1.924033912E0,-7.197795584E0,7.729407427E0
1.189647875E0,4.676117175E0,1.359154288E0,-7.126808631E-1,4.921512596E0
1.199674875E0,6.859596139E0,-3.435239196E-3,4.227041073E0,8.057415666E0
1.209700875E0,9.163211410E0,-3.512995470E-1,3.201800805E0,9.712846293E0
1.219726875E0,8.282507297E0,-6.598793364E-1,6.948106027E-1,8.337753273E0
1.229752875E0,8.067815080E0,-6.268583554E-1,4.512980078E-1,8.104706130E0
1.239778875E0,4.640167616E0,-1.480912614E-1,-1.501214512E-1,4.644956725E0
1.249805875E0,1.839285538E-1,1.335250286E0,-1.480064768E0,2.001827854E0
1.259831875E0,-2.885697111E0,3.582493136E0,-1.157868567E0,4.743644644E0
1.269857875E0,-6.033400939E0,5.030649063E0,7.135333872E-1,7.887869597E0
1.279883875E0,-7.221670350E0,5.016770112E0,3.081785535E0,9.317612735E0
1.289910875E0,-6.987528539E0,4.557124583E0,3.728281764E0,9.137451749E0
1.299936875E0,-5.648190465E0,4.385490677E0,2.848974550E0,7.697482705E0
1.309962875E0,-4.233172463E0,3.951581667E0,3.350471380E-1,5.800603706E0
1.319988875E0,-2.964816079E0,3.661184379E0,-3.851179127E0,6.084898200E0
1.330015875E0,-1.795182621E0,3.936280673E0,-4.555311946E0,6.282344555E0
1.340041875E0,-1.450667014E0,4.768831796E0,-1.782277524E0,5.293647576E0
1.350067875E0,-1.691502717E0,5.278862783E0,8.001364982E-1,5.600695683E0
1.360093875E0,-2.091114445E0,5.463752911E0,3.288414441E0,6.711112056E0
1.370120875E0,-2.048370275E0,5.659406594E0,2.825755257E0,6.649029745E0
1.380146875E0,-1.527368888E0,5.625936547E0,6.297642754E-1,5.863499023E0
1.390172875E0,-1.266276822E0,5.316680235E0,-1.133756989E0,5.581751573E0
1.400198875E0,-2.947701863E0,5.562909409E0,-3.243385472E-1,6.303975164E0
1.410225875E0,-3.539725431E0,6.351921580E0,1.661289861E0,7.458984374E0
1.420251875E0,-1.969235812E0,6.720812475E0,1.555385676E0,7.174011055E0
1.430277875E0,-8.298660815E-1,6.435250835E0,-1.107373255E0,6.582355699E0
1.440303875E0,-1.039837586E-1,6.184985327E0,2.612160270E-1,6.191372217E0
1.450330875E0,-7.959368818E-1,-7.552308760E0,3.060962430E0,8.187818643E0
1.460356875E0,-9.935864825E0,-5.458543744E1,-1.806776919E0,5.551176301E1
1.470382875E0,-1.819124046E0,-5.906468529E1,-1.176910025E-1,5.909280931E1
1.480408875E0,1.506460502E1,-3.087173159E1,-2.219496935E0,3.442284565E1
1.490435875E0,1.399815358E1,-1.055616202E1,1.764419543E0,1.762084097E1
1.500461875E0,6.781427051E0,8.421540052E-1,4.299484566E0,8.073570695E0
1.510487875E0,-1.744518252E-1,6.477315120E0,4.353152651E0,7.806150306E0
1.520513875E0,-3.517036188E0,8.927115460E0,1.713020763E0,9.746659639E0
1.530539875E0,-4.358697273E0,9.698469039E0,-1.872216910E0,1.079646886E1
1.540566875E0,-4.826468678E0,9.043716542E0,-2.383440729E0,1.052446666E1
1.550592875E0,-4.519619372E0,7.303961139E0,-1.262543668E0,8.681521992E0
1.560618875E0,-3.959356417E0,3.847490703E0,-9.194430864E-1,5.596879804E0
1.570644875E0,-3.599907314E0,-1.475447221E0,-8.138192021E-1,3.974742616E0
1.580671875E0,-2.014393859E0,-5.738134090E0,-1.066931354E0,6.174326520E0
1.590697875E0,1.100556279E0,-6.090434096E0,-9.378086060E-1,6.259720168E0
1.600723875E0,2.474536402E0,-3.093935464E0,-1.903777403E-1,3.966359886E0
1.610749875E0,1.361151989E0,-6.837815845E-1,-4.390218882E-1,1.585254621E0
1.620776875E0,3.385430420E-1,4.664359009E-1,-1.477013106E0,1.585478337E0
1.630802875E0,4.632683180E-2,9.016926938E-1,-1.679469001E0,1.906780536E0
1.640828875E0,3.505271298E-1,5.252910501E-1,-1.333769625E0,1.475717238E0
1.650854875E0,7.207989912E-1,-8.483900607E-2,-1.262051917E0,1.455858469E0
1.660881875E0,9.759232427E-1,-4.690010744E-1,-1.551936842E0,1.892325592E0
1.670907875E0,1.040780997E0,-6.472212839E-1,-1.822991686E0,2.196683674E0
1.680933875E0,9.024957358E-1,-7.994383407E-1,-2.116803163E0,2.436073859E0
1.690959875E0,7.228750451E-1,-9.082409906E-1,-2.417123176E0,2.681405317E0
1.700986875E0,4.312181211E-1,-8.352987295E-1,-2.693003581E0,2.852357152E0
1.711012875E0,1.105729676E-1,-5.890935284E-1,-3.176685260E0,3.232736736E0
1.721038875E0,-1.161154702E-1,-3.402202427E-1,-3.739055843E0,3.756297541E0
1.731064875E0,-1.197161125E-1,-1.392759991E-1,-3.968218750E0,3.972466463E0
1.741090875E0,1.889863953E-2,-1.397133708E-2,-4.039867022E0,4.039935385E0
1.751117875E0,-3.596680820E-2,1.037237585E-2,-3.834566603E0,3.834749304E0
1.761143875E0,-3.915953413E-2,-8.262232661E-2,-3.206769769E0,3.208072984E0
1.771169875E0,9.566556439E-2,-6.904509187E-1,-2.805090612E0,2.890399231E0
1.781195875E0,-2.430469738E-1,-1.593504260E0,-1.847738857E0,2.452033144E0
1.791222875E0,-8.404371165E-1,-2.141008882E0,-1.152612359E0,2.572696801E0
1.801248875E0,-9.392452669E-1,-2.288373334E0,-4.508650580E-1,2.514381333E0
1.811274875E0,-9.914616336E-1,-2.505935365E0,-2.619820122E-1,2.707645250E0
1.821300875E0,-1.046554684E0,-1.972431316E0,-7.286693434E-1,2.348770107E0
1.831327875E0,-5.942101344E-1,-1.462852904E0,-1.158429607E0,1.958311379E0
1.841353875E0,-8.277910508E-1,-1.435700188E0,-8.409955256E-1,1.858425820E0
1.851379875E0,-8.966697894E-1,-1.427893571E0,-6.375423878E-1,1.802597309E0
1.861405875E0,-7.191804819E-1,-7.767388648E-1,1.162451030E0,1.572207438E0
1.871432875E0,1.071986125E-1,-1.609779400E-1,1.507828517E0,1.520181659E0
1.881458875E0,9.546902485E-1,2.357047713E-1,1.400886451E0,1.711570349E0
1.891484875E0,1.213396066E0,2.529359311E-1,8.866355288E-1,1.523951823E0
1.901510875E0,1.376082270E0,1.712327868E-1,8.264191478E-2,1.389155415E0
1.911537875E0,1.545805013E0,4.542760313E-2,-3.119521710E-1,1.577621933E0
1.921563875E0,1.427409275E0,-8.970505893E-2,-3.112095746E-1,1.463692466E0
1.931589875E0,1.190576576E0,2.985062063E-2,-2.081816348E-1,1.209009196E0
1.941615875E0,8.614030391E-1,2.968818498E-1,-5.863938689E-2,9.130129277E-1
1.951642875E0,5.551694450E-1,5.392822677E-1,8.943111688E-2,7.791254081E-1
1.961668875E0,4.960356760E-1,8.651125127E-1,3.967891306E-2,9.980207752E-1
1.971694875E0,4.656669921E-1,1.177907560E0,2.806546569E-1,1.297335347E0
1.981720875E0,4.126692912E-1,1.289872384E0,3.367429036E-1,1.395515136E0
1.991747875E0,3.054828116E-1,1.239341331E0,4.127567071E-1,1.341512125E0
2.001773875E0,1.653861558E-1,1.081201045E0,6.556336731E-1,1.275226958E0
2.011799875E0,6.919711947E-2,1.018703665E0,7.103504553E-1,1.243842099E0
2.021825875E0,-9.128088355E-2,1.050355228E0,4.891441476E-1,1.162256556E0
2.031851875E0,-3.526859218E-1,1.185218918E0,2.255741778E-1,1.256986457E0
2.041878875E0,-5.638893977E-1,1.466374097E0,-7.285455287E-2,1.572746652E0
2.051904875E0,-6.037507439E-1,1.854238622E0,-1.554151914E-1,1.956238664E0
2.061930875E0,-9.172109118E-1,2.074395062E0,-4.863278362E-1,2.319677886E0
2.071956875E0,-1.387473815E0,2.111652351E0,-3.871038026E-1,2.556170690E0
2.081983875E0,-1.394313596E0,2.195897280E0,-2.891939306E-1,2.617194757E0
2.092009875E0,-1.350735467E0,2.207477691E0,-5.279415929E-1,2.641243340E0
2.102035875E0,-1.366327945E0,2.175685794E0,-7.149484134E-1,2.666760575E0
2.112061875E0,-1.127981109E0,2.035610481E0,-6.792897534E-1,2.424352693E0
2.122088875E0,-5.293917024E-1,1.687098302E0,-8.411412674E-1,1.958079387E0
2.132114875E0,-2.590959728E-2,1.142530151E0,-1.053782574E0,1.554510909E0
2.142140875E0,5.237818837E-1,7.470075274E-1,-1.324987253E0,1.608713439E0
2.152166875E0,7.696304047E-1,4.759873277E-1,-1.414348496E0,1.679070148E0
2.162194625E0,9.474164584E-1,3.964751351E-1,-6.767421216E-1,1.229947307E0
2.172220625E0,1.268187692E0,7.096034735E-1,2.561127234E-1,1.475612022E0
2.182246625E0,1.162875538E0,1.147789721E0,8.775793612E-1,1.854682263E0
2.192272625E0,8.703709137E-1,1.670868770E0,1.357705933E0,2.322221646E0
2.202299625E0,6.318749741E-1,2.239463714E0,1.392869334E0,2.711927118E0
2.212325625E0,3.526145858E-1,2.660596558E0,1.069253429E0,2.889016093E0
2.222351625E0,-1.032475027E-1,2.848126704E0,9.582072026E-1,3.006766837E0
2.232377625E0,-6.193698263E-1,2.750433179E0,7.148700607E-1,2.908528985E0
2.242404625E0,-1.163941193E0,2.443753150E0,2.033211368E-1,2.714411178E0
2.252430625E0,-1.612463272E0,2.046051854E0,-2.078743637E-1,2.613346082E0
2.262456625E0,-1.722137449E0,1.841384688E0,-2.405737478E-1,2.532652896E0
2.272482625E0,-1.502560760E0,2.011854998E0,-1.030986911E-1,2.513141204E0
2.282508625E0,-1.276292518E0,2.354367349E0,-1.479561907E-1,2.682137066E0
2.292535625E0,-9.962176126E-1,2.579146598E0,-4.196049660E-1,2.796518377E0
2.302561625E0,-8.761982489E-1,2.474521784E0,-6.736650243E-1,2.710130254E0
2.312587625E0,-9.836504844E-1,2.048056864E0,-9.377752769E-1,2.457951925E0
2.322613625E0,-1.047069093E0,1.586218629E0,-1.398921787E0,2.359963006E0
2.332640625E0,-9.142416957E-1,1.215228583E0,-1.739647813E0,2.310626085E0
2.342666625E0,-7.863385311E-1,1.115227747E0,-1.881488401E0,2.324233168E0
2.352692625E0,-4.322060081E-1,1.493693458E0,-1.822061394E0,2.395376777E0
2.362718625E0,-1.773679778E-1,2.153804344E0,-2.001395499E0,2.945490875E0
2.372745625E0,-2.559142104E-1,2.885094556E0,-2.260068718E0,3.673849927E0
2.382771625E0,-3.379500613E-1,3.511630145E0,-2.470919606E0,4.307110426E0
2.392797625E0,-1.095131744E0,3.538848349E0,-2.420062571E0,4.424868814E0
2.402823625E0,-3.051634075E0,1.835566124E0,-1.563356600E0,3.889197524E0
2.412850625E0,-5.571341679E0,-2.162638317E0,1.387769392E-1,5.977968855E0
2.422876625E0,-7.626457887E0,-7.754949866E0,-4.667247534E-3,1.087667822E1
2.432902625E0,-9.348232516E0,-1.382207170E1,-2.963668855E0,1.694763849E1
2.442928625E0,-1.048926870E1,-1.959557150E1,-8.054554764E0,2.364079171E1
2.452955625E0,-7.174380993E0,-2.158968137E1,-8.601950043E0,2.432241001E1
2.462981625E0,-3.536045194E-2,-1.580859422E1,-4.180817079E0,1.635212931E1
2.473007625E0,4.474385896E0,-5.045931931E0,4.132870495E-2,6.744128280E0
2.483033625E0,4.964371458E0,4.701230382E0,5.293143438E0,8.646613125E0
2.493059625E0,3.278181814E0,1.192130093E1,1.174529623E1,1.705332447E1
2.503086625E0,1.209991232E0,1.648805471E1,1.119988784E1,1.996891370E1
2.513112625E0,1.521343186E-1,1.657740367E1,4.649847389E0,1.721785521E1
2.523138625E0,2.092918164E0,1.157279519E1,9.632229441E-1,1.179990226E1
2.533164625E0,5.057724010E0,3.026461519E0,-4.162422323E-1,5.908747675E0
2.543191625E0,5.588538340E0,-6.239269123E0,-6.137471437E-1,8.398626407E0
2.553217625E0,6.212776558E0,-1.398195796E1,3.451338335E0,1.568456175E1
2.563243625E0,5.729676093E0,-1.723008158E1,5.110296326E0,1.886319241E1
2.573269625E0,2.891031526E0,-1.495871312E1,1.756435170E0,1.533643459E1
2.583296625E0,2.900979102E-1,-8.864030435E0,-1.054790926E-1,8.869403486E0
2.593322625E0,-1.645211480E0,-2.085030563E0,1.190268866E0,2.910466154E0
2.603348625E0,-2.134844455E0,2.866678165E0,2.531854318E0,4.380147353E0
2.613374625E0,-9.485113496E-1,5.590525224E0,2.569577630E0,6.225461851E0
2.623401625E0,6.265521075E-1,6.087932657E0,2.075885810E0,6.462568644E0
2.633427625E0,1.652105493E0,4.880478532E0,1.938609266E0,5.505154780E0
2.643453625E0,2.235882295E0,3.124669014E0,1.881380228E0,4.278120808E0
2.653479625E0,2.387713435E0,1.468042892E0,1.801986149E0,3.332188390E0
2.663506625E0,2.244970622E0,1.599160856E-1,1.943106067E0,2.973403343E0
2.673532625E0,2.287495667E0,-7.968889546E-1,1.522102740E0,2.860850430E0
2.683558625E0,2.266601081E0,-1.593518878E0,7.582499689E-1,2.872581746E0
2.693584625E0,1.927810190E0,-2.027736620E0,-1.532800806E-1,2.802081853E0
2.703611625E0,1.229437025E0,-1.899776153E0,-5.058019879E-1,2.318728203E0
2.713637625E0,6.333560738E-1,-1.301239956E0,-5.746029586E-2,1.448332498E0
2.723663625E0,5.509832771E-1,-4.413823360E-1,3.002483842E-1,7.671701444E-1
2.733689625E0,5.676471108E-1,5.939087105E-1,5.119333783E-1,9.680013340E-1
2.743715625E0,5.178210859E-1,1.455524004E0,5.727207398E-1,1.647634015E0
2.753742625E0,1.941740450E-1,1.885147004E0,7.826761276E-1,2.050381600E0
2.763768625E0,-2.270121543E-1,1.936431178E0,1.059681245E0,2.219059388E0
2.773794625E0,-5.644326040E-1,1.612805334E0,1.080378926E0,2.021619112E0
2.783820625E0,-9.152629119E-1,9.639129156E-1,1.005657065E0,1.666787461E0
2.793847625E0,-9.452597129E-1,3.461130667E-1,7.109530109E-1,1.232381582E0
2.803873625E0,-6.361591559E-1,-4.749985635E-2,3.288955016E-1,7.177234558E-1
2.813899625E0,-2.189457741E-1,-3.111975878E-1,3.940903482E-1,5.478032432E-1
2.823925625E0,1.667600323E-1,-4.613137400E-1,3.685738300E-1,6.135682058E-1
2.833952625E0,3.351223478E-1,-5.584050018E-1,3.132575619E-1,7.226710414E-1
2.843978625E0,5.363628991E-1,-5.225498754E-1,2.795822775E-1,7.993183231E-1
2.854004625E0,4.888747372E-1,-4.645466655E-1,1.221027267E-1,6.853547906E-1
2.864030625E0,2.940107938E-1,-3.522918195E-1,4.192124717E-1,6.215231044E-1
2.874057625E0,5.493322427E-1,-2.436382735E-1,1.018607332E0,1.182660737E0
2.884083625E0,5.800764640E-1,-1.610761732E-1,1.164030802E0,1.310496831E0
2.894109625E0,4.541260502E-1,6.974266469E-2,1.032258096E0,1.129889944E0
2.904135625E0,2.685960171E-1,3.758870888E-1,6.963681547E-1,8.356814769E-1
2.914161625E0,9.795387223E-2,6.421049702E-1,4.499923611E-1,7.901815481E-1
2.924188625E0,7.481760934E-2,9.009717321E-1,3.502610815E-1,9.695517325E-1
2.934214625E0,2.883205759E-1,1.018945155E0,1.612287855E-1,1.071154846E0
2.944240625E0,7.321637126E-1,7.984712112E-1,-9.970789075E-2,1.087916192E0
2.954267625E0,1.249436695E0,3.035114229E-1,-3.224118166E-1,1.325579352E0
2.964293625E0,1.743694964E0,-2.708178860E-1,-4.138249934E-1,1.812474987E0
2.974319625E0,2.235561575E0,-6.193300653E-1,-3.335929720E-1,2.343627435E0
2.984345625E0,2.117360111E0,-4.548853111E-1,-2.282472324E-1,2.177666477E0
2.994371625E0,1.602616560E0,3.565789980E-1,-5.460621142E-1,1.730234740E0
3.004398625E0,1.320132310E0,9.324847162E-1,-1.086541307E0,1.947523831E0
3.014424625E0,1.143662464E0,9.397627455E-1,-1.110159380E0,1.850289626E0
3.024450625E0,1.088563201E0,7.397546411E-1,-5.407376397E-1,1.422885788E0
3.034476625E0,9.356802195E-1,3.901209658E-1,-2.569383685E-1,1.045805511E0
3.044503625E0,6.975682227E-1,4.385528684E-2,-4.375395824E-1,8.246002654E-1
3.054529625E0,2.678462945E-1,-3.021607161E-2,-7.837257028E-1,8.287826166E-1
3.064555625E0,-1.347748125E-1,9.775024295E-2,-7.469157261E-1,7.652466674E-1
3.074581625E0,-3.678277618E-1,1.337117887E-1,-5.345489101E-1,6.625093524E-1
3.084608625E0,-4.880246982E-1,6.036197662E-2,-5.651801705E-1,7.491597289E-1
3.094634625E0,-6.435863623E-1,1.116876662E-2,-1.170706714E0,1.335994894E0
3.104660625E0,-7.033135506E-1,3.223920822E-2,-2.054197610E0,2.171501125E0
3.114686625E0,-6.683955136E-1,2.561080456E-2,-2.360458978E0,2.453400714E0
3.124713625E0,-5.815343942E-1,1.993198872E-2,-2.279212502E0,2.352315702E0
3.134739625E0,-5.573378849E-1,1.877494168E-1,-2.436823615E0,2.506787724E0
3.144765625E0,-4.491497042E-1,2.742390919E-1,-2.852088193E0,2.900232680E0
3.154791625E0,-2.017535714E-1,8.122484207E-2,-3.145230163E0,3.152740833E0
3.164817667E0,2.528324354E-1,-4.904720503E-1,-3.067834078E0,3.117064806E0
3.174844667E0,6.485550338E-1,-1.319421873E0,-2.833399322E0,3.192123029E0
3.184870667E0,1.030570443E0,-2.063680040E0,-2.711721103E0,3.560095797E0
3.194896667E0,1.323736241E0,-2.490122740E0,-2.470726356E0,3.749330290E0
3.204922667E0,1.440957420E0,-2.637960232E0,-2.069931883E0,3.649631553E0
3.214949667E0,1.440509669E0,-2.734892449E0,-1.816864974E0,3.585485065E0
3.224975667E0,1.092912872E0,-2.872545846E0,-1.977158205E0,3.654467506E0
3.235001667E0,4.779083573E-1,-2.981758386E0,-2.532357763E0,3.941080475E0
3.245027667E0,-2.624428094E-1,-2.845854476E0,-3.061459444E0,4.188113878E0
3.255054667E0,-8.495249321E-1,-2.349998310E0,-2.967976499E0,3.879828496E0
3.265080667E0,-1.419241446E0,-1.820914755E0,-2.147225057E0,3.152864138E0
3.275106667E0,-2.206047169E0,-1.194648138E0,-1.307900519E0,2.829210500E0
3.285132667E0,-3.341633167E0,-5.772570097E-1,-3.228831021E-1,3.406463177E0
3.295159667E0,-3.850921265E0,-2.475763732E-1,1.873864217E0,4.289785047E0
3.305185667E0,-3.446637758E0,-2.895786774E-1,3.005833712E0,4.582379725E0
3.315211667E0,-2.464821253E0,-1.680489779E-3,3.185019296E0,4.027368192E0
3.325237667E0,-1.317046734E0,2.843495125E-1,3.419082170E0,3.674995187E0
3.335263667E0,-4.375171803E-1,2.790671378E-1,2.648120939E0,2.698489254E0
3.345290667E0,-3.252365334E-1,-1.690102601E-1,1.118615624E0,1.177133885E0
3.355316667E0,-1.485355036E-1,-1.274784814E0,-2.333407420E-1,1.304448933E0
3.365342667E0,4.890594361E-1,-2.528416155E0,1.512879342E-1,2.579720028E0
3.375368667E0,1.037166102E0,-3.114948603E0,7.147694886E-1,3.359987164E0
3.385395667E0,1.643582446E0,-3.138726305E0,1.160434033E0,3.728213140E0
3.395421667E0,1.734673733E0,-2.847751898E0,1.377272471E0,3.607722729E0
3.405447667E0,2.075147453E0,-2.090336911E0,1.551569491E0,3.329131003E0
3.415473667E0,2.046547405E0,-1.161134237E0,5.196201280E-1,2.409687547E0
3.425500667E0,1.311212528E0,-3.496301669E-1,-4.635409445E-2,1.357817458E0
3.435526667E0,7.254624380E-1,4.556711769E-1,3.009401098E-1,9.080181276E-1
3.445552667E0,3.063331430E-1,1.034029217E0,3.136826545E-1,1.123144347E0
3.455578667E0,2.582302925E-1,1.331422114E0,-2.045212778E-1,1.371567236E0
3.465605667E0,3.224435377E-1,1.360100952E0,-3.054316485E-1,1.430780531E0
3.475631667E0,2.999400897E-1,1.619924904E0,1.702662420E-1,1.656234085E0
3.485657667E0,2.902068146E-1,1.917356976E0,9.772246867E-1,2.171507738E0
3.495683667E0,4.521575850E-1,2.006510643E0,1.446539757E0,2.514559347E0
3.505710667E0,5.036727244E-1,2.074775716E0,1.884726005E0,2.847906705E0
3.515736667E0,3.343206945E-1,1.982888476E0,2.337561867E0,3.083474099E0
3.525762667E0,8.185239449E-2,2.189436107E0,2.552727123E0,3.364037165E0
3.535788667E0,-2.563521668E-2,2.457561935E0,2.296116802E0,3.363394148E0
3.545814667E0,7.309794322E-2,2.625805040E0,1.611378028E0,3.081677233E0
3.555841667E0,2.785527290E-1,2.681493337E0,8.420791608E-1,2.824375232E0
3.565867667E0,-5.254976030E-1,2.840237056E0,-2.628083700E-1,2.900372822E0
3.575893667E0,-1.216209746E0,2.406162570E0,-1.373864129E0,3.025935740E0
3.585919667E0,-1.059840289E0,1.811577922E0,-1.361974985E0,2.502009565E0
3.595946667E0,-8.765976137E-1,1.573486317E0,-1.321432146E0,2.233934977E0
3.605972667E0,-4.836097580E-1,1.167779013E0,-1.348807348E0,1.848477071E0
3.615998667E0,7.256277680E-2,9.853143096E-1,-3.287819195E-1,1.041252705E0
3.626024667E0,1.638483381E-1,1.313706220E0,7.829094315E-1,1.538056399E0
3.636051667E0,3.520912600E-1,1.789086607E0,1.313196050E0,2.247060971E0
3.646077667E0,2.454637742E-1,2.327989390E0,1.475197545E0,2.766946848E0
3.656103667E0,-1.145735595E-1,2.693501764E0,1.375505442E0,3.026564731E0
3.666129667E0,-6.480214754E-1,2.731084743E0,5.896794194E-1,2.868183662E0
3.676156667E0,-7.730285141E-1,2.418348752E0,2.264878052E-1,2.548976363E0
3.686182667E0,-3.877282852E-1,1.900569035E0,4.403573191E-1,1.989072761E0
3.696208667E0,-4.691633347E-1,1.422093717E0,6.024000371E-1,1.614109842E0
3.706234667E0,-9.551043776E-1,1.344556714E0,7.393792498E-1,1.807412185E0
3.716261667E0,-1.300602902E0,1.746981391E0,1.694619575E-1,2.184543258E0
3.726287667E0,-1.400715128E0,2.389885676E0,-7.795601463E-1,2.877719659E0
3.736313667E0,-1.054259122E0,2.835657517E0,-1.481551715E0,3.368591891E0
3.746339667E0,-4.343677238E-1,2.814556085E0,-1.480394551E0,3.209668098E0
3.756365667E0,-1.950464496E-1,2.409783166E0,-1.090602491E0,2.652265412E0
3.766392667E0,-1.834426501E-1,1.872946204E0,-7.465485209E-1,2.024577334E0
3.776418667E0,-5.032800838E-1,1.518273983E0,-8.254824239E-1,1.799963323E0
3.786444667E0,-9.716350409E-1,1.526024467E0,-1.146747163E0,2.141927726E0
3.796470667E0,-1.077766098E0,1.863130483E0,-1.408527592E0,2.572311205E0
3.806497667E0,-1.030590177E0,2.381939895E0,-1.616208998E0,3.057431160E0
3.816523667E0,-1.040490098E0,2.818628086E0,-1.252325073E0,3.255088635E0
3.826549667E0,-1.131382142E0,3.149491029E0,-6.808620697E-1,3.415097722E0
3.836575667E0,-1.934239642E0,2.855943262E0,-8.044482350E-2,3.450241481E0
3.846602667E0,-3.904440245E0,8.591004056E-1,5.380058205E-1,4.033876225E0
3.856628667E0,-6.193845613E0,-3.624474390E0,8.289585936E-1,7.224106203E0
3.866654667E0,-8.206357838E0,-1.012130342E1,-5.672038919E-1,1.304250023E1
3.876680667E0,-1.018834526E1,-1.742228073E1,-4.567893984E0,2.069308823E1
3.886706667E0,-1.073925354E1,-2.326039460E1,-8.395944450E0,2.696051570E1
3.896733667E0,-5.130071025E0,-2.173395089E1,-6.402185415E0,2.323080343E1
3.906759667E0,2.917047835E0,-1.200556633E1,-1.160212131E0,1.240922573E1
3.916785667E0,6.516879135E0,-1.516228042E0,4.624148877E0,8.133351951E0
3.926811667E0,6.318302429E0,7.492653712E0,9.690087056E0,1.378254666E1
3.936838667E0,4.040025774E0,1.367886754E1,6.645244229E0,1.573507217E1
3.946864667E0,2.542953795E0,1.484694593E1,1.397163529E0,1.512780498E1
3.956890667E0,3.792759596E0,1.031255064E1,1.165594493E0,1.104954011E1
3.966916667E0,6.829033327E0,3.194971257E0,4.578076910E0,8.820562664E0
3.976943667E0,7.372963547E0,-3.775716131E0,7.436461970E0,1.113182781E1
3.986969667E0,5.599521750E0,-9.464141872E0,6.674094976E0,1.286344312E1
3.996995667E0,2.529362234E0,-1.342339567E1,1.898304409E0,1.379089498E1
4.007021667E0,4.516886383E-1,-1.441643883E1,-1.731342136E0,1.452705327E1
4.017048667E0,3.221690109E-1,-1.144471660E1,-2.863001436E-1,1.145282929E1
4.027074667E0,2.300455436E-1,-5.842418012E0,2.090778668E0,6.209518872E0
4.037100667E0,-3.512337658E-1,-4.287254530E-1,2.533593280E0,2.593504498E0
4.047126667E0,-5.454054719E-1,3.216367974E0,1.973732321E0,3.812887272E0
4.057152667E0,-1.563266261E-1,4.815455155E0,1.429293394E0,5.025527432E0
4.067179667E0,5.028862739E-1,4.756459088E0,1.586289380E0,5.039157832E0
4.077205667E0,9.582753226E-1,3.846875576E0,2.087122989E0,4.480270713E0
4.087231667E0,1.057968449E0,2.793072245E0,2.202063169E0,3.710745478E0
4.097257667E0,1.250185285E0,1.703197441E0,2.325217225E0,3.141731992E0
4.107284667E0,1.874933234E0,6.011270982E-1,2.227645907E0,2.973068231E0
4.117310667E0,1.883886344E0,-2.826251686E-1,1.518052374E0,2.435854625E0
4.127336667E0,9.002895083E-1,-6.256491512E-1,1.192532323E0,1.619904751E0
4.137362667E0,4.903513053E-1,-5.830282116E-1,6.991024590E-1,1.033978020E0
4.147389667E0,6.083196120E-1,-5.323790449E-1,2.142527989E-1,8.362920899E-1
4.157415667E0,5.187781289E-1,-3.491226286E-1,1.374563456E-2,6.254648666E-1
4.167441875E0,4.304145674E-1,-1.002376485E-1,-1.084994718E-1,4.550565036E-1
4.177467875E0,4.281002395E-1,2.387429845E-1,1.694350603E-1,5.186292196E-1
4.187494875E0,3.465501460E-1,5.588394499E-1,5.726374170E-1,8.719587982E-1
4.197520875E0,3.494341390E-1,7.121166068E-1,5.035473016E-1,9.395606229E-1
4.207546875E0,2.962633605E-1,7.368789804E-1,8.044803947E-2,7.982696898E-1
4.217572875E0,1.488819511E-1,7.074861968E-1,-1.958963424E-2,7.232470586E-1
4.227598875E0,1.032925263E-1,7.267410779E-1,1.246579599E-1,7.445545966E-1
4.237625875E0,2.422972146E-1,4.922344011E-1,4.340692234E-1,6.995846886E-1
4.247651875E0,3.998999955E-1,2.136958516E-1,6.290013599E-1,7.753893436E-1
4.257677875E0,5.497264181E-1,3.769582987E-2,5.092948222E-1,7.503341431E-1
4.267703875E0,6.463688330E-1,-1.279838562E-2,1.268483269E-1,6.588224077E-1
4.277730875E0,8.011750368E-1,-2.867065251E-2,2.798913029E-1,8.491422657E-1
4.287756875E0,8.027164359E-1,-1.539414006E-1,5.226219423E-1,9.701470641E-1
4.297782875E0,7.129578019E-1,-1.162028861E-1,4.777387150E-1,8.660520872E-1
4.307808875E0,7.061856298E-1,-2.106745952E-1,1.060965586E-1,7.445390578E-1
4.317835875E0,5.887682039E-1,-4.424365890E-1,-2.087689877E-1,7.654950186E-1
4.327861875E0,3.475517010E-1,-5.392349052E-1,-1.156123173E-1,6.518686032E-1
4.337887875E0,3.876068093E-2,-5.524110210E-1,-1.779003668E-1,5.816432472E-1
4.347913875E0,2.389877636E-2,-4.256392926E-1,-3.665653845E-1,5.622367295E-1
4.357940875E0,1.507170998E-2,2.414315343E-3,-6.128349781E-2,6.315577934E-2
4.367966875E0,-7.678961936E-2,5.519929451E-1,1.821677013E-1,5.863257870E-1
4.377992875E0,-1.396435697E-1,1.029053822E0,-2.178181386E-1,1.061082860E0
4.388018875E0,-3.967840143E-2,1.083624131E0,-9.661120534E-1,1.452304422E0
4.398044875E0,7.857049853E-3,8.194095057E-1,-1.064586182E0,1.343442373E0
4.408071875E0,1.140924433E-1,5.997009623E-1,-1.018655133E0,1.187567518E0
4.418097875E0,3.899037418E-1,4.061049145E-1,-9.757821786E-1,1.126542050E0
4.428123875E0,6.237540686E-1,3.542757797E-1,-9.339324868E-1,1.177629125E0
4.438149875E0,6.798931130E-1,3.177365291E-1,-1.131272507E0,1.357567174E0
4.448176875E0,6.845776829E-1,3.134663075E-1,-1.290731340E0,1.494287496E0
4.458202875E0,7.688142796E-1,3.333883560E-1,-1.252616265E0,1.507073555E0
4.468228875E0,8.730103469E-1,3.251601541E-1,-1.100188708E0,1.441628033E0
4.478254875E0,1.040999756E0,3.109490812E-1,-1.045395035E0,1.507720333E0
4.488281875E0,1.330697351E0,2.957077289E-1,-1.072170020E0,1.734285748E0
4.498307875E0,1.465123377E0,3.102398139E-1,-9.661529839E-1,1.782214028E0
4.508333875E0,1.447609943E0,2.520190877E-1,-8.541010362E-1,1.699581345E0
4.518359875E0,1.396161316E0,2.326922858E-1,-9.692346127E-1,1.715467241E0
4.528386875E0,1.252334429E0,2.566945213E-1,-1.144166787E0,1.715619782E0
4.538412875E0,8.619885647E-1,3.989736503E-1,-1.310918267E0,1.618861008E0
4.548438875E0,2.904197994E-1,6.307777441E-1,-1.435786142E0,1.594900018E0
4.558464875E0,-3.113950045E-1,6.962326455E-1,-1.542316711E0,1.720595124E0
4.568490875E0,-8.950036253E-1,5.033177984E-1,-1.681277398E0,1.970039082E0
4.578517875E0,-1.297473764E0,3.292567134E-3,-1.967655310E0,2.356929449E0
4.588543875E0,-1.278767791E0,-6.074865299E-1,-2.256321822E0,2.663695762E0
4.598569875E0,-9.134628466E-1,-1.127608641E0,-2.093008504E0,2.546880488E0
4.608595875E0,-3.624235458E-1,-1.600127401E0,-1.623799269E0,2.308350621E0
4.618622875E0,1.420943022E-1,-2.122442218E0,-1.559596110E0,2.637667869E0
4.628648875E0,5.987527632E-1,-2.696199085E0,-1.780276607E0,3.285936574E0
4.638674875E0,8.903343312E-1,-3.300595946E0,-1.972390385E0,3.946764833E0
4.648700875E0,1.041341745E0,-3.700828502E0,-2.014835908E0,4.340517016E0
4.658727875E0,1.003424452E0,-3.565322787E0,-2.020350417E0,4.219028682E0
4.668753875E0,5.318352904E-1,-2.839768109E0,-2.233483182E0,3.651791179E0
4.678779875E0,-3.046781982E-1,-1.723584343E0,-2.434074254E0,2.998047575E0
4.688805875E0,-1.048123200E0,-6.330564040E-1,-2.298035858E0,2.603899280E0
4.698832875E0,-1.278406433E0,1.079162121E-1,-1.929898084E0,2.317428647E0
4.708858875E0,-1.225146630E0,5.729177910E-1,-1.605992743E0,2.099626574E0
4.718884875E0,-1.388619577E0,6.947380972E-1,-1.358205285E0,2.062921945E0
4.728910875E0,-1.287168339E0,2.402234995E-1,-1.108672945E0,1.715711328E0
4.738936875E0,-1.137239956E0,-5.585774946E-1,-3.956623721E-1,1.327355358E0
4.748963875E0,-1.049363906E0,-1.355836578E0,1.010642255E0,1.990189740E0
4.758989875E0,-4.427039164E-1,-1.888273510E0,1.928673385E0,2.735204679E0
4.769015875E0,2.531314839E-1,-2.159489592E0,2.250892828E0,3.129535008E0
4.779041875E0,3.767248121E-1,-2.112080952E0,2.282890839E0,3.132793979E0
4.789068875E0,3.684830885E-1,-1.570153404E0,2.383865529E0,2.878189771E0
4.799094875E0,3.844880872E-1,-9.856347370E-1,3.179622316E0,3.351015518E0
4.809120875E0,2.496878759E-1,-4.775450259E-1,2.787713564E0,2.839320377E0
4.819146875E0,-5.244024195E-2,-2.914065170E-1,1.052420465E0,1.093277902E0
4.829173875E0,-1.318829989E-1,-9.530008417E-1,9.787712753E-2,9.670489449E-1
4.839199875E0,-4.623282319E-1,-1.836877654E0,5.203956150E-1,1.964351930E0
4.849225875E0,5.747111320E-2,-2.082924981E0,1.231638794E0,2.420498610E0
4.859251875E0,7.403414091E-1,-2.030635670E0,6.038866916E-1,2.244162597E0
4.869278875E0,9.869547459E-1,-1.668076140E0,7.499337664E-1,2.078210368E0
4.879304875E0,8.724786157E-1,-1.018510707E0,5.506779063E-1,1.449768655E0
4.889330875E0,6.200036645E-1,-4.270747840E-1,2.565460020E-1,7.953698928E-1
4.899356875E0,2.735154989E-1,9.086690068E-2,1.086772272E0,1.124340470E0
4.909382875E0,-2.339033903E-1,1.070131096E0,1.804020980E0,2.110540939E0
4.919409875E0,-6.642885755E-1,1.776974684E0,5.520069784E-1,1.975760624E0
4.929435875E0,-3.094983870E-1,1.682834512E0,-8.862092668E-1,1.926937495E0
4.939461875E0,6.651416843E-1,1.206401626E0,-2.394221386E-1,1.398263675E0
4.949487875E0,1.166918303E0,7.990647036E-1,1.268100277E0,1.899547588E0
4.959514875E0,1.025562157E0,6.104645169E-1,1.889612523E0,2.234967595E0
4.969540875E0,4.684888583E-1,5.685458279E-1,2.481454827E0,2.588502314E0
4.979566875E0,-3.471389607E-2,8.293766695E-1,2.771010116E0,2.892674848E0
4.989592875E0,-8.378256038E-2,1.491862110E0,2.886890528E0,3.250662854E0
4.999619875E0,3.852066734E-1,1.945026001E0,2.748660303E0,3.389195153E0
5.009645875E0,7.310303029E-1,2.203023282E0,2.340498338E0,3.296308444E0
5.019671875E0,8.012942469E-1,2.364078990E0,1.817481855E0,3.087747113E0
5.029697875E0,6.609169248E-1,2.577854363E0,1.291849912E0,2.958212382E0
5.039723875E0,5.271729764E-1,2.721132782E0,7.935127723E-1,2.883077779E0
5.049750875E0,7.797072038E-1,3.185114606E0,7.197764593E-1,3.357227506E0
5.059776875E0,3.806917459E-2,3.294258733E0,1.485292178E-1,3.297825161E0
5.069802875E0,-2.345961392E-1,2.945856482E0,-1.102855039E-1,2.957240040E0
5.079828875E0,8.787195683E-2,2.762111823E0,-1.529690087E-1,2.767739641E0
5.089855875E0,3.710721990E-1,2.475460262E0,-1.060977280E-2,2.503140158E0
5.099881875E0,7.100043002E-1,2.347111539E0,3.424766833E-1,2.475950113E0
5.109907875E0,6.972962540E-1,2.445003285E0,3.536255693E-1,2.566965947E0
5.119933875E0,5.997071019E-1,2.625643657E0,3.465171093E-1,2.715460795E0
5.129960875E0,4.528384933E-1,2.761421852E0,2.264655858E-1,2.807454364E0
5.139986875E0,3.079409811E-1,2.855875434E0,8.374966979E-2,2.873650318E0
5.150012875E0,-2.789121866E-3,2.860750258E0,-6.461407185E-2,2.861481224E0
5.160038875E0,-3.083321598E-1,2.768495813E0,-5.216423875E-1,2.834033974E0
5.170065042E0,-6.228568134E-1,2.542940639E0,-1.198979171E0,2.879591769E0
5.180091042E0,-9.108017787E-1,2.171927789E0,-1.829423624E0,2.982217463E0
5.190117042E0,-1.028607094E0,1.714040517E0,-2.366646502E0,3.097899791E0
5.200143042E0,-1.117789412E0,1.214652048E0,-2.748707081E0,3.206278744E0
5.210169042E0,-1.210662200E0,8.183277708E-1,-3.003602999E0,3.340208718E0
5.220196042E0,-1.255568524E0,6.259882897E-1,-2.901441032E0,3.222836285E0
5.230222042E0,-1.449161941E0,7.462240005E-1,-2.706171511E0,3.159158881E0
5.240248042E0,-1.852675954E0,1.206093478E0,-2.048692164E0,3.014002198E0
5.250274042E0,-2.014607282E0,1.766040391E0,-5.703073016E-1,2.739122411E0
5.260301042E0,-1.941178825E0,2.355970071E0,1.425405580E0,3.369057921E0
5.270327042E0,-2.014688851E0,3.115613431E0,3.287786743E0,4.957374293E0
5.280353042E0,-2.557121014E0,3.292703959E0,4.106971423E0,5.852177501E0
5.290379042E0,-4.236984555E0,1.200938573E0,3.810701777E0,5.823722144E0
5.300406042E0,-8.043778930E0,-4.653813556E0,1.617218227E0,9.432696056E0
5.310432042E0,-8.786126812E0,-1.359294621E1,-2.085067400E0,1.631905994E1
5.320458042E0,-8.991085753E0,-2.370638981E1,-1.014667449E1,2.730911101E1
5.330484042E0,-5.905766746E0,-2.983452909E1,-1.369380718E1,3.335412361E1
5.340511042E0,1.118192578E0,-2.242175887E1,-6.499357368E0,2.337150555E1
5.350537042E0,5.021699899E0,-7.231794219E0,2.300953034E0,9.100038592E0
5.360563042E0,4.538341572E0,5.404603647E0,9.771277399E0,1.205338736E1
5.370589042E0,2.960576555E0,1.503992276E1,1.166210790E1,1.926055686E1
5.380615042E0,-1.598122975E-1,1.994361766E1,6.193425783E0,2.088377237E1
5.390642042E0,7.339191198E-1,1.767125166E1,-7.892805576E-1,1.770408813E1
5.400668042E0,7.116895847E0,8.962156069E0,4.077392113E-1,1.145149332E1
5.410694042E0,8.027678622E0,1.830236971E-1,4.015484133E0,8.977819031E0
5.420720042E0,5.510841123E0,-6.623977906E0,5.534648062E0,1.024103424E1
5.430747042E0,3.979508554E0,-1.176099133E1,4.789459311E0,1.330775435E1
5.440773042E0,1.876977859E0,-1.449651060E1,1.401516196E0,1.468455356E1
5.450799042E0,-2.561709031E-1,-1.359610371E1,-7.898600167E-1,1.362143673E1
5.460825042E0,-8.115999645E-1,-8.736635394E0,1.458658111E-1,8.775464052E0
5.470852042E0,-9.130155346E-1,-2.587828544E0,1.780804903E0,3.271348352E0
5.480878042E0,-1.883148426E-1,1.859573037E0,2.406377748E0,3.046986745E0
5.490904042E0,5.485039115E-1,3.974769385E0,2.273935682E0,4.611987825E0
5.500930042E0,1.150415121E0,4.409016364E0,2.094962643E0,5.015151915E0
5.510956042E0,1.380612108E0,3.934505458E0,2.135782641E0,4.684868246E0
5.520983042E0,1.244734218E0,3.024475805E0,2.198815041E0,3.941015700E0
5.531009042E0,1.166379482E0,1.990813208E0,2.309732044E0,3.264757332E0
5.541035042E0,1.169683890E0,9.491089350E-1,2.385582710E0,2.821342418E0
5.551061042E0,1.295361750E0,6.803703189E-2,2.160586529E0,2.520064533E0
5.561088042E0,1.320302318E0,-5.866675186E-1,1.314846427E0,1.953509179E0
5.571114042E0,1.157408099E0,-9.458286470E-1,2.789890775E-1,1.520532881E0
5.581140042E0,1.102129984E0,-1.081600410E0,-1.723627612E-1,1.553788554E0
5.591166042E0,1.305023689E0,-9.929004872E-1,-3.051518592E-1,1.667949599E0
5.601193042E0,1.563319324E0,-7.098116344E-1,-3.057260558E-1,1.743923246E0
5.611219042E0,1.798817397E0,-2.338178748E-1,-1.938036239E-1,1.824273738E0
5.621245042E0,2.193756322E0,3.459546071E-1,-2.612419009E-2,2.221020906E0
5.631271042E0,2.330351226E0,8.979528147E-1,2.098191476E-1,2.506168424E0
5.641298042E0,2.393219466E0,1.253560005E0,8.930803299E-1,2.845435744E0
5.651324042E0,2.494976513E0,1.280011055E0,9.760654762E-1,2.969181691E0
5.661350042E0,1.827359995E0,1.285263609E0,4.320940340E-1,2.275489475E0
5.671376042E0,1.322605536E0,1.014627571E0,3.898011231E-1,1.711928570E0
5.681402042E0,1.151514105E0,5.254734832E-1,2.290713975E-1,1.286305104E0
5.691429042E0,8.877660879E-1,1.563761812E-1,3.629214728E-1,9.717479778E-1
5.701455042E0,5.399590829E-1,-1.477462757E-1,1.719236353E-1,5.856129349E-1
5.711481042E0,4.561303295E-1,-7.155921918E-1,1.932772283E-1,8.703350789E-1
5.721507042E0,1.383821060E-1,-1.029080719E0,1.579274476E-1,1.050284634E0
5.731534042E0,-2.723684214E-1,-7.656981522E-1,-1.550447702E-2,8.128459916E-1
5.741560042E0,-2.092469244E-1,-1.820939898E-1,-3.981266811E-2,2.802276665E-1
5.751586042E0,-1.824997135E-1,2.211171377E-1,9.182240881E-2,3.010486485E-1
5.761612042E0,-4.020800567E-1,4.809761721E-1,-3.654791911E-1,7.256593480E-1
5.771639042E0,-3.854719909E-1,4.931290251E-1,-8.833716130E-1,1.082640429E0
5.781665042E0,-5.115050332E-1,4.298311615E-1,-4.693584855E-1,8.165106333E-1
5.791691042E0,-5.794462073E-1,5.154823458E-1,2.240372372E-1,8.072624354E-1
5.801717042E0,-4.367107396E-1,5.718693852E-1,2.244429974E-1,7.537410185E-1
5.811744042E0,-1.936128585E-1,5.764319676E-1,-5.958780527E-2,6.109913738E-1
5.821770042E0,-2.774720905E-1,5.618922812E-1,-8.644052189E-2,6.326022925E-1
5.831796042E0,-3.109117321E-1,5.420129174E-1,-1.158262980E-1,6.354996767E-1
5.841822042E0,-1.824377696E-1,4.129023027E-1,-2.605764878E-1,5.212216010E-1
5.851848042E0,-2.419705745E-2,2.737514341E-1,-5.780849755E-1,6.400840446E-1
5.861875042E0,1.059718850E-1,1.239703274E-1,-1.148159266E0,1.159684604E0
5.871901042E0,1.487971848E-1,1.258443600E-1,-1.668441006E0,1.679783556E0
5.881927042E0,1.601828648E-1,1.831874192E-1,-1.963198562E0,1.978222630E0
5.891953042E0,1.786051207E-1,3.822190386E-1,-1.992199582E0,2.036381683E0
5.901980042E0,1.607235861E-1,5.186948061E-1,-1.968804873E0,2.042319515E0
5.912006042E0,5.898320774E-2,5.603433537E-1,-2.050410368E0,2.126416321E0
5.922032042E0,-1.493457815E-1,5.170277649E-1,-2.102348846E0,2.170136526E0
5.932058042E0,-2.075764480E-1,4.827443701E-1,-1.817163182E0,1.891616277E0
5.942085042E0,-1.300724816E-1,6.340048224E-1,-1.224726289E0,1.385220361E0
5.952111042E0,6.758021817E-2,8.273301440E-1,-8.076414726E-1,1.158156726E0
5.962137042E0,3.047841424E-1,8.577385890E-1,-9.290682612E-1,1.300683165E0
5.972163042E0,5.578036156E-1,7.485190326E-1,-1.380338750E0,1.666361510E0
5.982189042E0,9.208740462E-1,4.885366219E-1,-1.734162540E0,2.023362735E0
5.992216042E0,1.277369429E0,2.265345830E-1,-1.871205488E0,2.276927876E0
6.002242042E0,1.337324732E0,1.042441607E-1,-2.158057024E0,2.540967218E0
6.012268042E0,9.462552745E-1,8.840405345E-2,-2.357989699E0,2.542307956E0
6.022294042E0,5.712893414E-1,-2.530908823E-1,-2.577780688E0,2.652429035E0
6.032321042E0,5.837752665E-1,-1.463115444E0,-2.655532869E0,3.087613185E0
6.042347042E0,1.000036502E0,-3.410886127E0,-2.450380384E0,4.317242315E0
6.052373042E0,1.807078197E0,-5.322146797E0,-1.939367796E0,5.945748530E0
6.062399042E0,2.413261382E0,-6.584471194E0,-1.564287477E0,7.185129554E0
6.072426042E0,2.451277347E0,-6.586225943E0,-1.478892401E0,7.181521812E0
6.082452042E0,1.570925529E0,-5.272879912E0,-1.554308619E0,5.717249764E0
6.092478042E0,-1.550813153E-1,-3.482777059E0,-1.539998143E0,3.811217724E0
6.102504042E0,-1.897193876E0,-1.980359555E0,-1.767137913E0,3.262505935E0
6.112531042E0,-3.185038885E0,-6.080659890E-1,-2.042962770E0,3.832481418E0
6.122557042E0,-3.727401758E0,5.406914467E-1,-1.796004447E0,4.172709321E0
6.132583042E0,-3.934306946E0,1.253680458E0,-1.528109000E0,4.402908465E0
6.142609042E0,-3.960254842E0,1.050369846E0,-1.119910197E0,4.247480910E0
6.152635042E0,-3.240418156E0,1.278119481E-1,-3.059204757E-1,3.257335270E0
6.162662042E0,-2.088552926E0,-8.802421832E-1,1.379687955E0,2.653378691E0
6.172688125E0,-1.478303732E0,-1.776069535E0,2.877913882E0,3.690825549E0
6.182714125E0,-4.923107804E-1,-1.971829053E0,2.638849593E0,3.330766713E0
6.192740125E0,6.532010852E-1,-1.811319475E0,2.172490876E0,2.902975457E0
6.202767125E0,1.085663201E0,-1.599697046E0,1.846990414E0,2.673774264E0
6.212793125E0,8.285764781E-1,-1.295978047E0,2.097960072E0,2.601448547E0
6.222819125E0,4.972873091E-1,-8.321348011E-1,1.989558395E0,2.213161902E0
6.232845125E0,1.655935493E-1,-6.588847250E-1,2.181864109E0,2.285187365E0
6.242872125E0,7.074253857E-3,-3.081055802E-1,1.501665259E0,1.532963680E0
6.252898125E0,1.781488734E-1,-3.106438565E-1,1.299917901E0,1.348340897E0
6.262924125E0,1.547934861E-1,-5.703029162E-1,1.087218415E0,1.237436997E0
6.272950125E0,4.503146157E-1,-6.320594537E-1,1.679363897E0,1.850012299E0
6.282976125E0,6.930092217E-1,-6.828910536E-1,1.417401327E0,1.719194141E0
6.293003125E0,6.435366610E-1,-8.657843578E-1,9.618970880E-1,1.445326259E0
6.303029125E0,6.624562774E-1,-9.921122825E-1,9.447863808E-1,1.521760956E0
6.313055125E0,8.216391952E-1,-9.041900396E-1,1.167245747E0,1.689708031E0
6.323081125E0,1.193420954E0,-5.929415810E-1,1.194927050E0,1.789883780E0
6.333108125E0,1.494809253E0,-9.527160823E-2,1.225621717E0,1.935375926E0
6.343134125E0,1.136536024E0,5.453996247E-1,9.328957754E-1,1.568269560E0
6.353160125E0,7.985603812E-1,1.152770965E0,7.565285486E-1,1.593397321E0
6.363186125E0,1.074000637E0,1.248119171E0,1.601955825E0,2.297289990E0
6.373213125E0,9.832078502E-1,1.263906069E0,1.735410921E0,2.361314738E0
6.383239125E0,6.974330789E-1,1.318885683E0,1.678138613E0,2.245444622E0
6.393265125E0,3.845664033E-1,1.598972576E0,1.847510816E0,2.473439070E0
6.403291125E0,2.237054077E-1,1.839127663E0,2.136731644E0,2.828083589E0
6.413318125E0,5.055517271E-2,1.897181159E0,2.222151571E0,2.922295293E0
6.423344125E0,1.146763243E-1,1.917026609E0,1.983990969E0,2.761224700E0
6.433370125E0,4.393548140E-1,2.043142864E0,1.731514044E0,2.713965051E0
6.443396125E0,5.484796456E-1,2.225533308E0,1.498025952E0,2.738231214E0
6.453422125E0,2.838940144E-1,2.457264896E0,1.109733703E0,2.711135458E0
6.463449125E0,-1.595497575E-1,2.516772010E0,6.534409672E-2,2.522670673E0
6.473475125E0,-6.280266291E-1,2.441532962E0,-1.235085435E0,2.807300605E0
6.483501125E0,-1.080663101E0,2.564920907E0,-1.848503088E0,3.341199734E0
6.493527125E0,-7.527240577E-1,2.528679864E0,-1.788246946E0,3.187262541E0
6.503554125E0,-8.942529890E-1,2.672329581E0,-1.446750256E0,3.167667928E0
6.513580125E0,-1.229659219E0,2.987171153E0,-7.767973369E-1,3.322449006E0
6.523606125E0,-1.269983080E0,3.256495076E0,3.419685602E-1,3.512059182E0
6.533632125E0,-9.503543919E-1,3.284652928E0,1.272474579E0,3.648466785E0
6.543658125E0,-3.899896958E-1,3.107278225E0,1.720149688E0,3.572979832E0
6.553685125E0,4.902220818E-1,2.868903031E0,1.950839887E0,3.503812003E0
6.563711125E0,1.309665501E0,2.603029550E0,1.455557333E0,3.257243269E0
6.573737125E0,1.722950797E0,2.239171354E0,4.967215544E-1,2.868654755E0
6.583763125E0,1.842725162E0,1.809907957E0,-8.276055479E-1,2.712256215E0
6.593790125E0,1.457731327E0,1.269774334E0,-2.057830485E0,2.823468397E0
6.603816125E0,3.134519818E-1,5.748771930E-1,-3.143071956E0,3.210550927E0
6.613842125E0,-1.352840172E0,-1.343929893E-1,-3.777687812E0,4.014867771E0
6.623868125E0,-2.685849805E0,-4.270736146E-1,-3.337386627E0,4.305151628E0
6.633895125E0,-3.073502954E0,1.028630483E-1,-2.005213730E0,3.671223681E0
6.643921125E0,-2.570326658E0,1.162228251E0,-4.695781946E-1,2.859695319E0
6.653947125E0,-1.987376214E0,2.073761809E0,2.861334980E-1,2.886524664E0
6.663973125E0,-1.509580343E0,2.574110391E0,3.756543696E-1,3.007655785E0
6.673999125E0,-8.911258981E-1,2.741414434E0,-3.756309807E-2,2.882857862E0
6.684026125E0,-5.502551526E-2,2.564925000E0,-7.668436217E-1,2.677670107E0
6.694052125E0,2.950528407E-1,2.260209051E0,-9.891769803E-1,2.484768044E0
6.704078125E0,2.921005815E-2,2.149171595E0,-7.481892496E-1,2.275868829E0
6.714104125E0,-8.207853556E-1,2.450772148E0,-1.158140463E-1,2.587157825E0
6.724131125E0,-2.374929375E0,2.678063945E0,3.159309089E-1,3.593345011E0
6.734157125E0,-4.601320762E0,1.546303196E0,2.301890928E-1,4.859649509E0
6.744183125E0,-6.872294537E0,-2.129806786E0,-1.552622867E-1,7.196430749E0
6.754209125E0,-8.263732472E0,-7.855219674E0,-1.637123319E0,1.151841670E1
6.764236125E0,-8.487125931E0,-1.467257260E1,-4.523490229E0,1.754359305E1
6.774262125E0,-8.873269036E0,-2.121584548E1,-9.491311544E0,2.487834395E1
6.784288125E0,-6.617345409E0,-2.203246294E1,-9.370429716E0,2.483996048E1
6.794314125E0,1.655902237E-2,-1.311101285E1,-2.563094237E0,1.335920597E1
6.804341125E0,5.260126550E0,-1.088505387E0,8.164606964E0,9.773156203E0
6.814367125E0,5.007336799E0,9.379128034E0,1.393748638E1,1.752983146E1
6.824393125E0,2.265945754E0,1.630466615E1,9.612107418E0,1.906224691E1
6.834419125E0,1.012243077E0,1.734133538E1,-6.822010821E-1,1.738424422E1
6.844445125E0,5.124620250E0,1.140244357E1,-4.137892084E0,1.316812831E1
6.854472125E0,9.371877487E0,2.003616271E0,1.541317860E0,9.706813408E0
6.864498125E0,9.198820953E0,-5.738580233E0,7.925529519E0,1.342995265E1
6.874524125E0,6.321918347E0,-1.142193001E1,9.515689171E0,1.615473544E1
6.884550125E0,1.743867457E0,-1.493314090E1,3.631417374E0,1.546696360E1
6.894577125E0,-1.324182968E0,-1.599149395E1,-2.596896406E0,1.625500570E1
6.904603125E0,-1.023504814E0,-1.294720077E1,-1.703105054E0,1.309878378E1
6.914629125E0,-2.271029323E-2,-6.182806655E0,2.820967264E0,6.795989273E0
6.924655125E0,2.338187519E-1,9.534645259E-2,4.060486059E0,4.068330024E0
6.934682125E0,4.594873622E-1,3.738703841E0,3.366611010E0,5.052039662E0
6.944708125E0,7.228496097E-1,4.848161556E0,2.503908720E0,5.504247533E0
6.954734125E0,7.987840372E-1,4.429568743E0,2.432453991E0,5.116245459E0
6.964760125E0,8.813160244E-1,3.322213687E0,2.965143230E0,4.539371773E0
6.974786125E0,1.125305277E0,2.088683318E0,3.681097365E0,4.379427791E0
6.984813125E0,8.790983216E-1,1.133992047E0,3.794037797E0,4.056288282E0
6.994839125E0,1.144877808E0,3.632962793E-1,2.800981774E0,3.047659476E0
7.004865125E0,1.778073083E0,-4.570014185E-1,1.509169576E0,2.376549388E0
7.014891125E0,1.775332493E0,-1.056615257E0,7.403881869E-1,2.194633439E0
7.024918125E0,1.546993021E0,-1.306361532E0,8.299315703E-1,2.188276553E0
7.034944125E0,1.289947959E0,-1.061474293E0,1.109610035E0,2.005474468E0
7.044970125E0,9.862805620E-1,-5.760904902E-1,1.026141616E0,1.535446585E0
7.054996125E0,5.840964979E-1,-4.857106626E-2,8.039988765E-1,9.949583211E-1
7.065023125E0,2.791418360E-1,4.339616346E-1,5.833003995E-1,7.787696842E-1
7.075049125E0,3.039455786E-2,8.411465299E-1,3.001019114E-1,8.935952502E-1
7.085075125E0,-1.397613180E-1,1.065857951E0,8.075209469E-2,1.078010806E0
7.095101125E0,-2.527473584E-2,1.008342984E0,-1.206061319E-1,1.015844587E0
7.105127125E0,2.494437546E-1,1.116240485E0,-3.582985179E-1,1.198579507E0
7.115154125E0,4.228050010E-1,9.670856148E-1,-3.489267468E-1,1.111651263E0
7.125180125E0,5.352207917E-1,6.029876822E-1,-2.773544884E-1,8.526317804E-1
7.135206125E0,8.550137866E-1,7.278029323E-2,-4.766790533E-1,9.816152332E-1
7.145232125E0,1.152206927E0,-3.332053381E-1,-6.891714017E-1,1.383316241E0
7.155259125E0,1.236965607E0,-5.629365939E-1,-1.004103606E0,1.689735356E0
7.165285125E0,1.345674702E0,-4.758703834E-1,-1.119706568E0,1.814121226E0
7.175311625E0,1.622850119E0,-5.147806799E-1,-1.272048901E0,2.125264705E0
7.185337625E0,1.179107409E0,-7.100045925E-1,-8.547987552E-1,1.620210392E0
7.195364625E0,1.674647679E-1,-2.605981225E-1,-5.062683034E-1,5.935178388E-1
7.205390625E0,-5.253850441E-1,1.851216781E-1,-7.137742925E-1,9.054132873E-1
7.215416625E0,-8.682567798E-1,5.817564422E-1,-5.341723859E-1,1.173733586E0
7.225442625E0,-9.992045166E-1,9.431968153E-1,2.032165448E-1,1.389002110E0
7.235468625E0,-1.100365660E0,1.056075559E0,9.208744848E-1,1.781603207E0
7.245495625E0,-8.817808780E-1,1.049535449E0,1.078862816E0,1.744421724E0
7.255521625E0,-5.372942144E-1,9.472629690E-1,5.115845919E-1,1.203208627E0
7.265547625E0,-1.274411615E-2,6.340428293E-1,-5.409489434E-2,6.364738639E-1
7.275573625E0,5.748052722E-1,3.810203594E-1,-4.631369019E-1,8.307065698E-1
7.285600625E0,1.006313561E0,3.191123790E-1,-7.262966895E-1,1.281408044E0
7.295626625E0,1.122037853E0,3.728634936E-1,-1.126488315E0,1.633086664E0
7.305652625E0,7.981703719E-1,4.037426394E-1,-1.567623314E0,1.804862021E0
7.315678625E0,4.228711476E-1,4.553992814E-1,-1.833839441E0,1.936278804E0
7.325705625E0,2.643342009E-1,5.835930526E-1,-1.784629274E0,1.896142154E0
7.335731625E0,2.169757741E-1,5.809606361E-1,-1.722398527E0,1.830642082E0
7.345757625E0,2.799554030E-1,5.956073266E-1,-1.368166602E0,1.518223622E0
7.355783625E0,4.287132470E-1,7.272392607E-1,-5.976485896E-1,1.034338352E0
7.365809625E0,6.794746716E-1,7.381408095E-1,-1.333878529E-1,1.012091895E0
7.375836625E0,8.759298617E-1,8.361582702E-1,-2.847716814E-1,1.243989022E0
7.385862625E0,8.414961203E-1,9.389429659E-1,-9.801525338E-1,1.597006137E0
7.395888625E0,7.601563074E-1,7.651058292E-1,-1.517986885E0,1.862124787E0
7.405914625E0,7.249120688E-1,3.174897766E-1,-1.538600074E0,1.730198675E0
7.415941625E0,4.796051827E-1,-2.577522826E-1,-1.562690018E0,1.654828530E0
7.425967625E0,2.964551857E-1,-5.054011613E-1,-1.931083900E0,2.018019088E0
7.435993625E0,7.430813413E-2,-6.758404809E-1,-2.336661980E0,2.433571709E0
7.446019625E0,-3.662301198E-2,-7.755360925E-1,-2.472446607E0,2.591484073E0
7.456046625E0,1.078831114E-1,-8.929744953E-1,-2.370267244E0,2.535194080E0
7.466072625E0,4.154202600E-1,-1.093443945E0,-2.264134871E0,2.548430962E0
7.476098625E0,8.677944843E-1,-1.613899933E0,-2.314760649E0,2.952263051E0
7.486124625E0,1.361210462E0,-2.583512714E0,-2.527841374E0,3.862306807E0
7.496150625E0,1.811606134E0,-3.876666555E0,-2.890457037E0,5.163836002E0
7.506177625E0,2.222652385E0,-5.000483277E0,-3.076275119E0,6.277617799E0
7.516203625E0,2.440172315E0,-5.480266618E0,-3.170289575E0,6.785167582E0
7.526229625E0,2.300996304E0,-5.006622854E0,-2.914520668E0,6.233400927E0
7.536255625E0,1.517782086E0,-3.873241256E0,-2.446727044E0,4.826192445E0
7.546282625E0,8.841576615E-2,-2.628419915E0,-1.969702420E0,3.285747437E0
7.556308625E0,-1.150068747E0,-1.420444803E0,-1.716423842E0,2.507275886E0
7.566334625E0,-2.169335426E0,-2.430979908E-1,-1.768171116E0,2.809188836E0
7.576360625E0,-2.919140261E0,5.100274783E-1,-1.992041123E0,3.570677209E0
7.586387625E0,-3.201344723E0,7.490908903E-1,-1.966684088E0,3.831134492E0
7.596413625E0,-2.954367689E0,2.590918797E-1,-1.581002913E0,3.360801579E0
7.606439625E0,-2.051688862E0,-3.557387531E-1,5.959255613E-2,2.083153504E0
7.616465625E0,-1.236469910E0,-9.681340206E-1,2.119313812E0,2.637732426E0
7.626491625E0,-7.171054512E-1,-1.568621433E0,3.668586370E0,4.053805543E0
7.636518625E0,-3.697735325E-1,-1.776597539E0,3.126619645E0,3.615076996E0
7.646544625E0,2.096168339E-1,-1.485750015E0,2.489957263E0,2.907108443E0
7.656570625E0,4.650703933E-1,-1.411614338E0,2.416973487E0,2.837376666E0
7.666596625E0,1.351202367E-1,-1.376475495E0,2.539352202E0,2.891582936E0
7.676623625E0,-9.025840653E-2,-1.350294002E0,2.571042649E0,2.905460510E0
7.686649625E0,5.539111242E-2,-1.336202213E0,2.497233831E0,2.832786850E0
7.696675625E0,1.171993247E-1,-1.298087722E0,2.396727357E0,2.728198937E0
7.706701625E0,-9.341307074E-2,-1.296807767E0,2.234053578E0,2.584846567E0
7.716728625E0,5.939483254E-1,-1.247817455E0,1.337049766E0,1.922894977E0
7.726754625E0,1.380446047E0,-1.418028148E0,1.604972988E-2,1.979063595E0
7.736780625E0,1.830077927E0,-1.673854358E0,3.532978329E-1,2.505153287E0
7.746806625E0,2.026365156E0,-1.728641599E0,1.068221980E0,2.869748373E0
7.756832625E0,1.827217908E0,-1.184172851E0,9.252672055E-1,2.365821216E0
7.766859625E0,1.162832707E0,-3.140235472E-1,9.695455384E-1,1.546224189E0
7.776885625E0,1.370403162E0,2.513606912E-1,1.883885467E0,2.343120030E0
7.786911625E0,1.566647560E0,6.054172003E-1,2.091246153E0,2.682205256E0
7.796937625E0,1.072425544E0,1.139923462E0,1.814418207E0,2.396171003E0
7.806964625E0,8.872224431E-1,1.709517111E0,1.668822829E0,2.548446988E0
7.816990625E0,8.194159377E-1,1.650772474E0,1.887916245E0,2.638317644E0
7.827016625E0,5.393692450E-1,1.414175418E0,2.262508176E0,2.722086432E0
7.837042625E0,2.726998124E-1,1.290940086E0,2.506615689E0,2.832669007E0
7.847069625E0,-1.134213656E-1,1.438700979E0,2.639526701E0,3.008292891E0
7.857095625E0,-3.637152323E-1,1.713973274E0,2.980982460E0,3.457781020E0
7.867121625E0,-6.480062726E-1,2.003782332E0,3.147391879E0,3.786968630E0
7.877147625E0,-7.156994882E-1,2.273605022E0,2.822783117E0,3.694537871E0
7.887173625E0,-4.229067425E-1,2.459152962E0,2.318053216E0,3.405826495E0
7.897200625E0,-2.453393747E-1,2.513601065E0,1.774853899E0,3.086824919E0
7.907226625E0,-1.617190745E-1,2.493286668E0,1.175250000E0,2.761130933E0
7.917252625E0,-8.875985652E-2,2.404434133E0,3.942280501E-1,2.438154542E0
7.927278625E0,-1.794536796E-1,2.388418025E0,-2.565962881E-1,2.408855732E0
7.937305625E0,-8.758865923E-2,2.350988828E0,-7.717453426E-1,2.475966703E0
7.947331625E0,-9.654337764E-2,2.285742672E0,-1.489194610E0,2.729769363E0
7.957357625E0,-2.810040280E-1,2.097714343E0,-1.869922609E0,2.824177631E0
7.967383625E0,-3.839764193E-1,1.800721396E0,-1.821143382E0,2.589710149E0
7.977410625E0,-4.605369374E-1,1.416554065E0,-1.033895316E0,1.813190342E0
7.987436625E0,3.697369874E-2,1.043917444E0,2.418537033E-1,1.072205156E0
7.997462625E0,7.908405948E-1,1.253382250E0,1.076938425E0,1.831991343E0
8.007488625E0,6.483600292E-1,1.714695990E0,1.687395925E0,2.491557359E0
8.017514625E0,1.816893625E-1,2.222157710E0,2.206625751E0,3.136908210E0
8.027541625E0,-1.377533841E-1,2.692711805E0,1.631774871E0,3.151565022E0
8.037567625E0,-5.692781916E-1,2.920287777E0,2.083497423E-1,2.982543877E0
8.047593625E0,-2.196714136E-1,3.164467503E0,-8.929277176E-1,3.295364929E0
8.057619625E0,-5.633616865E-2,3.279090471E0,-1.539519256E0,3.622944607E0
8.067646625E0,-2.225119910E-1,3.144674678E0,-1.829217802E0,3.644794669E0
8.077672625E0,-4.920829582E-1,2.695794457E0,-1.816654474E0,3.287808825E0
8.087698625E0,-4.298685837E-1,1.994657167E0,-1.721677566E0,2.669759887E0
8.097724625E0,-3.793790460E-1,1.348322906E0,-1.506966637E0,2.057389503E0
8.107751625E0,-1.149901736E-1,9.785110742E-1,-1.054518446E0,1.443161742E0
8.117777625E0,5.653257662E-1,8.768391037E-1,-5.403388596E-1,1.174906855E0
8.127803625E0,1.014857951E0,1.103021100E0,-1.283650947E-1,1.504350293E0
8.137829625E0,9.844474599E-1,1.865102749E0,1.984246784E-1,2.118281714E0
8.147855625E0,6.899951282E-1,2.784286219E0,1.670274693E-1,2.873367572E0
8.157882625E0,-1.382632613E-2,3.755601709E0,-6.674596667E-2,3.756220227E0
8.167908167E0,-1.220605098E0,4.266524397E0,-5.496394408E-1,4.471600468E0
8.177934167E0,-3.794312324E0,3.011147076E0,-1.227098431E0,4.996957403E0
8.187960167E0,-7.096483217E0,-1.555704349E0,-2.126936973E0,7.569950525E0
8.197987167E0,-1.005112280E1,-9.173852173E0,-3.656807154E0,1.409102096E1
8.208013167E0,-1.151313371E1,-1.814096083E1,-5.437389570E0,2.216330104E1
8.218039167E0,-1.239114108E1,-2.656740436E1,-9.170602291E0,3.071591278E1
8.228065167E0,-7.470914934E0,-2.680984162E1,-8.037745188E0,2.896873358E1
8.238092167E0,1.866162264E0,-1.426736056E1,-4.809709096E-1,1.439692578E1
8.248118167E0,4.980015099E0,1.449320108E-1,7.060452089E0,8.641269547E0
8.258144167E0,3.840184608E0,1.258432139E1,1.298987258E1,1.848915770E1
8.268170167E0,-7.452159405E-2,2.044392180E1,9.801604568E0,2.267225053E1
8.278196167E0,-2.933296663E-1,1.809817910E1,3.676676577E-1,1.810428978E1
8.288223167E0,6.006538246E0,7.765805807E0,-1.548428074E0,9.939007547E0
8.298249167E0,7.761860690E0,-1.576156155E0,2.516651557E0,8.310492444E0
8.308275167E0,6.242773944E0,-7.341461672E0,7.152766761E0,1.200130653E1
8.318301167E0,4.691123762E0,-1.116795970E1,6.071965665E0,1.354986100E1
8.328328167E0,1.499027288E0,-1.377842808E1,1.101861597E0,1.390346224E1
8.338354167E0,-5.741842979E-1,-1.378262404E1,-1.453568695E0,1.387095076E1
8.348380167E0,-7.038366571E-1,-9.970570389E0,3.094872773E-2,9.995429843E0
8.358406167E0,-7.177302262E-1,-4.344347913E0,1.892094081E0,4.792547911E0
8.368433167E0,-1.686834008E-1,3.949905270E-1,2.330232382E0,2.369484028E0
8.378459167E0,5.690261766E-1,3.005582866E0,2.702881867E0,4.082020277E0
8.388485167E0,9.866328567E-1,3.841548178E0,3.068195144E0,5.014454929E0
8.398511167E0,1.164060330E0,3.595403203E0,3.163460612E0,4.928432174E0
8.408537167E0,1.317630140E0,2.694766517E0,2.907752516E0,4.177671656E0
8.418564167E0,1.473563541E0,1.736793787E0,2.709675162E0,3.539799663E0
8.428590167E0,1.854090834E0,9.418800223E-1,2.494083059E0,3.247343699E0
8.438616167E0,2.038394486E0,1.901268947E-1,2.466836203E0,3.205695115E0
8.448642167E0,1.885511578E0,-4.646910918E-1,2.183781264E0,2.922326527E0
8.458669167E0,1.606095654E0,-9.521968496E-1,1.478431056E0,2.381592004E0
8.468695167E0,1.478517156E0,-1.163848515E0,6.180471861E-1,1.980539994E0
8.478721167E0,1.473509162E0,-1.019426966E0,1.094759569E-1,1.795117148E0
8.488747167E0,1.320613243E0,-5.661841375E-1,-2.088947028E-2,1.437017810E0
8.498773167E0,1.182634888E0,-1.499167621E-2,-3.740054548E-2,1.183321101E0
8.508800167E0,1.116786907E0,4.974132800E-1,7.542528123E-2,1.224876296E0
8.518826167E0,1.041204482E0,1.017137196E0,2.699434349E-1,1.480386540E0
8.528852167E0,9.592597014E-1,1.650739145E0,4.038297629E-1,1.951460319E0
8.538878167E0,9.260865466E-1,1.994589924E0,3.939517692E-1,2.234104575E0
8.548905167E0,5.337483166E-1,1.882387703E0,5.020059755E-1,2.019970477E0
8.558931167E0,1.382710089E-1,1.482680812E0,5.057506786E-1,1.572655401E0
8.568957167E0,-4.545856413E-1,1.493675331E0,2.897660807E-1,1.587979371E0
8.578983167E0,-4.308179522E-1,1.326971798E0,2.610439727E-1,1.419366836E0
8.589010167E0,-1.288019548E-1,8.251292521E-1,3.372008868E-1,9.006290381E-1
8.599036167E0,2.902813666E-1,3.169483244E-1,4.449086456E-1,6.185977813E-1
8.609062167E0,8.557126750E-1,-2.593830711E-1,3.241323598E-1,9.510970226E-1
8.619088167E0,1.353490383E0,-8.399028271E-1,-2.260578887E-1,1.608873875E0
8.629115167E0,1.711740807E0,-1.051228217E0,-8.659176743E-1,2.187453034E0
8.639141167E0,1.927082796E0,-1.016619133E0,-1.056258504E0,2.421331161E0
8.649167167E0,2.215220135E0,-9.567921764E-1,-1.052432305E0,2.632539700E0
8.659193167E0,2.168060148E0,-6.894346726E-1,-9.993779596E-1,2.484866451E0
8.669219167E0,1.650772767E0,-3.866044503E-1,-5.889853549E-1,1.794830766E0
8.679246167E0,9.412111739E-1,1.328838229E-1,-5.160284027E-1,1.081583051E0
8.689272167E0,6.087395152E-1,4.164258349E-1,-9.475377882E-1,1.200750654E0
8.699298167E0,8.864956342E-2,7.973923999E-1,-7.313065839E-1,1.085588644E0
8.709324167E0,-4.816445088E-1,1.152996082E0,-6.599670446E-1,1.413130531E0
8.719351167E0,-7.522677556E-1,1.038077829E0,-1.218744514E0,1.768855717E0
8.729377167E0,-7.542488654E-1,8.537361699E-1,-1.616085037E0,1.977242435E0
8.739403167E0,-5.915657312E-1,6.127461004E-1,-1.685211990E0,1.888212713E0
8.749429167E0,-2.429494715E-1,3.596476167E-1,-1.530550797E0,1.590898047E0
8.759455167E0,1.468436848E-1,1.517978114E-1,-1.409981795E0,1.425711859E0
8.769482167E0,3.758912549E-1,-1.038559055E-1,-1.705645670E0,1.749659234E0
8.779508167E0,4.879493422E-1,-2.058085424E-1,-2.371389179E0,2.429802122E0
8.789534167E0,4.828715470E-1,-6.958478987E-2,-2.369759560E0,2.419456002E0
8.799560167E0,4.754565467E-1,2.014763403E-1,-1.862571489E0,1.932828031E0
8.809587167E0,4.526154951E-1,4.533030546E-1,-1.349067256E0,1.493427905E0
8.819613167E0,1.760319987E-1,7.289653587E-1,-1.099381135E0,1.330795491E0
8.829639167E0,-2.486876366E-1,8.607130677E-1,-1.090011629E0,1.410956370E0
8.839665167E0,-5.506910625E-1,8.862501973E-1,-1.129987362E0,1.538041448E0
8.849692167E0,-6.737574834E-1,7.583037633E-1,-1.255719382E0,1.614250572E0
8.859718167E0,-6.740223623E-1,5.703602189E-1,-1.563603938E0,1.795682098E0
8.869744167E0,-5.704637877E-1,3.378538746E-1,-1.765771419E0,1.886139676E0
8.879770167E0,-4.827046821E-1,-1.414114022E-1,-1.885017196E0,1.950971764E0
8.889796167E0,-2.559271839E-1,-6.783237934E-1,-2.018750035E0,2.144988017E0
8.899823167E0,5.154249335E-1,-1.272412598E0,-2.393533900E0,2.759293607E0
8.909849167E0,1.134465964E0,-1.696656745E0,-2.861851873E0,3.515089370E0
8.919875167E0,1.584510803E0,-2.188991718E0,-3.282248552E0,4.251530876E0
8.929901167E0,1.882260965E0,-3.145760506E0,-3.102437316E0,4.802481941E0
8.939928167E0,2.067969557E0,-4.416106113E0,-2.574974610E0,5.514434289E0
8.949954167E0,2.357946284E0,-5.166450647E0,-2.501866872E0,6.205760292E0
8.959980167E0,2.559030714E0,-4.937143314E0,-2.720830480E0,6.190875609E0
8.970006167E0,2.244739949E0,-4.223161445E0,-2.669874920E0,5.477424771E0
8.980033167E0,1.112544021E0,-3.477626247E0,-1.914265553E0,4.122626726E0
8.990059167E0,-5.035036302E-1,-2.552336529E0,-1.530090621E0,3.018131040E0
9.000085167E0,-1.872847386E0,-1.967443056E0,-1.158476093E0,2.953041884E0
9.010111167E0,-2.884740507E0,-1.630039417E0,-7.619436550E-1,3.399899179E0
9.020137167E0,-3.661272965E0,-1.002793391E0,-4.912537500E-1,3.827772793E0
9.030164167E0,-3.835387844E0,-4.967209697E-1,-1.407062280E-1,3.869978021E0
9.040190167E0,-3.322692574E0,-5.511193711E-1,8.706564040E-1,3.478801672E0
9.050216167E0,-2.458399548E0,-9.208902723E-1,2.197901559E0,3.423819285E0
9.060242167E0,-2.363781659E0,-1.220523237E0,3.069670104E0,4.062021079E0
9.070269167E0,-1.367954640E0,-1.095027371E0,3.451072286E0,3.870437284E0
9.080295167E0,-1.660317615E-1,-6.924910122E-1,3.396549339E0,3.470397349E0
9.090321167E0,1.718444786E-1,-5.493207675E-1,3.027742352E0,3.081964889E0
9.100347167E0,-4.040127442E-1,-7.743467689E-1,2.806151589E0,2.938932793E0
9.110374167E0,-5.550221682E-1,-8.962273014E-1,2.979331791E0,3.160330822E0
9.120400167E0,-1.757811897E-1,-8.379884487E-1,2.785437828E0,2.914067185E0
9.130426167E0,-8.178427443E-3,-8.938685346E-1,2.741669665E0,2.883716421E0
9.140452167E0,3.213035499E-1,-8.405413431E-1,1.519183810E0,1.765691131E0
9.150478167E0,1.164875139E0,-1.046919989E0,6.777206531E-1,1.706540605E0
9.160505167E0,1.719331663E0,-1.699949312E0,1.131232746E0,2.669385052E0
9.170531042E0,1.774652024E0,-2.002566696E0,1.114240737E0,2.898481602E0
9.180557042E0,1.947511506E0,-2.037808449E0,1.129777958E0,3.036751978E0
9.190583042E0,1.792744332E0,-1.740017942E0,1.558534986E0,2.944592669E0
9.200610042E0,1.499360433E0,-6.723058391E-1,2.017935810E0,2.602333911E0
9.210636042E0,1.478105512E0,3.906144708E-1,2.316351677E0,2.775402792E0
9.220662042E0,1.218027207E0,9.840507263E-1,1.957916188E0,2.507066394E0
9.230688042E0,7.657830830E-1,1.520921602E0,1.718990770E0,2.419618879E0
9.240714042E0,8.706783311E-1,1.663422341E0,2.162320814E0,2.863683981E0
9.250741042E0,7.609002194E-1,1.649772601E0,2.324274654E0,2.950079905E0
9.260767042E0,2.769402131E-1,1.803322822E0,2.843675219E0,3.378632539E0
9.270793042E0,1.423650831E-2,1.819665790E0,3.236021635E0,3.712576233E0
9.280819042E0,-1.587619914E-1,1.813107553E0,2.829920813E0,3.364671779E0
9.290846042E0,-5.451264136E-1,2.433701202E0,2.411234445E0,3.469022325E0
9.300872042E0,-2.742427464E-1,2.770946381E0,2.386168601E0,3.667036068E0
9.310898042E0,2.076872528E-2,2.810043204E0,1.948729627E0,3.419696084E0
9.320924042E0,1.185423571E-1,2.631272771E0,1.283549205E0,2.930042192E0
9.330951042E0,1.253219113E-1,2.391402444E0,4.145167190E-1,2.430295319E0
9.340977042E0,1.615541831E-1,2.075670340E0,-1.774448687E-1,2.089496063E0
9.351003042E0,2.927367586E-1,1.917033625E0,-3.841977364E-1,1.976947301E0
9.361029042E0,3.903674260E-1,1.988205934E0,-5.778048939E-1,2.106942823E0
9.371055042E0,2.901183754E-1,2.150566156E0,-8.858134103E-1,2.343879020E0
9.381082042E0,4.468705326E-2,2.311380959E0,-8.048487693E-1,2.447909396E0
9.391108042E0,-1.409219903E-1,2.401234537E0,-5.984894192E-1,2.478704479E0
9.401134042E0,-3.205376378E-1,2.296479329E0,-3.605258685E-1,2.346601924E0
9.411160042E0,-3.515272960E-1,2.270156919E0,-9.972250879E-2,2.299375666E0
9.421187042E0,8.477877975E-2,2.430194626E0,4.777128410E-1,2.478153127E0
9.431213042E0,2.320403212E-1,2.471920942E0,6.374003005E-1,2.563301581E0
9.441239042E0,-1.944143656E-1,2.309301689E0,1.475878161E-1,2.322165670E0
9.451265042E0,-1.926113766E-1,2.224783110E0,-3.731868446E-1,2.264073199E0
9.461292042E0,-3.825014591E-2,2.077007598E0,-5.567449772E-1,2.150671664E0
9.471318042E0,-2.137391210E-1,1.768600302E0,-7.106401849E-1,1.917978340E0
9.481344042E0,-2.233995983E-1,1.399428740E0,-1.040562896E0,1.758146558E0
9.491370042E0,-4.695738092E-1,9.306720793E-1,-1.399160938E0,1.744792656E0
9.501396042E0,-6.861570159E-1,4.671194404E-1,-1.638864035E0,1.837086647E0
9.511423042E0,-7.998251340E-1,3.394127423E-1,-1.363429772E0,1.616744259E0
9.521449042E0,-8.696584305E-1,6.063925159E-1,-9.016166800E-1,1.391736436E0
9.531475042E0,-8.831853792E-1,1.084562024E0,-6.185213953E-1,1.529333160E0
9.541501042E0,-7.692398107E-1,1.601122597E0,-5.754876423E-1,1.867219720E0
9.551528042E0,-4.929699808E-1,2.060841801E0,-4.012827158E-1,2.156644651E0
9.561554042E0,-1.718599007E-1,2.327722757E0,-2.116241831E-1,2.343632619E0
9.571580042E0,4.766357839E-3,2.417793851E0,-2.554151505E-1,2.431252090E0
9.581606042E0,-1.945240009E-1,2.522905154E0,-4.807072002E-1,2.575649319E0
9.591633042E0,-5.701906496E-1,2.729786661E0,-6.093289876E-1,2.854493721E0
9.601659042E0,-8.278344664E-1,2.946559902E0,-5.787001026E-1,3.114870618E0
9.611685042E0,-1.268429767E0,3.208085977E0,-5.703146106E-1,3.496568099E0
9.621711042E0,-1.671046233E0,3.535481522E0,-4.813924938E-1,3.940020792E0
9.631737042E0,-2.476429145E0,3.307760539E0,-6.496724367E-1,4.182828633E0
9.641764042E0,-4.709731649E0,1.354430323E0,-1.225878117E0,5.051616658E0
9.651790042E0,-8.451116438E0,-3.211808315E0,-2.463302146E0,9.370428974E0
9.661816042E0,-1.117264332E1,-1.072737083E1,-3.561517419E0,1.589304408E1
9.671842042E0,-1.116225282E1,-2.028121718E1,-6.822075140E0,2.413429857E1
9.681869042E0,-7.338738039E0,-2.748595984E1,-1.242271839E1,3.104285741E1
9.691895042E0,5.212591025E-1,-2.152512109E1,-8.247981827E0,2.305714105E1
9.701921042E0,5.296098036E0,-6.430877702E0,3.545471490E0,9.054016264E0
9.711947042E0,3.659500966E0,7.065742650E0,1.527462999E1,1.722297849E1
9.721973042E0,2.499480039E-2,1.686760917E1,1.470871541E1,2.237997259E1
9.732000042E0,-2.675605776E0,2.059546994E1,3.493182764E0,2.106026054E1
9.742026042E0,4.899694821E-1,1.621358173E1,-3.481053300E0,1.659029942E1
9.752052042E0,6.905917196E0,6.640882791E0,1.693877563E0,9.729452080E0
9.762078042E0,8.280195892E0,-2.377113018E0,9.312866217E0,1.268628344E1
9.772105042E0,6.765851823E0,-8.882293044E0,1.424303965E1,1.809795732E1
9.782131042E0,3.786048161E0,-1.324303947E1,7.314429994E0,1.559529228E1
9.792157042E0,5.182662052E-1,-1.684167092E1,-2.115063032E0,1.698187183E1
9.802183042E0,-2.300113374E-1,-1.727313580E1,-2.425684669E0,1.744414147E1
9.812210042E0,1.295677500E0,-1.172036955E1,1.703426067E0,1.191417236E1
9.822236042E0,1.971601011E0,-4.894883147E0,4.045687925E0,6.649412182E0
9.832262042E0,1.500651644E0,1.472983789E-1,3.505740244E0,3.816263465E0
9.842288042E0,1.358736358E0,2.789651624E0,1.881763220E0,3.628960387E0
9.852314042E0,1.072671858E0,3.759572554E0,1.614682290E0,4.229918391E0
9.862341042E0,8.600445847E-1,3.690843796E0,2.365120963E0,4.467191711E0
9.872367042E0,9.522791491E-1,3.062503172E0,3.246648365E0,4.563604590E0
9.882393042E0,1.313673475E0,2.101661798E0,3.708760834E0,4.460675648E0
9.892419042E0,1.594788747E0,1.189730630E0,3.041145339E0,3.634195247E0
9.902446042E0,1.598454659E0,5.182281983E-1,1.457383418E0,2.224316567E0
9.912472042E0,1.899205611E0,5.345407605E-2,3.724170586E-1,1.936113054E0
9.922498042E0,2.391540584E0,-4.885272664E-1,-2.297464585E-1,2.451715459E0
9.932524042E0,2.457293840E0,-9.654127264E-1,-1.592860481E-1,2.644936066E0
9.942551042E0,2.184570639E0,-1.029266660E0,-5.429958344E-2,2.415509714E0
9.952577042E0,1.781880936E0,-6.175688839E-1,-8.358565539E-2,1.887717553E0
9.962603042E0,1.366798207E0,-7.339483559E-2,-2.474049036E-1,1.390946917E0
9.972629042E0,8.555669332E-1,3.280451703E-1,-5.890705781E-1,1.089317473E0
9.982655042E0,2.440386616E-1,6.774239069E-1,-6.950655413E-1,1.000786753E0
9.992682042E0,-3.306349021E-1,1.245003775E0,-5.680846287E-1,1.407861493E0
1.000270804E1,-6.233564579E-1,1.305679162E0,-3.301035364E-1,1.484028198E0
1.001273404E1,-7.367689066E-1,1.192584656E0,-4.250517936E-1,1.464839790E0
1.002276004E1,-6.314137749E-1,9.259364194E-1,-6.509554620E-1,1.296065053E0
1.003278704E1,-3.171139468E-1,6.814046913E-1,-8.413185842E-1,1.128135882E0
1.004281304E1,1.057660447E-1,6.409004438E-1,-9.402018714E-1,1.142768303E0
1.005283904E1,6.961814824E-1,6.644962978E-1,-4.312567127E-1,1.054611937E0
1.006286504E1,1.015833486E0,5.852367049E-1,-2.311065209E-1,1.194918364E0
1.007289204E1,1.167095839E0,3.706976849E-1,-6.896790862E-1,1.405413360E0
1.008291804E1,1.344369750E0,9.242342949E-2,-1.199771542E0,1.804251608E0
1.009294404E1,1.585893231E0,-3.976685518E-1,-1.484322710E0,2.208259841E0
1.010297004E1,1.970212590E0,-8.221898568E-1,-1.282265157E0,2.490368997E0
1.011299604E1,1.946791568E0,-9.432833540E-1,-8.349964285E-1,2.318835900E0
1.012302304E1,1.404040293E0,-5.081540304E-1,-8.658428299E-1,1.726045616E0
1.013304904E1,1.034977416E0,2.065382749E-1,-8.635483825E-1,1.363653959E0
1.014307504E1,6.721363429E-1,1.140362588E0,-3.831709653E-1,1.378047200E0
1.015310104E1,2.919571786E-1,1.871411310E0,-1.606528348E-1,1.900849446E0
1.016312804E1,-9.394772552E-2,2.066268602E0,-3.254396510E-1,2.093848867E0
1.017315375E1,-3.948447852E-1,1.870587437E0,-5.480080676E-1,1.988796774E0
1.018317975E1,-5.680790008E-1,1.445028836E0,-6.730993062E-1,1.692301617E0
1.019320575E1,-4.497928979E-1,6.926225746E-1,-9.248336345E-1,1.239901985E0
1.020323175E1,-6.058548644E-2,1.312582970E-1,-1.062774130E0,1.072561510E0
1.021325875E1,2.097345457E-1,4.864883423E-4,-9.705770604E-1,9.929796808E-1
1.022328475E1,3.190321259E-1,8.912326097E-2,-1.012533683E0,1.065339811E0
1.023331075E1,3.129233205E-1,1.968921232E-1,-1.298682384E0,1.350282729E0
1.024333675E1,2.367152067E-1,2.258943129E-1,-1.507208712E0,1.542316580E0
1.025336375E1,2.167831083E-1,1.872214133E-1,-1.763807339E0,1.786914408E0
1.026338975E1,2.160694922E-1,1.266740799E-2,-2.228451215E0,2.238937539E0
1.027341575E1,2.130079266E-1,-2.977484071E-1,-2.681103328E0,2.705982547E0
1.028344175E1,1.783601041E-1,-7.768710119E-1,-3.120343244E0,3.220540771E0
1.029346875E1,2.533667978E-2,-1.252506922E0,-3.982480109E0,4.174872855E0
1.030349475E1,-6.538919337E-2,-1.450836291E0,-4.920448344E0,5.130303460E0
1.031352075E1,6.188945208E-2,-1.329248704E0,-5.519337713E0,5.677483704E0
1.032354675E1,3.510753793E-1,-1.180822397E0,-5.654638774E0,5.787273548E0
1.033357275E1,8.490244836E-1,-1.421749901E0,-5.295433207E0,5.548317601E0
1.034359975E1,1.434025400E0,-2.185000994E0,-4.895546806E0,5.549507791E0
1.035362575E1,2.115139630E0,-3.225141721E0,-3.737509255E0,5.370691781E0
1.036365175E1,2.813966686E0,-4.388285061E0,-2.334613116E0,5.711906222E0
1.037367775E1,3.478712075E0,-5.051045905E0,-1.427434564E0,6.296989112E0
1.038370475E1,3.855812461E0,-4.787851034E0,-3.451968080E-1,6.157107121E0
1.039373075E1,2.733437370E0,-4.067933072E0,-7.463037053E-2,4.901563937E0
1.040375675E1,7.102174312E-1,-2.956495491E0,-1.128547704E-1,3.042697912E0
1.041378275E1,-5.738745417E-1,-1.740064135E0,7.608397007E-2,1.833833132E0
1.042380875E1,-1.808780614E0,-9.337588245E-1,-7.072266535E-1,2.154939069E0
1.043383575E1,-3.226990903E0,-4.186682421E-1,-2.481546628E-1,3.263484965E0
1.044386175E1,-3.742520319E0,-8.478842765E-1,5.658688264E-1,3.878862412E0
1.045388775E1,-3.129078692E0,-1.591678174E0,1.187118094E0,3.705917193E0
1.046391375E1,-1.953983350E0,-2.094748051E0,1.715698349E0,3.339107838E0
1.047394075E1,-1.248115078E0,-2.581400115E0,1.871528985E0,3.424038339E0
1.048396675E1,-1.381768395E0,-2.154973787E0,1.493415277E0,2.963694503E0
1.049399275E1,-1.473982640E0,-1.484837265E0,1.239892431E0,2.432015577E0
1.050401875E1,-1.289734097E0,-1.054020848E0,1.946357704E0,2.561773273E0
1.051404575E1,-9.273400435E-1,-6.894340879E-1,2.299450592E0,2.573470797E0
1.052407175E1,-7.769472449E-1,-6.157006985E-1,2.671649257E0,2.849639297E0
1.053409775E1,-7.444757561E-1,-5.798192596E-1,2.187070031E0,2.381955047E0
1.054412375E1,1.289415570E-1,-9.156517518E-1,1.927824077E0,2.138118268E0
1.055415075E1,4.156927402E-1,-1.179647691E0,9.800304732E-1,1.588971006E0
1.056417675E1,1.235740031E0,-1.350673487E0,2.361254784E-1,1.845840603E0
1.057420275E1,2.116919815E0,-1.883379976E0,7.829693654E-1,2.939644649E0
1.058422875E1,2.646425246E0,-1.940488561E0,1.248163025E0,3.510978977E0
1.059425475E1,2.747847833E0,-1.592511987E0,1.673173158E0,3.589745194E0
1.060428175E1,2.272835821E0,-7.900909817E-1,2.153263476E0,3.229019979E0
1.061430775E1,1.714353489E0,1.457582223E-1,2.360181528E0,2.920737953E0
1.062433375E1,1.304028055E0,8.752784818E-1,2.470264426E0,2.927252623E0
1.063435975E1,7.192588346E-1,1.446090690E0,2.632459756E0,3.088422886E0
1.064438675E1,1.731495041E-1,1.890620583E0,3.074687015E0,3.613603074E0
1.065441275E1,5.603316593E-1,1.840265531E0,3.679399626E0,4.151930924E0
1.066443875E1,3.752202138E-2,1.730034991E0,3.897932879E0,4.264775457E0
1.067446475E1,-1.575848007E-1,1.698041366E0,3.578286064E0,3.963875453E0
1.068449075E1,-3.576086926E-1,1.713677990E0,3.142569095E0,3.597265176E0
1.069451775E1,-5.564534935E-1,1.732932286E0,2.943208863E0,3.460516321E0
1.070454375E1,-4.914059968E-1,1.786469977E0,2.715849237E0,3.287672720E0
1.071456975E1,-1.413564384E-1,1.953439559E0,2.154183244E0,2.911428035E0
1.072459575E1,2.187101313E-1,2.013691024E0,1.694971578E0,2.641157759E0
1.073462275E1,5.765755168E-1,1.817504659E0,1.336016856E0,2.328240441E0
1.074464875E1,6.585183969E-1,1.648745829E0,8.117350352E-1,1.952158563E0
1.075467475E1,4.837366426E-1,1.553470713E0,5.053958988E-1,1.703730439E0
1.076470075E1,4.080470672E-1,1.614589319E0,4.400404000E-1,1.722508819E0
1.077472775E1,6.173042974E-1,1.863643284E0,2.776047492E-1,1.982749425E0
1.078475375E1,7.455810991E-1,2.066098448E0,9.703805208E-2,2.198651941E0
1.079477975E1,9.290331048E-1,2.372115403E0,1.773507285E-1,2.553720281E0
1.080480575E1,8.441806501E-1,2.814729747E0,3.576870453E-1,2.960284537E0
1.081483175E1,6.164397866E-1,2.770397912E0,5.146508718E-1,2.884435495E0
1.082485875E1,7.064217111E-1,2.764122680E0,7.044199169E-1,2.938641395E0
1.083488475E1,2.884910953E-1,2.524878005E0,6.169987804E-1,2.615133562E0
1.084491075E1,5.116357550E-1,2.314053136E0,6.814619941E-1,2.465969082E0
1.085493675E1,7.119935229E-1,2.268195763E0,9.090385509E-1,2.545191129E0
1.086496375E1,4.538108853E-1,2.292665191E0,9.371361762E-1,2.518031415E0
1.087498975E1,3.327972025E-2,2.372663872E0,2.726983505E-1,2.388515392E0
1.088501575E1,-1.334311223E-1,2.303138139E0,-1.068510540E0,2.542432679E0
1.089504175E1,-2.735000038E-1,2.033535304E0,-1.978825246E0,2.850581948E0
1.090506875E1,-4.831598148E-1,1.648000894E0,-2.399480957E0,2.950738758E0
1.091509475E1,-8.793475592E-1,1.225458287E0,-2.573897552E0,2.983278189E0
1.092512075E1,-1.135797375E0,1.048672400E0,-2.318546137E0,2.786647747E0
1.093514675E1,-1.019348905E0,1.153269147E0,-1.997040200E0,2.521363020E0
1.094517275E1,-6.789073455E-1,1.478466139E0,-1.946062127E0,2.536520276E0
1.095519975E1,-1.476579827E-1,1.937667865E0,-1.769416573E0,2.628154227E0
1.096522575E1,3.446524322E-1,2.474361570E0,-1.364505075E0,2.846598774E0
1.097525175E1,4.712455282E-1,3.028969975E0,-1.086413253E0,3.252233880E0
1.098527775E1,8.775881320E-2,3.658349065E0,-1.275630321E0,3.875364783E0
1.099530475E1,-7.993117484E-1,4.275063086E0,-1.313224994E0,4.543085245E0
1.100533075E1,-2.717336477E0,4.028521085E0,-8.713742959E-1,4.936820112E0
1.101535675E1,-5.611138998E0,1.282808948E0,3.819272625E-1,5.768565514E0
1.102538275E1,-9.265034239E0,-4.775404066E0,1.766908702E-1,1.042480518E1
1.103540975E1,-1.259176607E1,-1.314044774E1,-1.523272768E0,1.826319521E1
1.104543575E1,-1.437036277E1,-2.346068045E1,-6.156422848E0,2.819241734E1
1.105546175E1,-1.044666589E1,-3.068596789E1,-1.022520143E1,3.398994260E1
1.106548775E1,-2.278046567E0,-2.378499978E1,-4.772982734E0,2.436589983E1
1.107551375E1,2.665416125E0,-8.168224636E0,5.483565617E0,1.019283222E1
1.108554075E1,2.794895407E0,4.836202830E0,1.384285270E1,1.492731955E1
1.109556675E1,1.585472232E0,1.468908982E1,1.415849593E1,2.046328636E1
1.110559275E1,9.873520643E-2,1.985013705E1,4.960056798E0,2.046069044E1
1.111561875E1,2.298212152E0,1.828140043E1,-4.811699488E0,1.904320962E1
1.112564575E1,9.285285485E0,1.013899944E1,-8.026747745E-1,1.377171460E1
1.113567175E1,1.279567134E1,1.094308748E0,7.245289008E0,1.474520022E1
1.114569775E1,1.098401331E1,-6.056382836E0,1.004867867E1,1.607184695E1
1.115572375E1,7.106234618E0,-1.169160242E1,6.935100065E0,1.533909223E1
1.116574975E1,2.806747713E0,-1.569069213E1,5.116284460E-1,1.594795962E1
1.117577700E1,3.100503641E-1,-1.753944607E1,-3.660771566E0,1.792008783E1
1.118580300E1,1.447965308E0,-1.341080194E1,-2.837969798E0,1.378405908E1
1.119582900E1,1.987703074E0,-5.826037622E0,2.615781158E-1,6.161339221E0
1.120585500E1,1.085284009E0,5.235187590E-1,1.968411940E0,2.307933889E0
1.121588200E1,3.821111575E-1,4.098770703E0,1.729137736E0,4.464957729E0
1.122590800E1,-9.932767555E-2,5.434827320E0,1.631221432E0,5.675217824E0
1.123593400E1,-3.668819381E-1,5.409449819E0,2.139065267E0,5.828580438E0
1.124596000E1,-2.756659587E-1,4.746673772E0,2.631025434E0,5.434077517E0
1.125598700E1,-8.802500769E-2,3.741717496E0,2.968246640E0,4.776890865E0
1.126601300E1,8.265770227E-2,2.402568287E0,2.808116254E0,3.696577277E0
1.127603900E1,8.997680828E-2,1.302347419E0,2.503481873E0,2.823406828E0
1.128606500E1,1.949438310E-1,5.353792512E-1,1.818549557E0,1.905716802E0
1.129609100E1,4.928811032E-1,-1.502050298E-1,9.775614864E-1,1.105042892E0
1.130611800E1,6.880260783E-1,-6.785284460E-1,4.021296850E-1,1.046656114E0
1.131614400E1,4.981354111E-1,-1.026866963E0,5.301231891E-2,1.142543195E0
1.132617000E1,2.081097141E-1,-9.974542987E-1,1.666602641E-2,1.019069422E0
1.133619600E1,3.431447276E-1,-5.730008215E-1,2.413616601E-1,7.101645559E-1
1.134622300E1,8.305889435E-1,-2.735385954E-2,3.403596988E-1,8.980372772E-1
1.135624900E1,1.285144618E0,5.024869090E-1,3.567294176E-1,1.425252841E0
1.136627500E1,8.258668783E-1,1.374868680E0,2.143530786E-1,1.618106063E0
1.137630100E1,5.348323904E-1,1.770945035E0,9.694566607E-2,1.852482244E0
1.138632800E1,5.904264012E-1,1.713592620E0,4.613453150E-2,1.813044787E0
1.139635400E1,7.770009662E-1,1.347111948E0,-1.123776376E-1,1.559188839E0
1.140638000E1,9.801287795E-1,7.147297275E-1,-1.240485339E-1,1.219376499E0
1.141640600E1,1.316746772E0,-3.672402263E-2,-8.051045850E-2,1.319716882E0
1.142643200E1,1.680658178E0,-6.912964261E-1,-7.595547751E-2,1.818865552E0
1.143645900E1,1.719043980E0,-8.644242954E-1,-2.792863353E-1,1.944310269E0
1.144648500E1,1.425515947E0,-8.080647379E-1,-3.819611764E-1,1.682545297E0
1.145651100E1,1.076499664E0,-7.439277989E-1,-7.207115022E-1,1.493889275E0
1.146653700E1,6.203549360E-1,-7.397476244E-1,-8.848147058E-1,1.309566286E0
1.147656400E1,3.037003610E-1,-6.665995413E-1,-7.772248415E-1,1.068020277E0
1.148659000E1,-2.349213906E-2,-3.281632841E-1,-3.985075907E-1,5.167700857E-1
1.149661600E1,-5.855961260E-1,3.822915441E-1,-3.246455991E-1,7.710151830E-1
1.150664200E1,-8.089426973E-1,9.622160536E-1,-4.333710659E-1,1.329683610E0
1.151666800E1,-8.925412166E-1,1.131375418E0,-2.711353898E-1,1.466340533E0
1.152669500E1,-1.007071945E0,1.007607989E0,-2.740005255E-1,1.450704674E0
1.153672100E1,-1.034070733E0,8.750691515E-1,-5.193391693E-1,1.450779609E0
1.154674700E1,-1.008497204E0,7.963147581E-1,-6.452069181E-1,1.437871959E0
1.155677300E1,-1.021661625E0,6.189944351E-1,-5.572660007E-1,1.318139592E0
1.156680000E1,-8.836606117E-1,4.935137719E-1,-5.000977733E-1,1.128941851E0
1.157682600E1,-5.860041155E-1,4.064177406E-1,-7.114845959E-1,1.007366137E0
1.158685200E1,-4.214779389E-1,3.156671995E-1,-1.157172822E0,1.271352969E0
1.159687800E1,-2.714281891E-1,1.455962545E-1,-1.487632819E0,1.519184957E0
1.160690500E1,-1.321636287E-1,-8.041968048E-2,-1.528421241E0,1.536231115E0
1.161693100E1,1.582057567E-1,-3.353003955E-1,-1.342146492E0,1.392412519E0
1.162695700E1,3.914164165E-1,-5.091398710E-1,-1.257002261E0,1.411554074E0
1.163698300E1,5.343589121E-1,-6.477276528E-1,-1.313185818E0,1.558700597E0
1.164700900E1,7.505962560E-1,-7.148782468E-1,-1.378011705E0,1.724343906E0
1.165703600E1,9.342885822E-1,-7.578956276E-1,-1.517960572E0,1.936880284E0
1.166706200E1,1.010846323E0,-8.889258832E-1,-1.867080862E0,2.301736401E0
1.167708800E1,1.000937485E0,-8.446887732E-1,-2.524529511E0,2.844050672E0
1.168711400E1,8.516137037E-1,-6.366044945E-1,-3.358162369E0,3.522465852E0
1.169714100E1,5.203856016E-1,-3.871482414E-1,-4.210145543E0,4.259813427E0
1.170716700E1,8.010539263E-2,-1.481468099E-1,-4.809176999E0,4.812125078E0
1.171719300E1,-2.511900804E-1,8.062140942E-3,-4.856856950E0,4.863354900E0
1.172721900E1,-4.267496058E-1,-3.078208208E-1,-4.629745247E0,4.659550400E0
1.173724600E1,-2.430334521E-1,-1.004074516E0,-4.309413139E0,4.431509054E0
1.174727200E1,4.412699598E-1,-1.732199045E0,-3.738873410E0,4.144201623E0
1.175729800E1,1.244327252E0,-2.616650054E0,-3.357204595E0,4.434639840E0
1.176732400E1,1.905868952E0,-3.508960306E0,-3.283736669E0,5.169919284E0
1.177735000E1,2.772024315E0,-4.147437664E0,-2.414698336E0,5.542213099E0
1.178737700E1,3.331225415E0,-4.080237368E0,-1.327502725E0,5.432095658E0
1.179740300E1,3.041531548E0,-3.865939254E0,-6.060773510E-1,4.956181012E0
1.180742900E1,2.018253898E0,-3.670494901E0,-2.323122168E-1,4.195217585E0
1.181745500E1,5.510603142E-1,-3.133060353E0,7.602531519E-3,3.181162122E0
1.182748200E1,-6.663171939E-1,-2.530971973E0,-2.700664822E-1,2.631108822E0
1.183750800E1,-1.753360411E0,-1.868152072E0,4.144822935E-1,2.595392160E0
1.184753400E1,-2.901956756E0,-1.219901678E0,1.768113813E0,3.610504061E0
1.185756000E1,-3.477947259E0,-1.386172518E0,1.765799778E0,4.139521740E0
1.186758600E1,-3.213969738E0,-1.365207326E0,1.891762544E0,3.971417636E0
1.187761300E1,-2.549232535E0,-1.309784492E0,1.920261873E0,3.449859069E0
1.188763900E1,-2.019225267E0,-1.423473660E0,1.548950961E0,2.915955593E0
1.189766500E1,-1.864400498E0,-1.100461773E0,1.525452025E0,2.648397480E0
1.190769100E1,-1.944802929E0,-4.657775044E-1,1.635559773E0,2.583459481E0
1.191771800E1,-1.968041811E0,-2.117048746E-1,2.481978445E0,3.174621950E0
1.192774400E1,-1.925563982E0,-2.663991451E-3,3.034245332E0,3.593667832E0
1.193777000E1,-1.126742669E0,6.514266014E-2,3.410928227E0,3.592801689E0
1.194779600E1,-7.420846834E-1,-2.415408772E-1,2.508986150E0,2.627554599E0
1.195782300E1,-2.096153721E-2,-7.718125856E-1,1.316115857E0,1.525875160E0
1.196784900E1,1.181380733E0,-1.312496431E0,7.551641008E-1,1.920567660E0
1.197787500E1,2.223439128E0,-1.585074329E0,4.271133757E-1,2.763795943E0
1.198790100E1,3.060378293E0,-1.695170383E0,5.840342250E-1,3.546916111E0
1.199792700E1,3.642160463E0,-1.912952269E0,8.399396646E-1,4.198835298E0
1.200795400E1,3.582524711E0,-1.518195630E0,5.815383410E-1,3.934156596E0
1.201798000E1,3.249068235E0,-8.461505771E-1,1.020179795E0,3.509014393E0
1.202800600E1,2.957947647E0,-1.987948072E-1,1.990797713E0,3.571029150E0
1.203803200E1,2.457931771E0,2.939091253E-1,3.018561931E0,3.903783715E0
1.204805900E1,1.842147603E0,8.408722955E-1,3.732822711E0,4.246709244E0
1.205808500E1,1.160567057E0,1.240998432E0,3.943612497E0,4.294074118E0
1.206811100E1,5.005335005E-1,1.407628875E0,3.764243309E0,4.049874137E0
1.207813700E1,-6.614822043E-1,1.775288347E0,3.410346429E0,3.901239571E0
1.208816400E1,-1.271990868E0,1.922053460E0,3.520131996E0,4.207562185E0
1.209819000E1,-1.693126489E0,1.970259660E0,3.331788502E0,4.224856809E0
1.210821600E1,-2.205238792E0,2.324606191E0,2.670761358E0,4.171311341E0
1.211824200E1,-2.461446825E0,2.652715681E0,1.859469541E0,4.068568290E0
1.212826800E1,-2.471830895E0,2.918317850E0,1.074667366E0,3.972585681E0
1.213829500E1,-1.873359602E0,2.923423639E0,9.578750807E-1,3.601861552E0
1.214832100E1,-8.856938347E-1,2.834731318E0,1.128142492E0,3.176926297E0
1.215834700E1,-1.255847436E-1,2.829824334E0,9.145641696E-1,2.976592836E0
1.216837300E1,2.755082300E-1,2.705465752E0,4.931079751E-1,2.763802669E0
1.217840050E1,4.346089214E-1,2.470530474E0,5.639288664E-2,2.509100615E0
1.218842650E1,5.417717198E-1,2.166874625E0,-1.073297364E-1,2.236153373E0
1.219845250E1,7.238002208E-1,1.979091294E0,5.602334261E-2,2.108038834E0
1.220847850E1,8.065114251E-1,1.930329024E0,3.682675821E-1,2.124206165E0
1.221850450E1,8.568001109E-1,1.981991513E0,6.938294399E-1,2.267993845E0
1.222853150E1,8.124723691E-1,2.018569940E0,8.527187544E-1,2.337063377E0
1.223855750E1,1.221728933E-1,1.959511308E0,5.285140353E-1,2.033208762E0
1.224858350E1,-1.284826237E-1,2.014941158E0,1.536414385E-2,2.019091804E0
1.225860950E1,-3.109435263E-1,1.852358742E0,-6.720661032E-1,1.994891384E0
1.226863650E1,-5.606427312E-2,1.489317986E0,-1.421606060E0,2.059654111E0
1.227866250E1,2.505599150E-1,1.214782441E0,-1.813719757E0,2.197283779E0
1.228868850E1,4.656672844E-1,1.214485987E0,-1.678901090E0,2.123801098E0
1.229871450E1,3.957550505E-1,1.611711904E0,-6.985849804E-1,1.800627196E0
1.230874150E1,-1.991392082E-1,2.111055350E0,-4.188360572E-2,2.120840718E0
1.231876750E1,-1.150897517E0,2.494316947E0,-3.813057035E-1,2.773369101E0
1.232879350E1,-2.661936447E0,2.784175122E0,-7.777305526E-1,3.929682121E0
1.233881950E1,-4.184537662E0,2.869322276E0,-5.855507004E-1,5.107468590E0
1.234884550E1,-4.956154951E0,2.978533062E0,-2.092981607E-1,5.786098583E0
1.235887250E1,-4.162825781E0,3.218939579E0,-3.994197929E-1,5.277331397E0
1.236889850E1,-2.227407925E0,3.400795003E0,-1.393914816E0,4.297644847E0
1.237892450E1,-1.609352553E-1,3.238033662E0,-2.176040720E0,3.904601819E0
1.238895050E1,1.305039769E0,2.768166030E0,-1.744484630E0,3.522655049E0
1.239897750E1,1.577428217E0,2.367560422E0,-8.776986444E-1,2.977243195E0
1.240900350E1,1.259961245E0,2.394458199E0,-9.695034385E-2,2.707458545E0
1.241902950E1,9.070908433E-1,2.671137334E0,6.132635790E-1,2.886846146E0
1.242905550E1,-6.861520457E-1,1.986488022E0,5.422839358E-1,2.170486388E0
1.243908250E1,-3.888799528E0,-1.647760574E0,8.564709127E-2,4.224359372E0
1.244910850E1,-7.366488340E0,-8.199058174E0,-1.900742698E0,1.118492415E1
1.245913450E1,-9.541208174E0,-1.676000871E1,-5.920116983E0,2.017375351E1
1.246916050E1,-8.321480159E0,-2.615547036E1,-1.300273879E1,3.037148132E1
1.247918650E1,-5.604846225E0,-2.773251120E1,-1.131637958E1,3.047239612E1
1.248921350E1,-1.227243150E0,-1.415493848E1,1.542936954E0,1.429157317E1
1.249923950E1,7.091128922E-1,1.014093720E0,1.223856033E1,1.230095875E1
1.250926550E1,-2.202985275E-1,1.277084523E1,1.679943999E1,2.110365380E1
1.251929150E1,-1.953123810E0,2.022749530E1,7.936135198E0,2.181624396E1
1.252931850E1,3.753710720E-1,1.957883560E1,-6.593692837E0,2.066273196E1
1.253934450E1,8.287814230E0,1.029247832E1,-5.026650152E0,1.413825260E1
1.254937050E1,1.232944711E1,1.892872345E-1,7.269352639E0,1.431413929E1
1.255939650E1,1.033208619E1,-6.629623978E0,1.293719501E1,1.783465542E1
1.256942250E1,5.522479421E0,-1.144020606E1,7.285847050E0,1.464444130E1
1.257944950E1,1.325771657E0,-1.561200498E1,-2.444819682E0,1.585779030E1
1.258947550E1,-4.444623569E-1,-1.817182478E1,-4.223557886E0,1.866148986E1
1.259950150E1,1.357489586E-2,-1.508823011E1,5.506896007E-1,1.509828240E1
1.260952750E1,1.236404567E0,-7.540912537E0,3.443933421E0,8.381809802E0
1.261955450E1,1.019788616E0,-7.847156364E-1,3.312764879E0,3.553893441E0
1.262958050E1,2.014118747E-1,3.036752034E0,2.983631834E0,4.261981766E0
1.263960650E1,-1.124460500E-1,4.339262005E0,2.787647783E0,5.158761385E0
1.264963250E1,-3.953974932E-2,4.120232908E0,2.943616413E0,5.063868106E0
1.265965950E1,7.092087865E-2,3.280187409E0,3.706820728E0,4.950270611E0
1.266968550E1,9.359126464E-2,2.253308752E0,4.124250530E0,4.700595929E0
1.267971150E1,8.398589730E-2,1.214329281E0,3.908639423E0,4.093789366E0
1.268973750E1,2.460838714E-1,4.118825483E-1,3.005994510E0,3.044044596E0
1.269976350E1,4.909221397E-1,-2.410350931E-1,1.642440777E0,1.731102010E0
1.270979050E1,8.703695981E-1,-7.769604743E-1,7.026192668E-1,1.361941500E0
1.271981650E1,1.246091357E0,-1.020570681E0,5.058820948E-1,1.688260904E0
1.272984250E1,1.654542467E0,-1.022823029E0,4.030778110E-1,1.986491743E0
1.273986850E1,1.806116768E0,-7.703425956E-1,1.401168287E-1,1.968531996E0
1.274989550E1,1.617231968E0,-6.977482438E-2,-3.807177660E-1,1.662905224E0
1.275992150E1,1.798660545E0,7.742023426E-1,-6.346015307E-1,2.058467422E0
1.276994750E1,2.157802378E0,1.251729827E0,-6.250603366E-1,2.571699649E0
1.277997350E1,2.256702622E0,1.214574865E0,-4.765080222E-1,2.606714161E0
1.279000050E1,1.583300868E0,1.571759634E0,-4.031599644E-1,2.267114453E0
1.280002650E1,9.678049685E-1,1.832974053E0,-3.780286315E-1,2.106975553E0
1.281005250E1,6.418319052E-1,1.854258503E0,-2.055422017E-1,1.972934461E0
1.282007850E1,5.716920684E-1,1.648976794E0,-4.374328342E-1,1.799250893E0
1.283010450E1,7.654677719E-1,1.087845236E0,-1.057816422E0,1.699506914E0
1.284013150E1,1.099076422E0,3.678723103E-1,-1.297882046E0,1.740056558E0
1.285015750E1,1.366879337E0,-2.675989938E-1,-1.077152871E0,1.760746050E0
1.286018350E1,1.166457396E0,-6.510096949E-1,-7.240981364E-1,1.519458651E0
1.287020950E1,8.056105884E-1,-7.449528158E-1,-7.538193874E-1,1.331242572E0
1.288023650E1,5.218431663E-1,-4.997802329E-1,-1.203822273E0,1.404025868E0
1.289026250E1,4.560864754E-1,-3.068279636E-1,-1.171821778E0,1.294343290E0
1.290028850E1,2.094583013E-1,-9.718715608E-2,-5.177276035E-1,5.668862273E-1
1.291031450E1,-1.862817292E-1,5.085522258E-1,-7.560413294E-3,5.416487874E-1
1.292034150E1,-3.555922803E-1,1.127537305E0,1.991608429E-1,1.198937566E0
1.293036750E1,-5.847613263E-1,1.432861365E0,5.571227074E-2,1.548593348E0
1.294039350E1,-9.337228641E-1,1.489491649E0,-6.360963714E-1,1.869503237E0
1.295041950E1,-8.988096511E-1,1.244650018E0,-1.067254851E0,1.869771476E0
1.296044550E1,-6.285777292E-1,8.301514256E-1,-8.027121967E-1,1.314765463E0
1.297047250E1,-2.165329206E-1,4.352842748E-1,-7.543323344E-1,8.974275326E-1
1.298049850E1,7.872369558E-2,9.388406396E-2,-1.127911527E0,1.134546628E0
1.299052450E1,2.588521439E-1,-3.719004571E-2,-1.366031783E0,1.390838008E0
1.300055050E1,4.885958250E-1,2.290003538E-2,-1.470941942E0,1.550135635E0
1.301057750E1,7.107248233E-1,1.150252569E-1,-1.601213229E0,1.755632190E0
1.302060350E1,9.136208676E-1,2.024440545E-1,-1.692133924E0,1.933650408E0
1.303062950E1,9.215897454E-1,2.025855571E-1,-1.590121061E0,1.849014211E0
1.304065550E1,7.888994654E-1,1.156216729E-1,-1.281011513E0,1.508880789E0
1.305068250E1,4.416634409E-1,-2.388763011E-2,-1.021933667E0,1.113546422E0
1.306070850E1,1.379942894E-2,-2.097337782E-2,-9.079404438E-1,9.082874854E-1
1.307073450E1,-2.654312848E-1,2.727784574E-2,-9.690007241E-1,1.005067287E0
1.308076050E1,-4.375338449E-1,4.054576278E-2,-1.297248647E0,1.369647354E0
1.309078650E1,-4.843115701E-1,-7.949932873E-2,-1.638637748E0,1.710558829E0
1.310081350E1,-4.380951776E-1,-4.262351239E-1,-1.983742754E0,2.075774333E0
1.311083950E1,-2.513858342E-1,-8.621935827E-1,-2.569444313E0,2.721877420E0
1.312086550E1,-3.041560784E-2,-1.067399862E0,-3.316985106E0,3.484631655E0
1.313089150E1,2.978956839E-1,-1.257351925E0,-3.915193275E0,4.122913300E0
1.314091850E1,9.077466086E-1,-1.595784089E0,-4.254522986E0,4.633734628E0
1.315094450E1,1.662459889E0,-2.327022845E0,-4.195130478E0,5.077196858E0
1.316097050E1,2.041495703E0,-3.337148645E0,-4.015578273E0,5.606169338E0
1.317099650E1,2.019485468E0,-4.390519282E0,-3.616304076E0,6.035945352E0
1.318102392E1,1.881742609E0,-5.219419988E0,-2.727209208E0,6.182311083E0
1.319104992E1,1.650588141E0,-5.340760823E0,-1.561852697E0,5.804097796E0
1.320107592E1,8.255467433E-1,-4.354522653E0,-6.792651951E-1,4.483837215E0
1.321110192E1,-6.385403614E-1,-3.251882792E0,-8.706124038E-1,3.426432758E0
1.322112792E1,-1.800682366E0,-2.396352696E0,-1.462286893E0,3.335153098E0
1.323115492E1,-2.840050822E0,-1.531259480E0,-1.614978744E0,3.608157509E0
1.324118092E1,-3.719222088E0,-7.742368412E-1,-1.491190850E0,4.081140254E0
1.325120692E1,-3.891829847E0,-4.152429432E-1,-6.526217723E-1,3.967956835E0
1.326123292E1,-3.361347932E0,-7.258809525E-1,5.165629113E-1,3.477412877E0
1.327125992E1,-2.528993568E0,-1.086227311E0,1.343316958E0,3.062711003E0
1.328128592E1,-1.801180695E0,-1.654391316E0,2.084886575E0,3.213722850E0
1.329131192E1,-1.223137454E0,-1.683440868E0,2.289790846E0,3.094055673E0
1.330133792E1,-1.597249913E-1,-1.183810909E0,2.209265477E0,2.511528277E0
1.331136492E1,3.706417709E-1,-6.439597070E-1,2.341460205E0,2.456520979E0
1.332139092E1,3.568379931E-1,-3.120922118E-1,2.180890693E0,2.231819688E0
1.333141692E1,-5.947882779E-2,-3.349840611E-1,2.920978626E0,2.940725792E0
1.334144292E1,-2.527394646E-1,-2.744741499E-1,3.249079929E0,3.270433256E0
1.335146892E1,3.120972551E-1,-3.455072951E-1,3.041164635E0,3.076599149E0
1.336149592E1,2.632605790E-1,-7.215060657E-1,2.246016397E0,2.373703180E0
1.337152192E1,6.124060848E-1,-8.948672390E-1,1.050267228E0,1.509599231E0
1.338154792E1,1.255395154E0,-1.239527273E0,5.298837456E-1,1.842069932E0
1.339157392E1,1.570870565E0,-1.704611297E0,9.096829140E-1,2.490152005E0
1.340160092E1,1.540066702E0,-1.733181962E0,1.072149263E0,2.554452819E0
1.341162692E1,1.301300621E0,-1.140059702E0,1.177739160E0,2.092890097E0
1.342165292E1,1.483487435E0,-8.240989727E-1,2.170713615E0,2.755335131E0
1.343167892E1,1.137347618E0,-1.778980279E-1,2.331460882E0,2.600176370E0
1.344170592E1,7.542890650E-1,7.194145167E-1,2.103744869E0,2.347818501E0
1.345173192E1,6.916240163E-1,1.278857399E0,1.956412284E0,2.437492370E0
1.346175792E1,5.655470833E-1,1.564633632E0,1.865070004E0,2.499281502E0
1.347178392E1,5.414102156E-1,1.611131861E0,2.009450623E0,2.631874370E0
1.348180992E1,4.430047922E-1,1.594081380E0,2.422632130E0,2.933682861E0
1.349183692E1,1.617939189E-1,1.677852100E0,2.965057569E0,3.410708332E0
1.350186292E1,2.064711781E-1,1.499950563E0,3.222770090E0,3.560720305E0
1.351188892E1,-1.478702366E-1,1.711947799E0,2.774246550E0,3.263292017E0
1.352191492E1,-2.826163977E-1,1.925302758E0,2.419497145E0,3.104936259E0
1.353194192E1,-4.255911992E-1,2.210856797E0,2.050767049E0,3.045432831E0
1.354196792E1,-4.917528829E-1,2.482017329E0,1.634707834E0,3.012391180E0
1.355199392E1,-3.828905913E-1,2.560344876E0,9.433593678E-1,2.755339904E0
1.356201992E1,-3.297531420E-1,2.497132382E0,7.902278066E-2,2.520049973E0
1.357204592E1,-3.025156420E-1,2.310260047E0,-4.607202476E-1,2.375095860E0
1.358207292E1,-2.561054143E-1,2.151165496E0,-5.488676083E-1,2.234806171E0
1.359209892E1,-2.605104142E-1,2.077390591E0,-4.275051391E-1,2.136861715E0
1.360212492E1,-2.859311843E-1,2.053918113E0,-2.605156767E-1,2.090025042E0
1.361215092E1,-9.382500708E-2,2.131884887E0,4.765948534E-2,2.134480669E0
1.362217792E1,2.843597451E-1,2.349394292E0,1.430188018E-1,2.370858153E0
1.363220392E1,2.167551148E-1,2.594181544E0,-2.051495612E-1,2.611292209E0
1.364222992E1,4.500829929E-1,2.636711267E0,-3.801935631E-1,2.701734286E0
1.365225592E1,1.223931579E0,2.579055966E0,-1.737815881E-1,2.860024165E0
1.366228292E1,1.568978991E0,2.279645780E0,9.732456565E-2,2.769106720E0
1.367230892E1,1.664550561E0,2.003258421E0,4.785975248E-1,2.648174553E0
1.368233492E1,1.487679889E0,1.923918137E0,6.619755632E-1,2.520488860E0
1.369236092E1,9.850792515E-1,2.016095983E0,4.692378867E-1,2.292424119E0
1.370238792E1,3.417025119E-2,1.930444799E0,-1.310746944E-1,1.935191284E0
1.371241392E1,-2.478146473E-1,1.925257734E0,-8.923190224E-1,2.136413509E0
1.372243992E1,-4.523517126E-1,1.927376180E0,-1.540002236E0,2.508188171E0
1.373246592E1,-5.590753850E-1,1.832830212E0,-1.803554372E0,2.631471118E0
1.374249192E1,-7.017781448E-1,1.786943017E0,-1.421489700E0,2.388784394E0
1.375251892E1,-9.617438909E-1,1.961309912E0,-7.851851678E-1,2.321250445E0
1.376254492E1,-1.213935764E0,2.192410001E0,-2.208832490E-1,2.515768483E0
1.377257092E1,-1.442286784E0,2.423145223E0,-1.598967898E-1,2.824427539E0
1.378259692E1,-1.462803495E0,2.615263680E0,-4.423646683E-1,3.029040224E0
1.379262392E1,-1.138347053E0,2.828077186E0,-7.625815862E-1,3.142512571E0
1.380264992E1,-6.508345708E-1,3.045742128E0,-1.029087151E0,3.280114497E0
1.381267592E1,-3.445404580E-1,3.252147086E0,-1.272174032E0,3.509073320E0
1.382270192E1,-5.141939119E-1,3.459875854E0,-1.544892848E0,3.823850182E0
1.383272792E1,-1.307380994E0,3.613706743E0,-1.692605794E0,4.199170854E0
1.384275492E1,-2.942688168E0,2.854740490E0,-1.875866888E0,4.508639872E0
1.385278092E1,-5.885295060E0,-1.354852492E-1,-1.879678103E0,6.179663742E0
1.386280692E1,-9.577286664E0,-6.431853603E0,-2.465223541E0,1.179705420E1
1.387283292E1,-1.218640200E1,-1.587849768E1,-3.464654199E0,2.031351548E1
1.388285992E1,-1.260802367E1,-2.701208979E1,-9.776748054E0,3.137196293E1
1.389288592E1,-5.307089047E0,-3.002563715E1,-1.014536121E1,3.213459871E1
1.390291192E1,4.962298036E0,-1.673072702E1,1.467925948E-1,1.745173850E1
1.391293792E1,7.324919314E0,-2.330591986E0,9.047555823E0,1.187199934E1
1.392296492E1,4.981779789E0,8.201808119E0,1.338231664E1,1.646736728E1
1.393299092E1,1.605215355E0,1.500579139E1,5.822359723E0,1.617561017E1
1.394301692E1,6.209284016E-1,1.525628026E1,-2.717991657E0,1.550893672E1
1.395304292E1,5.930141450E0,8.664325801E0,2.682548760E0,1.083665940E1
1.396306892E1,9.146435748E0,8.648330158E-1,1.105801801E1,1.437654289E1
1.397309592E1,7.055467923E0,-4.877074867E0,1.169659828E1,1.450434067E1
1.398312192E1,2.267206121E0,-1.009434074E1,6.473175876E0,1.220401346E1
1.399314792E1,-1.101588239E0,-1.493958804E1,9.513916880E-1,1.501032757E1
1.400317392E1,-1.093361207E0,-1.691915589E1,-7.274181855E-1,1.697004455E1
1.401320092E1,5.186483207E-1,-1.346618676E1,8.933212352E-1,1.350574711E1
1.402322692E1,1.196970360E0,-7.243500345E0,2.931776971E0,7.905463395E0
1.403325292E1,1.005105965E0,-1.427490113E0,3.821666476E0,4.201559315E0
1.404327892E1,3.220023653E-1,1.832171815E0,3.734289778E0,4.171985046E0
1.405330592E1,2.808037609E-1,3.018219284E0,3.015799121E0,4.275925951E0
1.406333192E1,6.183097261E-1,2.552087438E0,2.798893733E0,3.837872241E0
1.407335792E1,1.491041307E0,1.921690933E0,2.675994616E0,3.616220043E0
1.408338392E1,1.802569116E0,1.318534850E0,3.060070730E0,3.788379923E0
1.409340992E1,1.886777062E0,1.045791476E0,3.024516735E0,3.715011302E0
1.410343692E1,2.358019228E0,1.093365008E0,2.649212614E0,3.711337925E0
1.411346292E1,2.822289028E0,1.079582536E0,2.127773709E0,3.695704908E0
1.412348892E1,2.635651751E0,4.343329328E-1,1.961084209E0,3.313782812E0
1.413351492E1,2.579263835E0,-9.291108727E-2,1.360482191E0,2.917558258E0
1.414354192E1,2.524476301E0,-8.201082480E-1,5.826931661E-1,2.717552108E0
1.415356792E1,2.482306767E0,-1.176481424E0,-3.235536316E-1,2.765979461E0
1.416359392E1,2.443750226E0,-9.360310525E-1,-9.193659031E-1,2.773680401E0
1.417361925E1,1.582717609E0,-7.815411830E-1,-9.042201528E-1,1.983284078E0
1.418364625E1,9.326950698E-1,-1.648517203E-1,-1.026515253E0,1.396721070E0
1.419367225E1,6.497132210E-1,7.712921834E-1,-7.440286633E-1,1.253234836E0
1.420369825E1,1.019783646E-1,1.295192181E0,-5.574878660E-1,1.413759206E0
1.421372425E1,-3.649874403E-1,1.192056652E0,-9.005112639E-1,1.537899681E0
1.422375025E1,-2.735720707E-1,6.820157254E-1,-3.949861416E-1,8.342668516E-1
1.423377725E1,2.633338885E-1,1.184926558E-1,5.198633721E-1,5.946790496E-1
1.424380325E1,3.340093303E-1,3.660941720E-2,6.101294714E-1,6.965346036E-1
1.425382925E1,1.392517331E-1,-6.187330645E-1,-5.275337496E-1,8.249324259E-1
1.426385525E1,6.030306593E-2,-1.501205376E0,-1.052659324E0,1.834487855E0
1.427388225E1,-4.896085627E-2,-1.698516744E0,-4.238687557E-1,1.751291243E0
1.428390825E1,-1.779860285E-1,-1.078554010E0,4.984774733E-1,1.201431467E0
1.429393425E1,-6.604225427E-2,-5.407855868E-2,5.568879417E-1,5.633917371E-1
1.430396025E1,-2.068616259E-1,8.931949353E-1,5.288705693E-1,1.058438947E0
1.431398625E1,-2.400460365E-1,1.308044946E0,1.331733770E0,1.882051677E0
1.432401325E1,-2.110859469E-1,1.429275852E0,1.924174830E0,2.406207704E0
1.433403925E1,-4.566620607E-1,1.105188662E0,1.666088817E0,2.050813050E0
1.434406525E1,-4.481309731E-1,4.766533256E-2,9.630646308E-1,1.063290570E0
1.435409125E1,-3.318810900E-1,-5.168090791E-1,2.244664228E-1,6.539280213E-1
1.436411825E1,-1.496689864E-2,-1.808309913E-1,3.079539911E-1,3.574346320E-1
1.437414425E1,4.187512726E-2,4.357228160E-2,9.210569179E-1,9.230373319E-1
1.438417025E1,1.082013369E-1,-2.241635370E-1,1.283230970E0,1.307149014E0
1.439419625E1,1.232394985E-1,-2.580341184E-1,1.343808125E0,1.373895868E0
1.440422325E1,1.423992162E-1,1.913998336E-1,1.178341277E0,1.202247728E0
1.441424925E1,3.258229360E-2,6.475387877E-1,1.102169745E0,1.278728366E0
1.442427525E1,-4.764475036E-1,7.163119841E-1,1.140715760E0,1.428753837E0
1.443430125E1,-9.373371743E-1,5.340887707E-1,9.099752748E-1,1.411349281E0
1.444432825E1,-1.288789480E0,1.990620250E-1,6.914719887E-1,1.476054716E0
1.445435425E1,-1.282642302E0,-7.483266592E-2,6.335599954E-1,1.432539518E0
1.446438025E1,-9.591768171E-1,-3.346525240E-1,7.123429672E-1,1.240743721E0
1.447440625E1,-6.118875830E-1,-1.130254506E0,7.311066091E-1,1.478647537E0
1.448443225E1,2.498241160E-2,-1.541621915E0,6.985143021E-1,1.692673767E0
1.449445925E1,5.033141804E-1,-6.921267307E-1,3.283703486E-1,9.166196929E-1
1.450448525E1,3.231509412E-1,9.349598426E-1,1.970980183E-1,1.008674411E0
1.451451125E1,5.637015193E-1,2.570545928E0,7.259387668E-1,2.729918106E0
1.452453725E1,6.169892786E-1,2.244471855E0,8.051979212E-1,2.463061787E0
1.453456425E1,9.438997968E-1,6.497344172E-1,4.520307004E-1,1.231841464E0
1.454459025E1,1.588106110E0,-7.373216146E-1,1.407541752E-1,1.756569360E0
1.455461625E1,1.852432271E0,-1.694975671E0,1.416698492E-1,2.514859477E0
1.456464225E1,1.859262988E0,-1.945290880E0,4.475318527E-1,2.727874672E0
1.457466825E1,1.655240186E0,-1.510200148E0,6.997058916E-1,2.347362966E0
1.458469525E1,1.270173845E0,-1.058537822E0,4.768544698E-1,1.720823670E0
1.459472125E1,1.039506304E0,-5.959201527E-1,1.867004263E-1,1.212662869E0
1.460474725E1,1.259758931E0,3.934708357E-2,2.129099492E-1,1.278229793E0
1.461477325E1,1.187961993E0,8.841340899E-1,5.400733960E-1,1.576269666E0
1.462480025E1,7.301719317E-1,1.609187661E0,1.229869426E0,2.152954896E0
1.463482625E1,-8.394993693E-3,1.615852903E0,1.703393322E0,2.347892648E0
1.464485225E1,-7.275127642E-1,8.406302208E-1,1.619464728E0,1.964331946E0
1.465487825E1,-9.824132136E-1,-2.974852824E-1,1.398750463E0,1.734974373E0
1.466490525E1,-1.306472337E0,-5.316656846E-1,1.479592313E0,2.044194653E0
1.467493125E1,-1.470735389E0,-2.925537407E-1,1.543095998E0,2.151695967E0
1.468495725E1,-1.305822857E0,4.398918808E-2,1.137858810E0,1.732579307E0
1.469498325E1,-8.959099437E-1,6.753838134E-1,6.940902988E-1,1.319302568E0
1.470500925E1,-4.048387000E-1,1.365092720E0,5.450225524E-1,1.524605553E0
1.471503625E1,3.912823690E-1,2.247083221E0,5.317843100E-1,2.342067345E0
1.472506225E1,1.769487178E0,3.293295112E0,7.112939036E-1,3.805629591E0
1.473508825E1,1.755847963E0,5.189895058E-1,1.051428777E0,2.111363221E0
1.474511425E1,1.119965600E0,-3.561596941E0,1.977351163E0,4.224832936E0
1.475514125E1,1.184786151E0,-3.284117907E0,2.682697864E0,4.402955426E0
1.476516725E1,-3.940418163E-1,-7.272532940E-2,2.568919818E0,2.599982107E0
1.477519325E1,-2.575604939E0,7.010834956E-1,2.096927893E0,3.394460997E0
1.478521925E1,-3.719683433E0,-6.546829158E-1,1.232959095E0,3.973014308E0
1.479524625E1,-3.326676282E0,5.868043435E-1,3.600653272E-2,3.378225998E0
1.480527225E1,-2.047929102E0,1.621738125E0,-1.533137605E0,3.028953461E0
1.481529825E1,-4.102160919E-1,1.740699728E0,-2.604058076E0,3.159023780E0
1.482532425E1,7.842531216E-1,2.419629292E0,-2.059126813E0,3.272562009E0
1.483535125E1,1.237954956E0,2.767850280E0,-1.924737332E0,3.591398258E0
1.484537725E1,1.346122599E0,4.518997228E-1,-1.776962990E0,2.274611368E0
1.485540325E1,2.875281174E0,-2.813874300E0,8.634595048E-1,4.114692299E0
1.486542925E1,6.307545891E0,-3.520043703E0,7.663812239E0,1.053137507E1
1.487545525E1,6.503184371E0,-5.140410656E0,9.467256099E0,1.258348786E1
1.488548225E1,4.615251169E0,-4.398604227E0,8.279031127E0,1.044943151E1
1.489550825E1,-7.916431251E-1,-3.578736885E0,9.714394516E-1,3.791800514E0
1.490553425E1,-5.557497227E0,-5.847584027E-1,-1.254211502E1,1.373070891E1
1.491556025E1,-5.275285456E0,2.063690565E0,-7.607512908E0,9.484814602E0
1.492558725E1,-4.741519159E0,1.161416658E0,-2.550153179E0,5.507646850E0
1.493561325E1,-3.216014509E0,-3.032664245E-1,-7.282841581E-1,3.311361905E0
1.494563925E1,-1.646253308E0,4.155048984E-1,-9.483306706E-2,1.700525679E0
1.495566525E1,-7.358491395E-1,1.065734575E0,-1.612620964E-1,1.305093715E0
1.496569225E1,-4.267811807E-1,1.073257602E0,9.390084547E-1,1.488543226E0
1.497571825E1,-3.076176666E-1,2.139075208E-1,2.156076572E0,2.188390102E0
1.498574425E1,-4.956538528E-2,1.559019721E-1,2.754529738E0,2.759383306E0
1.499577025E1,4.471458999E-1,1.472261074E0,3.302140780E0,3.643024273E0
1.500579625E1,2.005458436E0,2.600366728E0,2.572343363E0,4.171417150E0
1.501582325E1,3.147896786E0,1.423642645E0,3.011807410E-1,3.467956516E0
1.502584925E1,2.404796661E0,-1.894076872E-1,-5.770617127E-1,2.480306931E0
1.503587525E1,1.271826999E0,-1.482696015E-1,-5.791871756E-1,1.405341800E0
1.504590125E1,-3.247418589E-1,-3.566988659E-1,-9.265509617E-1,1.044599464E0
1.505592825E1,-2.404772102E0,-4.176631057E-1,-7.612472516E-1,2.556730082E0
1.506595425E1,-2.960008498E0,-5.862289774E-1,-8.791908538E-1,3.142974909E0
1.507598025E1,-1.875163030E0,-7.592697233E-1,-8.388883352E-1,2.190082313E0
1.508600625E1,-1.250334827E0,-2.270563300E0,-1.037666185E0,2.792050500E0
1.509603225E1,-7.190085737E-1,-2.406896396E0,-5.743404186E-1,2.576817903E0
1.510605925E1,-1.357199856E0,-3.524467707E-1,-7.354803264E-1,1.583395556E0
1.511608525E1,-2.399828281E0,-6.387416518E-1,-1.237471392E0,2.774617473E0
1.512611125E1,-3.677265977E0,-1.028983070E0,-1.795847157E0,4.219734380E0
1.513613725E1,-4.288038934E0,-1.748709828E0,-2.066086754E0,5.070895230E0
1.514616425E1,-2.615713184E-1,-4.931748673E0,6.707693735E-2,4.939135941E0
1.515619025E1,3.147766685E0,-5.200028867E0,2.841847379E0,6.710054534E0
1.516621625E1,3.983752463E0,-3.279080531E0,3.029608490E0,5.983408763E0
1.517624262E1,4.453129513E0,-2.292611981E0,1.978525869E0,5.385257354E0
1.518626962E1,4.066331812E0,-2.230839656E0,7.956774116E-1,4.705826444E0
1.519629563E1,2.169284701E0,-3.010576973E0,1.224676112E-1,3.712730551E0
1.520632163E1,4.265980898E-1,-4.660863544E0,-8.193820238E-1,4.751528365E0
1.521634763E1,-6.154643248E-1,-6.423815435E0,-1.498731419E0,6.624982788E0
1.522637362E1,-1.420597854E0,-6.903333896E0,-1.042903537E0,7.124729113E0
1.523640063E1,-1.644149041E0,-5.599261549E0,-1.914261460E-1,5.838801241E0
1.524642663E1,-4.882387063E-1,-4.575837427E0,8.682764411E-1,4.683008560E0
1.525645263E1,1.697126130E0,-5.053366665E0,8.761877239E-1,5.402264033E0
1.526647863E1,3.408235877E0,-4.447114483E0,-3.460502822E-2,5.603043505E0
1.527650562E1,4.278767881E0,-4.291465695E0,-3.085692644E-2,6.060155488E0
1.528653163E1,5.142640200E0,-4.486621195E0,-5.780124700E-1,6.849132528E0
1.529655763E1,4.849862218E0,-5.563173704E0,8.455659469E-2,7.380868174E0
1.530658363E1,2.449294556E0,-5.044274830E0,-2.640382733E0,6.198013662E0
1.531661063E1,4.915195790E-1,-3.478167114E0,-2.669282012E0,4.411836855E0
1.532663662E1,-2.369873873E0,-4.755810047E0,-1.816839831E0,5.615597773E0
1.533666263E1,-3.675907376E0,-4.796185071E0,1.606961042E0,6.252840160E0
1.534668863E1,-2.963900112E0,-4.517191023E0,-2.011896513E0,5.765192642E0
1.535671463E1,-3.461639374E0,-2.803465086E0,-1.547662089E0,4.715678275E0
1.536674163E1,-4.105555520E0,-1.229213369E-1,-1.229137355E0,4.287362175E0
1.537676762E1,-3.705841612E0,-7.956972921E-1,-4.360543531E0,5.777606435E0
1.538679363E1,-5.211173075E0,-1.192574131E0,-1.673164533E0,5.601610254E0
1.539681963E1,-7.183362901E0,5.561140627E-1,2.545464297E0,7.641292686E0
1.540684663E1,-6.060503368E0,1.370811297E0,-5.972931958E0,8.618859604E0
1.541687263E1,6.355198359E-1,2.480554356E0,-6.934566799E0,7.392242695E0
1.542689862E1,8.037245836E0,4.180205460E0,-1.306766393E1,1.590079492E1
1.543692463E1,9.183450378E0,5.342902658E0,-9.345628166E0,1.415002245E1
1.544695163E1,7.603233916E0,7.024779396E0,-3.490373762E0,1.092425744E1
1.545697763E1,6.812839463E0,6.661425229E0,-2.942410425E0,9.972319026E0
1.546700363E1,5.315893199E0,5.092160017E0,-2.811926007E0,7.880085153E0
1.547702962E1,3.278780569E0,3.478210968E0,-1.908052302E0,5.146748211E0
1.548705663E1,1.244150081E0,2.730943825E0,-1.603280219E0,3.402421353E0
1.549708263E1,8.520504177E-1,2.787292857E0,-1.328284498E0,3.203019059E0
1.550710863E1,2.678920562E0,2.629546089E0,5.411887524E-1,3.792626171E0
1.551713462E1,6.518885899E0,3.603931367E0,1.813135912E0,7.666267443E0
1.552716062E1,8.185870948E0,4.335111067E0,2.574118577E0,9.613935593E0
1.553718763E1,8.744589946E0,4.204768444E0,3.698927572E0,1.038412231E1
1.554721363E1,8.535373061E0,2.905563319E0,4.497508711E0,1.007583625E1
1.555723963E1,6.605881943E0,4.755496636E-1,4.189018968E0,7.836561979E0
1.556726562E1,3.508110121E0,-2.057120925E0,3.584726772E0,5.421148324E0
1.557729262E1,6.306841886E-1,-4.090135535E0,2.678511257E0,4.929644388E0
1.558731863E1,-2.426246586E0,-5.219920510E0,1.863553821E0,6.050378127E0
1.559734463E1,-4.621304791E0,-5.514250635E0,9.600642782E-1,7.258453103E0
1.560737063E1,-5.291119716E0,-5.221289928E0,2.145197242E-1,7.436654831E0
1.561739762E1,-5.283076286E0,-5.214291980E0,-4.560032988E-1,7.436912996E0
1.562742362E1,-4.900163183E0,-5.045309202E0,-7.835304058E-1,7.076769324E0
1.563744963E1,-4.546724725E0,-4.565023586E0,-4.434212601E-1,6.458232613E0
1.564747563E1,-4.707742426E0,-4.364464674E0,-3.556142074E-1,6.429451929E0
1.565750163E1,-4.863575985E0,-4.097210666E0,-4.609091127E-1,6.376044528E0
1.566752862E1,-4.846477850E0,-4.042811095E0,-6.169221818E-1,6.341392755E0
1.567755463E1,-5.118432142E0,-3.898418782E0,-1.041620073E0,6.517744163E0
1.568758063E1,-5.022474071E0,-3.748149141E0,-1.632691129E0,6.476075053E0
1.569760663E1,-4.369113210E0,-3.375766288E0,-2.229155073E0,5.954332928E0
1.570763363E1,-4.243633424E0,-2.735996696E0,-3.221396579E0,5.989281967E0
1.571765962E1,-4.064824693E0,-2.499561315E0,-3.947987968E0,6.193320236E0
1.572768563E1,-3.358443912E0,-2.537551260E0,-4.236025320E0,5.971785530E0
1.573771163E1,-2.504220669E0,-2.388223605E0,-4.037612336E0,5.317616620E0
1.574773863E1,-1.683377426E0,-2.008639906E0,-3.349574563E0,4.253004066E0
1.575776463E1,-8.374037272E-1,-1.760975825E0,-2.412871081E0,3.102293943E0
1.576779062E1,3.666508269E-1,-2.474662994E0,-1.314963956E0,2.826220085E0
1.577781663E1,1.377257268E0,-3.745867265E0,-2.647420442E-1,3.999805933E0
1.578784263E1,1.369448896E0,-4.208582290E0,2.203833121E-1,4.431266633E0
1.579786963E1,4.474473605E-1,-3.236127177E0,-2.090555012E-2,3.266981067E0
1.580789563E1,4.783998889E-1,-2.157305072E0,-7.945372045E-2,2.211141000E0
1.581792162E1,1.474577740E0,-1.628691049E0,1.550283980E-1,2.202509444E0
1.582794763E1,6.948208353E0,-1.977978569E0,4.795271736E0,8.670907078E0
1.583797463E1,8.863423494E0,-2.659837589E0,4.363530874E0,1.023110032E1
1.584800063E1,4.675689744E0,-2.645216627E0,1.576912785E0,5.598740886E0
1.585802663E1,2.984695150E0,-3.061121475E0,1.491352233E0,4.528023995E0
1.586805262E1,-1.795913815E-1,-2.574953560E0,1.068058258E-1,2.583417578E0
1.587807963E1,-1.779153064E0,-1.724468442E0,-8.098884845E-1,2.606740568E0
1.588810563E1,-2.427692457E0,-1.468073298E0,-1.195359160E0,3.078605755E0
1.589813163E1,-1.908936109E0,-1.596451841E0,-1.774729353E0,3.056527413E0
1.590815763E1,-8.617278519E-1,-1.912200902E0,-1.428117519E0,2.537441000E0
1.591818362E1,-2.061323319E-1,-2.043452767E0,-8.157766306E-1,2.209905260E0
1.592821063E1,8.196711686E-1,-2.099310048E0,-5.081435055E-1,2.310232310E0
1.593823663E1,1.858401986E0,-1.947132753E0,-7.134620512E-1,2.784602664E0
1.594826263E1,2.479809128E0,-1.783721786E0,-9.128047425E-1,3.188154517E0
1.595828862E1,2.208431518E0,-1.692784134E0,-8.181412446E-1,2.900352218E0
1.596831562E1,1.198126939E0,-1.844894772E0,-7.188233632E-1,2.314271356E0
1.597834163E1,1.263232470E-1,-2.080118317E0,-8.063409787E-1,2.234510136E0
1.598836763E1,-5.306785284E-1,-1.605126770E0,-8.972698599E-1,1.913934390E0
1.599839363E1,-6.423254102E-2,-8.769572175E-1,-1.085120434E0,1.396662499E0
1.600842063E1,6.584900379E-1,-6.296164870E-1,-1.551470965E0,1.799190987E0
1.601844662E1,6.183247827E-1,-7.056700516E-1,-1.681727049E0,1.925747031E0
1.602847263E1,4.222014222E-1,-6.797271252E-1,-1.447913852E0,1.654308777E0
1.603849863E1,4.150765899E-1,-4.854235643E-1,-1.125368573E0,1.293977990E0
1.604852563E1,4.452010064E-1,-3.049773198E-1,-9.328519213E-1,1.077695601E0
1.605855162E1,3.457454230E-1,-1.812081367E-1,-6.458746701E-1,7.546723633E-1
1.606857762E1,9.840922415E-2,-2.849962145E-1,-1.513978618E-1,3.373848400E-1
1.607860363E1,3.104570380E-1,-4.247464228E-1,2.638731480E-1,5.885763623E-1
1.608862963E1,4.431723149E-1,-3.972744495E-1,3.059918118E-1,6.692231898E-1
1.609865663E1,4.158425751E-1,-4.611336458E-1,1.786757076E-1,6.461379845E-1
1.610868262E1,2.950521098E-1,-4.987289035E-1,2.345142782E-2,5.799450286E-1
1.611870863E1,-3.004986450E-2,-4.061622173E-1,-2.358217156E-1,4.706194032E-1
1.612873463E1,-6.435299367E-3,-5.539751512E-1,-3.104719484E-1,6.350769339E-1
1.613876163E1,1.002022728E-1,-4.394036382E-1,-4.768363434E-1,6.561165683E-1
1.614878763E1,6.018465981E-2,-3.152666652E-1,-7.273684841E-1,7.950347006E-1
1.615881362E1,-4.036625326E-2,-3.585448319E-1,-4.582766962E-1,5.832678297E-1
1.616883963E1,2.949920297E-3,-4.306608814E-1,-4.284313381E-2,4.327967547E-1
1.617886650E1,1.546116377E-1,-2.785397190E-1,8.561025381E-2,3.298761118E-1
1.618889250E1,2.255534202E-1,-4.067206264E-2,1.005750328E-1,2.502876331E-1
1.619891850E1,3.696605350E-1,-1.954314888E-2,1.082506728E-1,3.856799891E-1
1.620894450E1,1.807880142E-1,-4.700284302E-2,9.472781718E-2,2.094443427E-1
1.621897050E1,-2.454880401E-2,-1.122197628E-1,3.218436134E-1,3.417297623E-1
1.622899750E1,-1.669925322E-1,-1.560382122E-1,5.218932331E-1,5.697429036E-1
1.623902350E1,-2.292710799E-1,-1.745797330E-1,3.818594348E-1,4.783930803E-1
1.624904950E1,-1.406167656E-1,-1.852509016E-1,4.220052481E-2,2.363722818E-1
1.625907550E1,-2.826339394E-2,-1.047435129E-1,-2.595871389E-1,2.813458825E-1
1.626910250E1,-8.722496241E-2,-6.598582864E-3,-3.956658804E-1,4.052199703E-1
1.627912850E1,-1.278141408E-1,1.403974950E-2,-3.540407217E-1,3.766674949E-1
1.628915450E1,4.745556369E-2,-6.698394835E-2,-1.529052740E-1,1.735479838E-1
1.629918050E1,3.219283980E-1,9.555519819E-3,-7.546825826E-2,3.307939833E-1
1.630920750E1,5.186604537E-1,6.739149928E-2,-2.248312891E-1,5.692972764E-1
1.631923350E1,5.708885148E-1,-3.626092315E-2,-7.592258692E-2,5.770552747E-1
1.632925950E1,5.316023885E-1,-5.041118503E-2,1.965962541E-1,5.690276567E-1
1.633928550E1,1.693697177E-1,8.080267310E-3,2.405053353E-1,2.942689387E-1
1.634931150E1,-2.301624879E-1,-7.206751764E-2,2.270286727E-1,3.312257782E-1
1.635933850E1,-2.819296423E-1,-6.743593812E-2,1.832610941E-1,3.429527045E-1
1.636936450E1,2.326534018E-2,4.841377616E-2,1.098908168E-1,1.223158264E-1
1.637939050E1,3.044202264E-1,1.171594906E-1,-8.159204721E-3,3.262891250E-1
1.638941650E1,3.600265163E-1,1.181488395E-1,-2.224994195E-1,4.394135096E-1
1.639944350E1,2.928339685E-1,3.144866467E-2,-1.819378692E-1,3.461822351E-1
1.640946950E1,1.680767521E-2,-6.618521869E-2,1.110690308E-1,1.303814048E-1
1.641949550E1,-2.445779210E-1,-8.279598892E-2,3.692282796E-1,4.505586063E-1
1.642952150E1,-1.989034192E-1,-1.036138308E-1,6.539607847E-1,6.913487571E-1
1.643954850E1,-6.965115577E-2,-6.926143885E-2,7.101092577E-1,7.168706915E-1
1.644957450E1,-9.334787428E-3,1.872804701E-2,5.079692584E-1,5.084000841E-1
1.645960050E1,-3.039090335E-3,1.250579095E-1,2.330898964E-1,2.645366073E-1
1.646962650E1,3.377687976E-2,1.499717259E-1,-1.912273407E-2,1.549131213E-1
1.647965250E1,8.103743881E-2,1.560218400E-1,-8.704983830E-2,1.961824543E-1
