"Time (s)","Linear Acceleration x (m/s^2)","Linear Acceleration y (m/s^2)","Linear Acceleration z (m/s^2)","Absolute acceleration (m/s^2)"
5.271708360E-3,6.681592861E-1,3.236451405E-1,3.481788880E-1,8.200070406E-1
1.529770833E-2,1.088589879E0,7.064874923E-1,1.091195691E-1,1.302328523E0
2.532470832E-2,1.038275612E0,9.102845925E-1,-2.198599863E-1,1.398203382E0
3.535070841E-2,1.419480304E-1,6.184851426E-1,-8.263308549E-1,1.041871296E0
4.537670838E-2,-7.552985868E-1,1.367447394E-1,-8.173103553E-1,1.121236503E0
5.540370836E-2,-8.487110728E-1,-2.500444829E-2,-5.935216248E-1,1.035955417E0
6.542970834E-2,-6.819844428E-1,-1.526327938E-1,-8.750007391E-2,7.043122978E-1
7.545570831E-2,-2.715970275E-1,-2.091192359E-1,7.894723463E-1,8.606755403E-1
8.548170840E-2,-3.719549824E-1,-1.572789913E-1,1.312532099E0,1.373254420E0
9.550870839E-2,-6.054461440E-1,-1.401057190E-1,7.752571803E-1,9.935886178E-1
1.055347084E-1,-6.429957935E-1,-5.833123863E-2,1.513581008E-1,6.631405572E-1
1.155607083E-1,-5.020482217E-1,6.763474345E-3,-1.528754532E-2,5.023264581E-1
1.255867083E-1,-2.005054101E-1,8.196042180E-3,-6.493683815E-2,2.109179640E-1
1.356137084E-1,3.515594557E-2,7.270954192E-2,-2.913930684E-1,3.023781380E-1
1.456397084E-1,3.119855002E-2,7.857371449E-2,-5.956815863E-1,6.016508376E-1
1.556657084E-1,3.615831913E-1,6.074555397E-2,-1.144248063E0,1.201555682E0
1.656927083E-1,1.066774356E0,4.621317655E-1,-1.281262359E0,1.730088590E0
1.757187083E-1,-4.593957071E-1,3.217722774E-3,-1.093582524E0,1.186160827E0
1.857447084E-1,-6.359846896E-1,-1.107101871E0,-1.556140552E0,2.012889588E0
1.957707084E-1,9.921043888E-2,-9.020838726E-1,-1.311954394E0,1.595249935E0
2.057977084E-1,2.461195394E-1,-4.866731143E-1,-5.168482554E-1,7.513705258E-1
2.158237083E-1,9.026504678E-1,-8.597740048E-1,-1.338082677E-1,1.253751913E0
2.258497083E-1,1.022485206E0,-1.166887897E0,-4.598835111E-2,1.552165677E0
2.358767084E-1,7.018883649E-1,-8.957045603E-1,-1.649955618E-1,1.149851065E0
2.459027084E-1,4.270430629E-1,-8.018561643E-1,-4.554735410E-1,1.016265336E0
2.559287084E-1,-4.813427925E-3,-7.717406648E-1,-8.731261218E-1,1.165313712E0
2.659547083E-1,1.461688431E-1,-7.244612485E-1,-1.238508688E0,1.442259755E0
2.759817083E-1,6.781030610E-2,-7.419227886E-1,-1.350292248E0,1.542185727E0
2.860077084E-1,-3.411674917E-1,-6.684572017E-1,-1.459101915E0,1.640795138E0
2.960337084E-1,-9.100188366E-1,-4.988797617E-1,-1.791243644E0,2.070161610E0
3.060607084E-1,-1.881462674E0,-7.285581002E-1,-2.149552833E0,2.948097027E0
3.160867083E-1,-3.118082126E0,-1.390948231E0,-2.455946349E0,4.205810932E0
3.261127083E-1,-3.303449679E0,-1.989342048E0,-2.929181392E0,4.842557712E0
3.361387084E-1,-1.035576683E0,-1.900132833E0,-3.961806108E0,4.514291915E0
3.461657084E-1,1.562055303E0,-8.253406289E-1,-4.493316842E0,4.828157015E0
3.561917084E-1,-2.451263899E-1,-9.416470107E-1,-3.517909470E0,3.649996312E0
3.662177083E-1,-3.458945270E0,-2.231157160E0,-2.023913711E0,4.586784425E0
3.762437083E-1,-3.810553550E0,-3.534046323E0,-1.542453389E0,5.421158938E0
3.862707084E-1,-2.724897804E0,-4.437004939E0,-2.040586461E0,5.592501585E0
3.962967084E-1,-3.089666412E0,-5.292394994E0,-3.066462321E0,6.852639964E0
4.063227084E-1,-3.963580738E0,-6.352330885E0,-4.584008911E0,8.779249264E0
4.163497083E-1,-4.525898112E0,-6.386146502E0,-4.444910082E0,9.001324709E0
4.263757083E-1,-5.608284388E0,-6.182045932E0,-3.818521843E0,9.178870014E0
4.364017084E-1,-6.946401563E0,-6.736440328E0,-3.155294391E0,1.017781930E1
4.464277084E-1,-7.475557623E0,-7.802812834E0,-2.594848126E0,1.111310428E1
4.564547084E-1,-6.037681101E0,-8.776329217E0,-2.406446160E0,1.092101326E1
4.664807083E-1,-3.401644603E0,-8.832334433E0,-2.224470869E0,9.722632781E0
4.765067083E-1,-8.789078486E-1,-7.746852642E0,-1.713960410E0,7.982722916E0
4.865337084E-1,1.002985765E0,-6.342243268E0,-8.081992239E-1,6.471724353E0
4.965597084E-1,1.273929951E0,-5.984800637E0,2.864065629E-1,6.125582821E0
5.065861250E-1,-1.176298406E0,-6.970489753E0,1.201151996E0,7.170367595E0
5.166121250E-1,-5.222116724E0,-8.558797592E0,1.787361678E0,1.018421234E1
5.266391250E-1,-4.074588958E0,-9.480075535E0,1.461539619E0,1.042162201E1
5.366651251E-1,-1.090202833E0,-9.366652415E0,1.964089093E0,9.632256519E0
5.466911250E-1,2.793658721E0,-7.588134066E0,2.369565432E0,8.426099215E0
5.567181250E-1,7.156093826E0,-5.344014798E0,2.133594905E0,9.182614020E0
5.667441250E-1,1.047212584E1,-3.329566853E0,2.308488341E0,1.122855972E1
5.767701251E-1,1.184636536E1,-2.241116430E0,3.087134567E0,1.244545599E1
5.867961250E-1,1.146511637E1,-2.027106583E0,3.853765643E0,1.226415770E1
5.968231250E-1,1.126565381E1,-1.655206126E0,6.844474654E0,1.328538657E1
6.068491250E-1,1.290025230E1,-1.746300775E0,5.525819351E0,1.414216233E1
6.168751250E-1,1.488021776E1,-1.365742346E0,6.148051389E0,1.615811463E1
6.269011251E-1,1.440257508E1,-1.613434494E0,7.530970516E0,1.633257043E1
6.369281251E-1,1.359980149E1,-1.746663303E0,6.402518706E0,1.513266926E1
6.469541250E-1,1.390425197E1,-1.445331137E0,4.469208772E0,1.467620633E1
6.569801250E-1,1.400164437E1,-5.984484887E-1,2.874558165E0,1.430619692E1
6.670071250E-1,1.404235034E1,6.472136825E-1,1.391693751E0,1.412597962E1
6.770331251E-1,1.380124158E1,1.672665035E0,-5.361423129E-1,1.391256719E1
6.870591250E-1,1.269673996E1,2.597980480E0,-3.199573601E0,1.334893177E1
6.970851250E-1,1.117384902E1,3.267709451E0,-8.149616457E0,1.421087877E1
7.071121250E-1,1.022497923E1,4.842475723E0,-1.874721185E1,2.189652309E1
7.171381250E-1,7.980514396E0,3.582465654E0,-9.706538197E0,1.306673463E1
7.271641251E-1,6.213330290E0,-6.015679783E-1,3.385209834E0,7.101197289E0
7.371911251E-1,5.512765442E0,-1.807587197E0,9.094283262E0,1.078721198E1
7.472171250E-1,3.660990252E0,1.412713614E0,8.706692387E0,9.550136214E0
7.572431250E-1,3.136066407E0,3.075184028E0,-2.278779223E0,4.948181895E0
7.672691250E-1,-1.736096799E-1,3.395823115E0,-5.844970322E0,6.762058341E0
7.772961251E-1,-3.750929199E0,4.474100552E0,-9.362061181E0,1.103336917E1
7.873221250E-1,-6.438946275E0,3.789246588E0,-7.254120643E0,1.041348573E1
7.973481250E-1,-4.426702437E0,2.407046084E0,-2.494765429E0,5.622581246E0
8.073751250E-1,-5.320278611E0,2.493711761E0,2.228369792E0,6.284074695E0
8.174011250E-1,-5.856983426E0,2.444477620E0,2.091778250E0,6.682459273E0
8.274271251E-1,-4.896653684E0,2.676723763E0,1.809611503E0,5.866580026E0
8.374531250E-1,-4.864285253E0,3.856645104E0,-3.995671427E-1,6.220501297E0
8.474801250E-1,-4.382067132E0,4.108184720E0,-1.139732551E0,6.113810950E0
8.575061250E-1,-4.107153271E0,3.815600574E0,-1.157863012E0,5.724348215E0
8.675321250E-1,-3.612570044E0,3.228923700E0,-1.523790831E0,5.079227213E0
8.775591251E-1,-4.884265773E0,3.387437623E0,6.064732075E-2,5.944279931E0
8.875851250E-1,-4.985862315E0,3.951009809E0,9.875415140E-1,6.437743376E0
8.976111250E-1,-6.118929332E0,2.600412337E0,-1.229364958E0,6.761270494E0
9.076371250E-1,-5.382762542E0,2.173022388E0,-2.187998423E0,6.203506749E0
9.176641250E-1,-2.244970037E0,1.841006373E0,-1.536067060E0,3.284615190E0
9.276901251E-1,9.962924570E-1,-2.298183793E-1,-1.886409564E0,2.145683153E0
9.377161250E-1,5.665080732E-1,-2.193947818E0,-3.079629081E0,3.823408650E0
9.477431250E-1,-4.087434706E0,8.598640519E-1,5.252148901E-1,4.209790891E0
9.577691250E-1,2.816492683E-1,-8.410634995E-1,2.156416880E0,2.331704930E0
9.677951250E-1,5.415805158E0,-4.829884914E0,-1.588751204E0,7.428516957E0
9.778211251E-1,3.865719398E0,-4.599163724E0,-1.718421836E0,6.248925270E0
9.878481250E-1,2.884913877E0,-2.990425129E0,-2.500961723E0,4.849760826E0
9.978741250E-1,-9.533008039E-2,-1.074924644E0,-1.470442005E0,1.823938185E0
1.007900125E0,-1.145524510E0,-2.800646728E-1,-1.538965671E0,1.938834176E0
1.017927125E0,-2.254129701E0,-9.758850896E-1,-2.363448075E0,3.408715186E0
1.027953125E0,-4.351573902E0,2.154728204E-1,-2.779739424E0,5.168130729E0
1.037979125E0,-3.641869857E0,9.435078871E-1,-3.046378305E0,4.840851574E0
1.048005125E0,5.465550345E-1,-3.073401797E-1,-5.944648172E-1,8.640421348E-1
1.058032125E0,8.412368694E0,-8.905373758E-1,4.532773268E-1,8.471508968E0
1.068058125E0,1.170058024E1,-1.454513605E0,3.438174498E-1,1.179565166E1
1.078084125E0,1.031014276E1,-1.514607194E0,2.823331001E0,1.079649372E1
1.088111125E0,9.025400138E0,-6.129636168E-2,4.495229466E0,1.008308945E1
1.098137125E0,5.177485512E0,2.121797270E0,2.081674261E0,5.970070989E0
1.108163125E0,1.973355761E0,2.423165689E0,-9.115037370E-1,3.255257897E0
1.118189125E0,1.194688484E0,1.190676709E0,9.228356409E-1,1.922658893E0
1.128216125E0,-9.452901185E-1,1.487772567E0,1.075983574E0,2.065134686E0
1.138242125E0,-2.363410945E0,2.265230055E0,3.435859001E-1,3.291660640E0
1.148268125E0,-2.795468142E0,3.478993326E0,-2.481487974E-1,4.469856208E0
1.158295125E0,-3.774709826E0,5.111373968E0,-3.471959710E-2,6.354194171E0
1.168321125E0,-4.648263963E0,6.035407119E0,7.687176543E-1,7.656593485E0
1.178347125E0,-4.722525941E0,5.841711084E0,1.992625844E-1,7.514489020E0
1.188373125E0,-3.970400931E0,5.344576131E0,-1.467851688E0,6.817856419E0
1.198400125E0,-2.778456253E0,4.600803283E0,-2.353679717E0,5.867454151E0
1.208426125E0,-1.920850688E0,3.689119452E0,-1.935660442E-2,4.159284118E0
1.218452125E0,-1.317102575E0,3.733402171E0,2.125693855E0,4.493509244E0
1.228478125E0,-8.516425744E-1,3.873510813E0,1.332841233E0,4.183998906E0
1.238505125E0,-7.904269043E-1,4.243263003E0,-7.863230360E-1,4.387295240E0
1.248531125E0,-1.105535402E0,4.458072749E0,-4.392270523E-1,4.614059121E0
1.258557125E0,-1.658434958E0,4.607432272E0,9.875514543E-1,4.995407543E0
1.268584125E0,-2.384196481E0,4.607045771E0,1.273859199E0,5.341533568E0
1.278610125E0,-2.880509754E0,4.801525918E0,6.648354363E-1,5.638616296E0
1.288636125E0,-2.872124847E0,5.172549877E0,-1.245486170E-1,5.917760195E0
1.298662125E0,-1.883892776E0,5.510699621E0,-1.286821307E0,5.964291356E0
1.308689125E0,-1.255926081E0,6.488241227E0,-1.603531065E0,6.800436487E0
1.318715125E0,-2.445903756E0,4.922376755E0,-5.977925042E-1,5.528977662E0
1.328741125E0,-2.229349932E0,3.413289918E0,1.718320679E0,4.424158127E0
1.338768125E0,-1.742668704E-1,5.651803460E0,6.027624475E0,8.264714641E0
1.348794125E0,5.908592048E-1,5.463323725E0,4.344451409E0,7.005089491E0
1.358820125E0,7.949314530E-1,6.504933858E-1,-9.307013154E-3,1.027202161E0
1.368846125E0,-1.973062230E0,-3.994141328E1,-5.601226798E0,4.038048057E1
1.378873125E0,-4.159428549E0,-6.225034194E1,-2.059768252E0,6.242314124E1
1.388899125E0,5.525498339E0,-3.982118985E1,2.044122857E0,4.025464856E1
1.398925125E0,5.857734209E0,-1.572848853E1,3.115050929E0,1.707049923E1
1.408952125E0,2.211727593E0,-1.751332304E0,4.885227640E0,5.641307728E0
1.418978125E0,-9.346559335E-1,6.444077207E0,2.578049660E0,7.003288714E0
1.429004125E0,-3.058965898E0,1.093456458E1,-1.325830421E0,1.143152664E1
1.439030125E0,-3.354426290E0,1.191921231E1,-2.168799528E0,1.257073940E1
1.449057125E0,-3.501093754E0,1.035600949E1,-1.358838685E0,1.101594447E1
1.459083125E0,-2.596001197E0,7.481483776E0,-6.909526098E-1,7.949165819E0
1.469109125E0,-1.408362701E0,4.157102526E0,-6.310280049E-1,4.434318804E0
1.479136125E0,-1.461961788E0,-1.824536521E0,-1.112734640E0,2.589294144E0
1.489162125E0,-3.022881854E0,-7.258116630E0,-1.137867727E0,7.944357411E0
1.499188125E0,-1.398695207E0,-5.906473090E0,-3.467382071E-1,6.079720391E0
1.509214083E0,1.532774493E0,-1.285893354E0,3.474718865E-1,2.030678723E0
1.519241083E0,1.490735351E0,2.594193238E-1,2.328846592E-1,1.530955760E0
1.529267083E0,1.045911052E0,7.143403029E-1,-4.743489379E-1,1.352486197E0
1.539293083E0,8.679253158E-1,8.185400248E-1,-8.736709361E-1,1.478716684E0
1.549320083E0,1.121211203E0,1.994268912E-1,-9.948205666E-1,1.512135446E0
1.559346083E0,1.199119577E0,-3.831633639E-1,-1.316883597E0,1.821780539E0
1.569372083E0,1.033492955E0,-5.653602648E-1,-1.657395616E0,2.033396209E0
1.579398083E0,7.895547920E-1,-4.175373906E-1,-1.939882644E0,2.135621435E0
1.589425083E0,5.562387545E-1,-3.004410499E-1,-2.214244089E0,2.302725181E0
1.599451083E0,4.262530310E-1,-3.770647180E-1,-2.409170524E0,2.475474108E0
1.609477083E0,3.599727219E-1,-5.319258857E-1,-2.584780975E0,2.663384726E0
1.619504083E0,3.587030721E-1,-5.797754055E-1,-2.779119619E0,2.861522894E0
1.629530083E0,3.883817115E-1,-4.307801646E-1,-2.994165593E0,3.049826143E0
1.639556083E0,4.577361211E-1,-1.313202775E-1,-3.283046697E0,3.317403049E0
1.649582083E0,5.157293907E-1,6.466026485E-2,-3.554086193E0,3.591891761E0
1.659609083E0,6.720210066E-1,1.566673726E-1,-3.575976414E0,3.641945114E0
1.669635083E0,6.303159602E-1,1.056165022E-1,-3.144827290E0,3.209110740E0
1.679661083E0,3.182314959E-1,-1.367710519E-1,-2.584510249E0,2.607617846E0
1.689688083E0,-1.277892170E-1,-4.038812184E-1,-2.317131110E0,2.355535333E0
1.699714083E0,-6.187077022E-1,-7.246682400E-1,-2.183725716E0,2.382561915E0
1.709740083E0,-9.911833792E-1,-1.137216786E0,-1.832923182E0,2.373881611E0
1.719766083E0,-1.704252571E0,-1.260915803E0,-1.689361174E0,2.710779715E0
1.729793083E0,-2.243757325E0,-1.425983285E0,-9.745109940E-1,2.831527316E0
1.739819083E0,-1.315933132E0,-2.557143525E0,1.972754667E0,3.487466701E0
1.749845083E0,-2.232583880E-1,-2.787450732E0,3.167135003E0,4.224981659E0
1.759872083E0,1.831666616E-1,-2.540761966E0,5.701541045E-1,2.610382558E0
1.769898083E0,6.679239357E-1,-2.621138377E0,-8.613053906E-1,2.838720795E0
1.779924083E0,1.630100082E0,-2.392816300E0,-6.123341641E-1,2.959349465E0
1.789950083E0,1.682107265E0,-2.234203559E0,-1.152285353E0,3.024716834E0
1.799977083E0,1.551224213E0,-1.656901526E0,-8.910498843E-1,2.438357874E0
1.810003083E0,1.042634418E0,-9.812715447E-1,-8.087742975E-1,1.644413646E0
1.820029083E0,7.302934076E-1,-3.760133886E-1,-1.184519299E0,1.441457769E0
1.830056083E0,7.208712043E-1,2.388944274E-1,-1.506695619E0,1.687263325E0
1.840082083E0,5.988231491E-1,6.292188764E-1,-1.265976860E0,1.535318524E0
1.850108083E0,6.580373172E-1,8.718321329E-1,-4.522952870E-1,1.182233228E0
1.860134083E0,5.444282560E-1,1.131945521E0,1.141671780E-1,1.261244201E0
1.870161083E0,3.334120372E-1,1.402500867E0,2.922707355E-1,1.470916195E0
1.880187083E0,-2.737417862E-2,1.602210179E0,3.769433883E-1,1.646181376E0
1.890213083E0,-3.860574433E-1,1.676447598E0,2.686889148E-1,1.741180816E0
1.900240083E0,-4.209390083E-1,1.663959700E0,1.049537203E-1,1.719583326E0
1.910266083E0,-3.887056473E-1,1.550924250E0,5.919428766E-2,1.599988148E0
1.920292083E0,-5.459261665E-1,1.495286824E0,-4.300334752E-3,1.591834338E0
1.930318083E0,-6.975285347E-1,1.627644982E0,-4.054681528E-1,1.816639389E0
1.940345083E0,-8.680853833E-1,1.850378290E0,-3.406520596E-1,2.072080084E0
1.950371083E0,-7.290761635E-1,2.305008663E0,4.571186551E-1,2.460401279E0
1.960397083E0,-1.266038841E0,2.432699574E0,-7.192162961E-2,2.743365503E0
1.970424083E0,-1.868031034E0,2.342017445E0,8.038284302E-2,2.996839512E0
1.980450083E0,-1.499153295E0,2.195620122E0,3.919885665E-2,2.658899185E0
1.990476083E0,-7.719353771E-1,2.019385042E0,2.286103445E-1,2.173950980E0
2.000502083E0,1.653861558E-1,2.136071493E0,5.394307870E-1,2.209330120E0
2.010529083E0,9.926338542E-1,2.402551914E0,-7.759898365E-2,2.600692076E0
2.020555083E0,1.429649490E0,2.588523193E0,-1.156966926E0,3.175361783E0
2.030581083E0,1.960704725E0,2.672853491E0,-1.634035112E0,3.695751554E0
2.040608083E0,2.129586346E0,2.547610225E0,-1.508935395E0,3.647237570E0
2.050634083E0,1.819815187E0,2.327773628E0,-1.040802632E0,3.132655023E0
2.060660083E0,1.136390575E0,2.145817047E0,-4.146400952E-1,2.463298753E0
2.070686083E0,5.757507670E-1,2.042514873E0,2.732941818E-1,2.139636806E0
2.080713083E0,3.617131457E-1,2.001496071E0,4.602995405E-1,2.085353348E0
2.090739083E0,8.977668732E-2,1.973641105E0,2.329711980E-1,1.989370414E0
2.100765083E0,-3.576028454E-1,1.806501954E0,-2.353004363E-1,1.856527780E0
2.110792083E0,-8.419812199E-1,1.406129065E0,-8.546252391E-1,1.848381892E0
2.120818083E0,-1.484406618E0,1.049140177E0,-1.352691068E0,2.265818008E0
2.130844083E0,-2.006652438E0,1.078187390E0,-1.564177549E0,2.763293951E0
2.140870083E0,-2.569049918E0,1.350107476E0,-1.737924347E0,3.382778254E0
2.150897083E0,-2.584477504E0,1.636232203E0,-1.719710562E0,3.509157194E0
2.160923083E0,-1.864918854E0,1.767903898E0,-1.129810118E0,2.807111937E0
2.170949083E0,-1.191542097E0,1.660879971E0,-5.830092081E-1,2.125604522E0
2.180976083E0,-8.871775657E-1,1.434067061E0,-4.506381860E-1,1.745481923E0
2.191002083E0,-6.440474153E-1,1.200730997E0,-6.256111443E-1,1.499313611E0
2.201028083E0,-3.126196307E-1,1.115026018E0,-9.369204140E-1,1.489575079E0
2.211054083E0,3.779303983E-1,1.135057409E0,-1.202659408E0,1.696342053E0
2.221081083E0,1.331063095E0,9.267024046E-1,-1.237193649E0,2.039890790E0
2.231107083E0,1.615615506E0,8.154714060E-1,-1.409025190E0,2.293590867E0
2.241133083E0,1.355820206E0,1.206860048E0,-1.387246359E0,2.284559491E0
2.251160083E0,6.809246349E-1,1.758945379E0,-1.148512145E0,2.208308709E0
2.261186083E0,-1.518206155E-1,2.455554001E0,-9.338134959E-1,2.631501966E0
2.271212083E0,-7.940293738E-1,3.128301889E0,-4.617192444E-1,3.260358879E0
2.281238083E0,-2.074842082E0,3.002903672E0,4.735455304E-1,3.680576789E0
2.291265083E0,-4.268996015E0,8.210859025E-1,2.054183869E0,4.808136895E0
2.301291083E0,-6.363116074E0,-3.279020305E0,2.462488214E0,7.570011132E0
2.311317083E0,-7.318879141E0,-7.897952296E0,3.921517038E-1,1.077485152E1
2.321344083E0,-8.628531486E0,-1.280520581E1,-3.789209751E0,1.589914973E1
2.331370083E0,-9.650011994E0,-1.692524518E1,-7.371909294E0,2.083102740E1
2.341396083E0,-7.016926585E0,-1.694553735E1,-6.069903352E0,1.931921897E1
2.351422083E0,-1.559746529E0,-1.175602587E1,-2.256909467E0,1.207189272E1
2.361449083E0,2.842703704E0,-3.891362947E0,1.523204355E0,5.054089576E0
2.371475083E0,3.804837604E0,3.226894716E0,5.999242090E0,7.802598564E0
2.381501083E0,3.472865736E0,8.721829659E0,9.213544242E0,1.315372596E1
2.391527083E0,2.974841130E0,1.177476971E1,7.704604754E0,1.438248295E1
2.401554083E0,2.333049863E0,1.151578133E1,3.957869470E0,1.239843022E1
2.411580083E0,3.612376209E0,7.837306144E0,2.194217083E0,8.904337037E0
2.421606083E0,4.922048142E0,1.877628070E0,1.453754344E0,5.464928798E0
2.431633083E0,5.077959470E0,-4.195365536E0,9.328311637E-1,6.652588845E0
2.441659083E0,4.133102630E0,-9.151189535E0,2.007834452E0,1.024002961E1
2.451685083E0,2.636206652E0,-1.132212271E1,2.076388378E0,1.180895579E1
2.461712083E0,1.748973976E0,-1.003511312E1,4.835998178E-1,1.019785635E1
2.471738083E0,1.001128543E0,-5.871516096E0,-4.679854131E-1,5.974610445E0
2.481764083E0,-6.233760461E-2,-9.284776193E-1,1.649876681E-1,9.450807358E-1
2.491790083E0,-5.156675564E-1,2.462844894E0,1.369306809E0,2.864702277E0
2.501817083E0,-3.495741798E-1,4.003258190E0,2.267185364E0,4.613936249E0
2.511843333E0,7.875220075E-2,4.331404517E0,2.621619311E0,5.063610847E0
2.521869333E0,8.052057418E-1,4.073076283E0,2.750991004E0,4.980588138E0
2.531896333E0,1.232871387E0,3.316688068E0,2.954625551E0,4.609794328E0
2.541922333E0,1.071559571E0,2.216982924E0,2.862411160E0,3.775798041E0
2.551948333E0,8.983418007E-1,1.017907274E0,2.335196960E0,2.701166054E0
2.561974333E0,7.280018838E-1,-1.250678498E-1,1.773416361E0,1.921102366E0
2.572001333E0,4.765511455E-1,-8.637816864E-1,8.975391242E-1,1.333715215E0
2.582027333E0,2.654286535E-1,-1.000962043E0,6.039995429E-1,1.198829775E0
2.592053333E0,1.684424955E-1,-8.357185596E-1,4.983046880E-1,9.874745299E-1
2.602080333E0,3.278253150E-1,-6.473089921E-1,2.719712493E-1,7.748849779E-1
2.612106333E0,3.999362482E-1,-3.598218638E-1,3.186343691E-1,6.252588563E-1
2.622132333E0,2.824431009E-1,1.243708616E-1,4.495726772E-1,5.453052434E-1
2.632158333E0,1.491452220E-1,5.835936373E-1,4.313897368E-1,7.408933363E-1
2.642185333E0,3.278709233E-2,8.848965669E-1,3.035850978E-1,9.360987336E-1
2.652211333E0,-1.333762316E-1,9.607016248E-1,2.606760366E-1,1.004335017E0
2.662237333E0,-1.148842659E-1,8.436608326E-1,2.794279110E-1,8.961260807E-1
2.672264333E0,9.682645597E-2,6.578673095E-1,3.908392963E-1,7.713106475E-1
2.682290333E0,3.806084961E-1,3.927574754E-1,4.355741505E-1,6.991753016E-1
2.692316333E0,7.575478645E-1,2.812382090E-1,3.289245915E-1,8.724477544E-1
2.702342333E0,8.620899408E-1,3.848935550E-1,1.588863909E-1,9.573855022E-1
2.712369333E0,1.244169669E0,4.476774484E-1,-8.082942411E-2,1.324728901E0
2.722395333E0,1.791157983E0,2.536083609E-1,-2.750647187E-1,1.829815488E0
2.732421333E0,2.003945469E0,-3.307524312E-1,-4.548220150E-1,2.081359575E0
2.742448333E0,1.764096776E0,-1.070198924E0,-9.335791688E-1,2.264714825E0
2.752474333E0,1.409412569E0,-1.397098625E0,-1.093639827E0,2.265916244E0
2.762500333E0,1.019470674E0,-1.384005539E0,-1.136961701E0,2.060940003E0
2.772526333E0,2.340184343E-1,-9.848172963E-1,-1.175403709E0,1.551194254E0
2.782553333E0,-4.694305524E-1,-4.550303221E-1,-6.526100779E-1,9.237518884E-1
2.792579333E0,-1.007173175E0,1.573205066E-1,-7.688394226E-2,1.022281119E0
2.802605333E0,-1.238345258E0,6.455711997E-1,2.768415414E-2,1.396791883E0
2.812632333E0,-1.084250368E0,8.683331591E-1,-1.127132678E-1,1.393666250E0
2.822658333E0,-5.804323402E-1,1.003063533E0,7.807907660E-2,1.161522490E0
2.832684333E0,-3.806252338E-2,9.550076061E-1,4.914315419E-1,1.074706120E0
2.842710333E0,1.381498984E-1,6.383703536E-1,1.905268808E-1,6.803694548E-1
2.852737333E0,3.596969526E-1,4.123362923E-1,-3.610690749E-1,6.555715007E-1
2.862763333E0,8.292239110E-1,1.489812076E-1,-4.358081853E-1,9.485443950E-1
2.872789333E0,1.266322138E0,-1.172308266E-2,-4.922174442E-1,1.358671116E0
2.882816333E0,1.400531233E0,-1.408068001E-2,-6.801808691E-1,1.557026658E0
2.892842333E0,1.422797576E0,-4.912304342E-2,-9.174012387E-1,1.693632501E0
2.902868333E0,1.245892844E0,1.126775998E-1,-1.311208289E0,1.812239608E0
2.912894333E0,8.771666940E-1,2.735935593E-1,-1.823842456E0,2.042223335E0
2.922921333E0,5.026235146E-1,3.199596405E-1,-1.888828411E0,1.980575001E0
2.932947333E0,1.118915513E-1,2.897739744E-1,-1.483691211E0,1.515858926E0
2.942973333E0,-1.118316904E-1,2.278151232E-1,-1.234782257E0,1.260592432E0
2.953000333E0,-3.124712211E-1,1.707854748E-1,-1.439949360E0,1.483327375E0
2.963026333E0,-3.167064324E-1,2.218948174E-1,-1.927337004E0,1.965748763E0
2.973052333E0,-2.841106902E-1,2.727837199E-1,-2.101566489E0,2.138156110E0
2.983078333E0,-8.292082697E-4,3.220067507E-1,-2.089404280E0,2.114071730E0
2.993105333E0,4.620904695E-1,2.395808905E-1,-2.110685806E0,2.173918393E0
3.003131333E0,8.793193464E-1,-2.428301883E-1,-2.352113248E0,2.522817025E0
3.013157333E0,1.186461159E0,-1.028292514E0,-2.789473869E0,3.200974858E0
3.023184333E0,1.425342723E0,-1.929568886E0,-3.500708715E0,4.243795409E0
3.033210333E0,1.577205146E0,-2.884221566E0,-4.065000109E0,5.227861513E0
3.043236333E0,1.761806422E0,-3.730342323E0,-3.780272282E0,5.595522696E0
3.053262333E0,1.900823974E0,-4.274384809E0,-2.768040315E0,5.435581336E0
3.063289333E0,1.916658088E0,-4.315436940E0,-2.232161711E0,5.222941711E0
3.073315333E0,1.857590831E0,-3.674033636E0,-2.786231003E0,4.971141725E0
3.083341333E0,1.874353483E0,-2.708416257E0,-3.722826312E0,4.970729860E0
3.093368333E0,1.443222924E0,-1.727888478E0,-4.397135407E0,4.939968703E0
3.103394333E0,1.229301443E-1,-1.160268264E0,-4.867991803E0,5.005864407E0
3.113420333E0,-1.612954292E0,-1.122119275E0,-4.082784415E0,4.530993467E0
3.123446333E0,-3.312382471E0,-1.164202271E0,-2.021569562E0,4.051418030E0
3.133473333E0,-4.159081517E0,-9.598350674E-1,7.867628928E-1,4.340303937E0
3.143499333E0,-4.175093240E0,-3.891304475E-1,2.862400635E0,5.077023090E0
3.153525333E0,-3.478443980E0,-1.892714471E-1,3.160780541E0,4.703820769E0
3.163552333E0,-2.291972003E0,-2.865036267E-1,3.096148635E0,3.862817154E0
3.173578333E0,-6.660744613E-1,7.773814738E-2,3.610220633E0,3.671973778E0
3.183604333E0,5.066467644E-1,3.900630784E-1,4.599922400E0,4.644149679E0
3.193630333E0,9.833473793E-1,1.494296890E-1,5.469543993E0,5.559245704E0
3.203657333E0,2.257424168E0,-9.652723932E-1,2.493205976E0,3.499112846E0
3.213683333E0,2.246239614E0,-2.405791272E0,-9.513548505E-1,3.426149457E0
3.223709333E0,2.340097950E0,-3.193218847E0,-4.539091185E-1,3.984813485E0
3.233736333E0,2.941387747E0,-3.402650909E0,9.258548507E-1,4.592058612E0
3.243762333E0,3.415927889E0,-3.016677373E0,1.589912900E0,4.826668493E0
3.253788333E0,2.632048697E0,-2.152181742E0,1.624288096E0,3.768007220E0
3.263814333E0,1.155476325E0,-1.025208108E0,1.478719323E0,2.138407828E0
3.273841333E0,4.543286562E-1,1.775039256E-2,1.244968107E0,1.325396239E0
3.283867333E0,-1.139232029E-1,1.091757608E0,1.419886978E0,1.794712289E0
3.293893333E0,-5.199212596E-1,1.839371492E0,1.179488355E0,2.246062862E0
3.303920333E0,-7.843455076E-1,2.447529867E0,1.067347237E0,2.782953548E0
3.313946333E0,-7.980168825E-1,2.831777304E0,1.582450683E0,3.340650208E0
3.323972333E0,-5.551193051E-1,2.829356557E0,1.968858082E0,3.491392003E0
3.333998333E0,-4.372061084E-1,2.588996817E0,2.440679854E0,3.584825219E0
3.344025333E0,-3.331331250E-1,2.203455391E0,2.486448349E0,3.338954737E0
3.354051333E0,-8.879844815E-2,1.748300523E0,2.181453196E0,2.796994445E0
3.364077333E0,1.108430359E-1,1.474011145E0,2.060133119E0,2.535575576E0
3.374104333E0,3.145962819E-1,1.356811309E0,2.068790506E0,2.493953068E0
3.384130333E0,2.365951560E-1,1.406386927E0,1.672718244E0,2.198155540E0
3.394156333E0,-2.076580167E-2,1.506581306E0,1.216603264E0,1.936579962E0
3.404183333E0,-1.994146121E-1,1.594374910E0,1.183084685E0,1.995366360E0
3.414209333E0,-3.290549845E-1,1.727520103E0,1.301527639E0,2.187824738E0
3.424235333E0,-3.751270969E-1,1.898137178E0,1.108660739E0,2.229971686E0
3.434261333E0,-4.730224970E-1,2.057690152E0,7.024634385E-1,2.225150315E0
3.444288333E0,-6.053987816E-1,2.165674192E0,-1.491519463E-1,2.253641208E0
3.454314333E0,-6.305081874E-1,2.188943771E0,-1.227273263E0,2.587511366E0
3.464340333E0,-2.695008007E-1,2.076128762E0,-1.725544329E0,2.713013924E0
3.474367333E0,4.678012258E-1,2.058420469E0,-1.176872603E0,2.416808213E0
3.484393333E0,1.131744962E0,2.442907058E0,-2.848646522E-2,2.692480832E0
3.494419333E0,7.793133938E-1,2.983903145E0,6.953111243E-1,3.161402363E0
3.504445333E0,-2.850196034E-1,2.968416794E0,6.523621559E-1,3.052590837E0
3.514472083E0,-6.332329899E-2,2.884690513E0,5.429595816E-1,2.936026959E0
3.524498083E0,1.665026817E-1,2.648644264E0,1.170554101E-2,2.653898378E0
3.534524083E0,-9.452608824E-3,2.316755719E0,4.067907929E-2,2.317132107E0
3.544551083E0,-2.716473135E-1,2.033290890E0,3.384152073E-1,2.079083683E0
3.554577083E0,-6.198139223E-1,1.782194493E0,3.347101191E-1,1.916355232E0
3.564603083E0,-8.639801994E-1,1.493340286E0,-3.721355152E-1,1.764939613E0
3.574629083E0,-8.413573220E-1,1.091074653E0,-1.606825386E0,2.116651569E0
3.584656083E0,-9.269906723E-1,7.104033726E-1,-2.752833461E0,2.990330537E0
3.594682083E0,-1.182818344E0,8.067894602E-1,-3.311398092E0,3.607675954E0
3.604708083E0,-1.716020092E0,1.347876179E0,-3.158829033E0,3.839231174E0
3.614735083E0,-1.944179032E0,1.882297656E0,-2.843467643E0,3.925326077E0
3.624761083E0,-1.585761961E0,1.970681829E0,-2.862715507E0,3.820126692E0
3.634787083E0,-8.782675785E-1,1.673135735E0,-2.675078942E0,3.275177014E0
3.644813083E0,-7.749607265E-3,1.391644342E0,-2.197795871E0,2.601353632E0
3.654840083E0,6.117324856E-1,1.372177207E0,-1.667349331E0,2.244357528E0
3.664866083E0,5.436685565E-1,1.548730960E0,-1.822533265E0,2.452706788E0
3.674892083E0,-2.271883017E-1,1.811334093E0,-1.401891003E0,2.301704608E0
3.684919083E0,-1.930940351E0,1.560004392E0,8.158111292E-1,2.612985292E0
3.694945083E0,-4.575899700E0,-3.709397596E-1,4.085293163E0,6.145410857E0
3.704971083E0,-7.691369582E0,-5.131894187E0,5.547121342E0,1.078258129E1
3.714997083E0,-9.728685111E0,-1.166280839E1,3.485665584E0,1.558262745E1
3.725024083E0,-1.191665006E1,-1.883486161E1,-5.353224163E0,2.292194515E1
3.735050083E0,-1.081648357E1,-2.447249200E1,-1.260338566E1,2.957608006E1
3.745076083E0,-4.143806543E0,-2.126521703E1,-8.179744821E0,2.315791039E1
3.755103083E0,2.241036908E0,-9.000512635E0,2.391511202E-2,9.275346141E0
3.765129083E0,3.688996368E0,2.271400622E0,7.732760852E0,8.863607921E0
3.775155083E0,3.086379107E0,1.021899636E1,1.217226109E1,1.619004517E1
3.785181083E0,2.604002527E0,1.500279762E1,9.943332889E0,1.818611103E1
3.795208083E0,2.891392884E0,1.544900800E1,4.564768648E0,1.636670748E1
3.805234083E0,5.710961494E0,1.135098574E1,1.949478655E0,1.285536563E1
3.815260083E0,9.276829242E0,3.929711911E0,3.618476901E0,1.070493211E1
3.825287083E0,8.878780621E0,-3.993619639E0,5.331509943E0,1.109985322E1
3.835313083E0,7.109024910E0,-1.067050432E1,5.851329169E0,1.409382669E1
3.845339083E0,4.165676883E0,-1.459645355E1,2.676525543E0,1.541340680E1
3.855365083E0,1.552282705E0,-1.584881488E1,-1.473791290E0,1.599270382E1
3.865392083E0,1.283811453E0,-1.194555518E1,-2.433556191E0,1.225833008E1
3.875418083E0,1.368403706E0,-4.397176922E0,-1.070806450E-1,4.606425930E0
3.885444083E0,4.972635913E-1,1.498582315E0,2.586116479E0,3.030019551E0
3.895471083E0,-1.696193938E-1,4.634848112E0,3.138462596E0,5.600047788E0
3.905497083E0,-2.667096323E-1,5.504184068E0,2.743739287E0,6.155914356E0
3.915523083E0,-5.093319520E-2,5.097156463E0,2.353978509E0,5.614696165E0
3.925550083E0,2.411428280E-1,3.975244764E0,2.643588762E0,4.780092294E0
3.935576083E0,3.879507717E-1,2.586874863E0,2.716902029E0,3.771469739E0
3.945602083E0,-4.030573457E-2,1.498933733E0,2.417638023E0,2.844890244E0
3.955628083E0,1.038833874E-1,9.470103693E-1,2.018228463E0,2.231785502E0
3.965655083E0,7.087104575E-1,2.992464638E-1,1.338151967E0,1.543525071E0
3.975681083E0,7.313109693E-1,-6.243481457E-1,3.177666423E-1,1.012720090E0
3.985707083E0,6.834548713E-1,-1.329632866E0,-4.334271991E-1,1.556564568E0
3.995734083E0,5.391784796E-1,-1.346976292E0,-8.074808934E-1,1.660446915E0
4.005760083E0,2.680249634E-1,-7.880076188E-1,-5.822867846E-1,1.015800811E0
4.015786083E0,2.017435580E-1,-7.576354265E-2,-3.985199064E-2,2.191546458E-1
4.025812083E0,6.639454901E-2,6.702850413E-1,8.886744529E-2,6.794024548E-1
4.035839083E0,-1.542803930E-1,1.092242927E0,-4.303433776E-2,1.103924366E0
4.045865083E0,-5.922966331E-2,1.061042184E0,-1.308606863E-3,1.062694868E0
4.055891083E0,-1.306313293E-1,9.011003709E-1,2.250672242E-1,9.379241323E-1
4.065918083E0,-1.304797402E-1,8.659954423E-1,4.557299414E-1,9.872501447E-1
4.075944083E0,2.610142981E-1,8.617608887E-1,8.069559596E-1,1.209106370E0
4.085970083E0,7.749076630E-1,7.125551480E-1,9.488651061E-1,1.417237353E0
4.095996083E0,1.078844763E0,3.290929914E-1,5.132419851E-1,1.239203597E0
4.106023083E0,1.113947865E0,-1.082939422E-1,2.007455845E-1,1.137060338E0
4.116049083E0,1.136904472E0,-3.565351439E-1,3.824302693E-1,1.251368050E0
4.126075083E0,1.185830391E0,-3.764659631E-1,4.088783951E-1,1.309618983E0
4.136102083E0,1.229568733E0,-4.827467090E-1,2.739784522E-1,1.349054427E0
4.146128083E0,1.106587682E0,-5.960207248E-1,-1.074143748E-1,1.261473285E0
4.156154083E0,9.386546250E-1,-6.932382864E-1,-2.067562298E-1,1.185073823E0
4.166180083E0,7.635468885E-1,-5.951816493E-1,4.792342865E-1,1.080236339E0
4.176207083E0,3.407843529E-1,-3.627261758E-2,1.075974146E0,1.129234272E0
4.186233083E0,-2.270762544E-1,6.300561976E-1,8.162232848E-1,1.055819534E0
4.196259083E0,-3.733979656E-1,1.094436802E0,3.507300647E-1,1.208399575E0
4.206286083E0,-3.227125096E-1,1.177011182E0,3.931188698E-1,1.282201674E0
4.216312083E0,-4.070117446E-1,1.020054372E0,2.433435738E-1,1.124893585E0
4.226338083E0,-1.821617079E-1,7.368555915E-1,2.527987042E-2,7.594590986E-1
4.236365083E0,4.634002458E-2,3.934322441E-1,-2.049425880E-1,4.460244309E-1
4.246391083E0,2.719166875E-1,1.304876339E-1,-7.290706086E-1,7.889928136E-1
4.256417083E0,4.282311806E-1,-6.584491074E-2,-1.473605933E0,1.535979148E0
4.266443083E0,5.509441739E-1,-8.365611434E-2,-2.441078634E0,2.503877538E0
4.276470083E0,7.733658984E-1,-4.206545413E-2,-3.835036719E0,3.912463540E0
4.286496083E0,4.904033455E-1,4.910842538E-2,-2.176638891E0,2.231740114E0
4.296522083E0,1.340708442E-1,2.610980594E-1,2.264200360E0,2.283144862E0
4.306549083E0,1.588352278E-1,1.884522521E-1,3.529086422E0,3.537681989E0
4.316575083E0,4.159651474E-1,4.688133788E-1,2.571067500E-1,6.774340329E-1
4.326601083E0,-1.631793436E-2,8.793446356E-1,-2.179365447E0,2.350137659E0
4.336627083E0,-5.908824840E-1,6.990814090E-1,-1.437657836E0,1.704323027E0
4.346654083E0,7.091704141E-2,2.337067777E-1,-8.521364448E-1,8.864449251E-1
4.356680083E0,8.590242456E-1,-2.006372648E-1,-1.930028477E0,2.122071603E0
4.366706083E0,8.902330282E-1,-5.404850399E-1,-2.732200976E0,2.923963252E0
4.376733083E0,9.172891183E-1,-6.491245526E-1,-2.842774163E0,3.056819745E0
4.386759083E0,8.858468856E-1,-7.468198317E-1,-3.049591935E0,3.262280726E0
4.396785083E0,9.774060235E-1,-8.819589257E-1,-3.624722020E0,3.856395182E0
4.406811083E0,9.840143274E-1,-1.042541594E0,-4.081303316E0,4.325761659E0
4.416838083E0,8.825492021E-1,-1.093044580E0,-3.769335650E0,4.022627349E0
4.426864083E0,7.658460867E-1,-1.259297293E0,-2.955006790E0,3.302183373E0
4.436890083E0,7.552819222E-1,-2.044747340E0,-2.375093536E0,3.223741890E0
4.446917083E0,7.965026730E-1,-3.533351966E0,-2.003904393E0,4.139399164E0
4.456943083E0,1.028276434E0,-5.071908186E0,-1.863376505E0,5.500343359E0
4.466969083E0,1.178265994E0,-5.533405529E0,-1.909465574E0,5.971008816E0
4.476996083E0,9.819778883E-1,-4.442943664E0,-2.391298948E0,5.140266494E0
4.487022083E0,5.106989580E-1,-2.816737681E0,-2.940327355E0,4.103699495E0
4.497048083E0,-5.704490600E-1,-1.519242282E0,-3.291136320E0,3.669480552E0
4.507074083E0,-1.547372944E0,-3.137224156E-1,-3.484324817E0,3.825350208E0
4.517100875E0,-1.754210743E0,7.549655879E-1,-3.058214239E0,3.605537782E0
4.527126875E0,-1.460174440E0,1.586728506E0,-1.894306083E0,2.870228612E0
4.537152875E0,-1.416461387E0,2.013109810E0,-9.667833138E-1,2.644549857E0
4.547179875E0,-1.473647302E0,1.506099495E0,-4.845832463E-1,2.162126958E0
4.557205875E0,-1.377961857E0,4.692647839E-1,-5.960849711E-1,1.572992565E0
4.567231875E0,-1.442400513E0,-7.730136037E-1,4.893126936E-1,1.708067968E0
4.577257875E0,-9.027608339E-1,-1.978246956E0,1.831006465E0,2.842713988E0
4.587284875E0,3.733189186E-1,-2.214663334E0,3.160186172E0,3.876967544E0
4.597310875E0,1.125948544E0,-1.931946949E0,3.846988428E0,4.449662807E0
4.607336875E0,9.742600022E-1,-1.514737587E0,3.359906008E0,3.812162233E0
4.617363875E0,6.491424597E-1,-1.098104761E0,1.742490437E0,2.159512196E0
4.627389875E0,-2.463994749E-2,-7.515016973E-1,5.743155679E-1,9.461502521E-1
4.637415875E0,-4.515203847E-1,-6.385416770E-1,4.752488244E-1,9.151325457E-1
4.647441875E0,-5.677948992E-1,-8.331188875E-1,8.105185220E-1,1.293606742E0
4.657468875E0,-5.084609362E-1,-1.045074608E0,1.203051757E0,1.672736377E0
4.667494875E0,5.041717842E-2,-1.170398566E0,1.544741112E0,1.938710860E0
4.677520875E0,-1.171081813E-1,-1.133845866E0,9.159713021E-1,1.462300995E0
4.687547875E0,-1.641211107E-1,-8.653616041E-1,8.622628722E-1,1.232592271E0
4.697573875E0,2.325311950E-1,-4.564897871E-1,7.774916938E-1,9.310998960E-1
4.707599875E0,8.526452257E-1,-1.761292452E-1,5.676544198E-1,1.039354094E0
4.717625875E0,1.321028834E0,-3.498155236E-2,7.065418714E-1,1.498513365E0
4.727652875E0,1.334945938E0,-3.704269588E-2,1.157993698E0,1.767597868E0
4.737678875E0,1.056266325E0,1.696499455E-1,8.588399121E-1,1.371891267E0
4.747704875E0,8.525933316E-1,3.994806039E-1,1.186967236E0,1.515054904E0
4.757731875E0,7.947667077E-1,6.716994828E-1,1.809021519E0,2.086957875E0
4.767757875E0,7.116187164E-1,1.116806495E0,1.757551403E0,2.200601027E0
4.777783875E0,3.702031566E-1,1.406068838E0,1.933947281E0,2.419552033E0
4.787810875E0,3.143887058E-2,1.604024570E0,2.395482923E0,2.883092378E0
4.797836875E0,-3.842819363E-2,1.649679045E0,2.738336459E0,3.197093093E0
4.807862875E0,1.527096847E-1,1.618240905E0,2.809131038E0,3.245495504E0
4.817888875E0,8.781991661E-2,1.857563934E0,2.661384178E0,3.246724788E0
4.827915875E0,-4.977939337E-2,2.296064177E0,2.353432964E0,3.288318021E0
4.837941875E0,1.061012363E-1,2.583891029E0,1.988489524E0,3.262183457E0
4.847967875E0,-1.874930164E-1,2.699898618E0,1.428101147E0,3.060078277E0
4.857994875E0,-3.353696850E-1,2.735415190E0,9.627724162E-1,2.919229319E0
4.868020875E0,6.996456653E-2,2.784942276E0,4.889386180E-1,2.828402287E0
4.878046875E0,4.133165780E-1,2.826069252E0,1.587980980E-1,2.860544502E0
4.888072875E0,4.097377896E-1,2.720895385E0,-1.929815054E-2,2.751641177E0
4.898099875E0,2.561203247E-1,2.515138298E0,-1.763917851E-1,2.534291289E0
4.908125875E0,1.719628116E-1,2.389327267E0,-4.283383673E-1,2.433501542E0
4.918151875E0,3.253586671E-1,2.404424193E0,-4.605313826E-1,2.469656477E0
4.928178875E0,4.688782829E-1,2.569385256E0,-2.286392882E-1,2.621805363E0
4.938204875E0,-3.126915514E-1,2.421905614E0,-3.278218067E-1,2.463913542E0
4.948230875E0,-2.818144521E-1,2.350218750E0,-2.144135973E-1,2.376745831E0
4.958257875E0,-5.083890885E-2,2.422881514E0,-2.711108315E-1,2.438532450E0
4.968283875E0,-5.969100863E-2,2.440788027E0,-8.695201439E-1,2.591731948E0
4.978309875E0,-4.220610890E-1,2.187969040E0,-1.722973309E0,2.816732345E0
4.988335875E0,-5.147265932E-1,1.812171999E0,-2.387238934E0,3.041022944E0
4.998362875E0,-8.059784514E-1,1.325930409E0,-2.725580758E0,3.136316818E0
5.008388875E0,-1.240343252E0,7.859610933E-1,-2.902330686E0,3.252646558E0
5.018414875E0,-1.599496194E0,4.595484656E-1,-2.803161616E0,3.259952133E0
5.028441875E0,-1.605849194E0,4.240716541E-1,-2.407126484E0,2.924524971E0
5.038467875E0,-1.279181920E0,7.395037955E-1,-2.063249685E0,2.537749300E0
5.048493875E0,-9.470787817E-1,1.359563593E0,-1.842148919E0,2.477677143E0
5.058519875E0,-4.558769989E-1,1.909713496E0,-1.703258836E0,2.599215293E0
5.068546875E0,7.123955190E-2,2.278948792E0,-1.694378085E0,2.840704097E0
5.078572875E0,3.453821647E-1,2.553122395E0,-2.007198275E0,3.265971176E0
5.088598875E0,1.566621101E-1,2.689647279E0,-2.399815418E0,3.608027098E0
5.098625875E0,-1.139132919E0,2.222094560E0,-2.696306089E0,3.674968648E0
5.108651875E0,-3.863628142E0,5.832819808E-1,-2.684760177E0,4.740862526E0
5.118677875E0,-7.311485921E0,-2.871797987E0,-1.459372933E0,7.989669543E0
5.128703875E0,-1.037783481E1,-8.209215957E0,-2.870827934E-1,1.323529744E1
5.138730875E0,-1.187011441E1,-1.421423042E1,-6.521148187E-1,1.853022440E1
5.148756875E0,-1.350619575E1,-2.028364494E1,-4.570283741E0,2.479377078E1
5.158782875E0,-8.124107394E0,-1.988878481E1,-4.620955127E0,2.197539780E1
5.168809875E0,1.934348693E0,-1.133355285E1,5.968849432E-1,1.151292303E1
5.178835875E0,6.356736762E0,-1.579646943E0,5.033477361E0,8.260707056E0
5.188861875E0,6.406595385E0,6.984071081E0,9.110129217E0,1.314595632E1
5.198888875E0,5.665953721E0,1.299627411E1,1.159020352E1,1.831226337E1
5.208914875E0,3.217029001E0,1.523358371E1,6.078060803E0,1.671389157E1
5.218940875E0,2.487081310E0,1.272635260E1,-1.210742015E-1,1.296766297E1
5.228966875E0,4.424277597E0,5.767146805E0,8.686179185E-1,7.320431108E0
5.238993875E0,5.247628126E0,-2.551185797E0,5.423819937E0,7.966427846E0
5.249019875E0,4.552871610E0,-8.985190006E0,8.951827548E0,1.347581151E1
5.259045875E0,3.497643897E0,-1.262543083E1,6.249622203E0,1.451526073E1
5.269072875E0,1.519321219E0,-1.435947058E1,-5.437325835E-1,1.444985735E1
5.279098875E0,8.473612431E-1,-1.279026968E1,-3.256765510E0,1.322556393E1
5.289124875E0,1.515455625E0,-7.345478125E0,-1.710310578E-2,7.500196474E0
5.299150875E0,1.472819190E0,-1.632421573E0,3.107381429E0,3.806549081E0
5.309177875E0,1.254506816E0,2.088696767E0,3.789590989E0,4.505268183E0
5.319203875E0,1.175560049E0,3.839215139E0,3.116475896E0,5.082709545E0
5.329229875E0,9.803223954E-1,4.230289786E0,2.670953731E0,5.098075863E0
5.339256875E0,9.069361845E-1,3.663071276E0,3.229450826E0,4.966888065E0
5.349282875E0,8.849671720E-1,2.611562977E0,3.872159814E0,4.753635420E0
5.359308875E0,1.035050872E0,1.415115650E0,3.545169481E0,3.955010653E0
5.369334875E0,8.730175097E-1,4.013207227E-1,2.807942007E0,2.967786416E0
5.379361875E0,7.741172656E-1,-3.592973685E-1,1.765902104E0,1.961316492E0
5.389387875E0,6.840452939E-1,-8.308606929E-1,8.698367706E-1,1.383785916E0
5.399413875E0,5.706840084E-1,-1.128574601E0,8.770051646E-1,1.538992829E0
5.409440875E0,3.141844918E-1,-1.360272861E0,9.876096341E-1,1.710095594E0
5.419466875E0,-8.501807705E-2,-1.204221200E0,5.566791961E-1,1.329386512E0
5.429492875E0,-4.533961715E-1,-6.304158014E-1,2.572280797E-1,8.180210608E-1
5.439519875E0,-7.889332330E-1,2.881741762E-2,1.235402647E-1,7.990671353E-1
5.449545875E0,-4.620836721E-1,5.051304352E-1,5.677295566E-2,6.869506861E-1
5.459571875E0,-4.892555371E-1,1.084311179E0,-1.655973865E-1,1.201051293E0
5.469597875E0,-4.344396445E-1,1.186801760E0,-4.507431436E-1,1.341791937E0
5.479624875E0,-1.748754559E-1,9.999153918E-1,-6.059133366E-1,1.182177308E0
5.489650875E0,1.794601116E-1,6.188353908E-1,-8.156129086E-1,1.039416947E0
5.499676875E0,5.763159735E-1,1.746534079E-1,-1.043502145E0,1.204799005E0
5.509703875E0,8.027486687E-1,-3.240170234E-1,-1.126080325E0,1.420369443E0
5.519729583E0,6.545491607E-1,-6.665352219E-1,-9.162373504E-1,1.308508574E0
5.529755583E0,6.189046072E-1,-8.651253766E-1,-6.661486479E-1,1.255085197E0
5.539781583E0,8.925380006E-1,-5.145731038E-1,-3.888398409E-1,1.101183901E0
5.549808583E0,5.768097708E-1,1.566463226E-1,-2.659723715E-1,6.542085940E-1
5.559834583E0,-5.197951059E-1,8.531824386E-1,-2.748166506E-1,1.036161868E0
5.569860583E0,-1.164844515E0,1.100305653E0,-6.143896066E-2,1.603530486E0
5.579887583E0,-1.618882637E0,1.162125340E0,2.424981395E-1,2.007516288E0
5.589913583E0,-1.036756286E0,9.324127954E-1,7.213687292E-1,1.569914030E0
5.599939583E0,-8.601546586E-3,3.936784118E-1,1.099584106E0,1.167964848E0
5.609966583E0,8.383744381E-1,-2.025861418E-1,1.257263632E0,1.524671992E0
5.619992583E0,1.442374639E0,-7.552029848E-1,1.144753847E0,1.990285788E0
5.630018583E0,1.885977455E0,-8.798884267E-1,4.529253244E-1,2.129848810E0
5.640044583E0,1.734775036E0,-3.942537779E-1,-7.294097471E-1,1.922737384E0
5.650071583E0,1.391179488E0,4.266140234E-1,-1.146753595E0,1.852680140E0
5.660097583E0,9.794783498E-1,1.145273665E0,-9.486499286E-1,1.780720723E0
5.670123583E0,6.357670270E-1,1.432164962E0,-1.101910713E0,1.915594793E0
5.680150583E0,7.182560371E-1,1.174093421E0,-1.539381262E0,2.064965318E0
5.690176583E0,8.680799016E-1,3.507528323E-1,-1.293294759E0,1.596621934E0
5.700202583E0,7.449456529E-1,-3.731084919E-1,-1.051354517E0,1.341454544E0
5.710228583E0,7.102097567E-1,-7.911002111E-1,-1.058198683E0,1.500007299E0
5.720255583E0,6.812870161E-1,-6.959642583E-1,-1.056946137E0,1.437238109E0
5.730281583E0,5.642955599E-1,-1.521819735E-1,-1.480278191E0,1.591481183E0
5.740307583E0,2.433705806E-1,5.207577038E-1,-2.019719503E0,2.099924926E0
5.750334583E0,9.489946950E-2,8.295713818E-1,-2.449427288E0,2.587834737E0
5.760360583E0,1.453663493E-1,8.094411725E-1,-2.641152227E0,2.766226938E0
5.770386583E0,4.201634117E-1,4.182413954E-1,-2.576543418E0,2.643868215E0
5.780413583E0,7.747972968E-1,-4.631421643E-1,-2.364837958E0,2.531258597E0
5.790439583E0,8.944559605E-1,-1.403431744E0,-2.326277325E0,2.860286405E0
5.800465583E0,8.591248908E-1,-2.025516433E0,-2.393634326E0,3.251199422E0
5.810491583E0,7.602691586E-1,-2.390482092E0,-2.421634303E0,3.486649756E0
5.820518583E0,7.557852213E-1,-2.595864372E0,-2.497312476E0,3.680528867E0
5.830544583E0,6.681910072E-1,-2.611113911E0,-2.726225122E0,3.833627328E0
5.840570583E0,3.560740544E-1,-2.374946625E0,-3.134181265E0,3.948449367E0
5.850597583E0,1.277963068E-1,-1.790333233E0,-3.643283713E0,4.061421081E0
5.860623583E0,2.157550582E-1,-1.112232218E0,-3.843584763E0,4.007088043E0
5.870649583E0,4.806492031E-1,-6.413957030E-1,-3.297322090E0,3.393338337E0
5.880676583E0,5.350709568E-1,-3.386765778E-1,-2.192774867E0,2.282381294E0
5.890702583E0,3.034676784E-1,-1.658054012E-1,-1.358644996E0,1.401963012E0
5.900728583E0,-2.546214641E-1,-4.011377048E-1,-1.458846391E0,1.534267363E0
5.910754583E0,-6.554651271E-1,-9.860364407E-1,-1.223510141E0,1.702609603E0
5.920781583E0,-1.155675861E0,-1.756759690E0,-2.164897974E-1,2.113920324E0
5.930807583E0,-1.161750534E0,-2.009589787E0,1.395857846E0,2.708603799E0
5.940833583E0,-2.748578735E-1,-1.956149744E0,2.906724576E0,3.514415518E0
5.950859583E0,1.939885056E-1,-2.130906063E0,3.840158880E0,4.396045087E0
5.960886583E0,4.410959321E-1,-1.567770079E0,3.559384940E0,3.914293013E0
5.970912583E0,5.365375847E-1,-7.454580152E-1,2.474635512E0,2.639583518E0
5.980938583E0,5.573033132E-1,-4.055926985E-1,9.717078388E-1,1.191347365E0
5.990965583E0,6.356500827E-1,-6.535169810E-1,1.925255688E-1,9.317733451E-1
6.000991583E0,2.946430240E-1,-1.235882703E0,1.293570748E-1,1.277088024E0
6.011017583E0,3.428479815E-1,-1.820896629E0,6.138050312E-1,1.951913392E0
6.021044583E0,7.470312086E-1,-2.085205979E0,9.612392762E-1,2.414564257E0
6.031070583E0,7.517737390E-1,-1.810458764E0,6.124926236E-1,2.053794514E0
6.041096583E0,6.620487995E-1,-1.104706852E0,3.854440704E-1,1.344341092E0
6.051122583E0,3.649943107E-1,-1.309828931E-1,5.130689076E-1,6.431306781E-1
6.061149583E0,-1.156396531E-1,9.606589401E-1,1.232387822E0,1.566849665E0
6.071175583E0,-5.461156163E-1,1.557450328E0,1.248315053E0,2.069343921E0
6.081201583E0,-5.008673765E-1,1.670102785E0,2.759909177E-1,1.765299529E0
6.091228583E0,1.408393984E-1,1.614999794E0,3.516240674E-1,1.658824751E0
6.101254583E0,8.650006847E-1,1.419098774E0,1.293033974E0,2.105707570E0
6.111280583E0,1.078400229E0,1.195676079E0,2.298774362E0,2.806590797E0
6.121307583E0,1.027169118E0,9.831906009E-1,2.900176864E0,3.229979256E0
6.131333583E0,1.034173936E0,8.546226078E-1,3.343364235E0,3.602496348E0
6.141359583E0,9.630462120E-1,9.303405422E-1,3.229309324E0,3.495916223E0
6.151385583E0,6.205132493E-1,1.278207189E0,2.922780445E0,3.249845510E0
6.161412583E0,1.235931820E-1,1.949584490E0,2.793017281E0,3.408386787E0
6.171438583E0,-9.764382362E-2,2.474890743E0,2.876154163E0,3.795639771E0
6.181464583E0,-1.105132529E-1,2.796738449E0,2.708441400E0,3.894818860E0
6.191491583E0,-3.210589170E-2,3.191793296E0,2.283198549E0,3.924483513E0
6.201517583E0,3.608872265E-2,3.416687735E0,1.679902133E0,3.807509508E0
6.211543583E0,3.513132879E-1,3.514221631E0,9.063587719E-1,3.646184433E0
6.221569583E0,2.175170070E-1,3.424170417E0,-2.180602133E-1,3.437994611E0
6.231596583E0,2.802254713E-1,3.086179717E0,-7.600129044E-1,3.190713271E0
6.241622583E0,2.983635342E-1,2.542981569E0,-8.831529272E-1,2.708456230E0
6.251648583E0,2.908516163E-1,1.928261449E0,-7.178366455E-1,2.077998154E0
6.261675583E0,-6.390421987E-3,1.588970329E0,-2.193091786E-1,1.604046152E0
6.271701583E0,-4.182457808E-1,1.514045861E0,1.912232476E-1,1.582349751E0
6.281727583E0,-5.263268843E-1,1.654285482E0,3.119015926E-1,1.763792235E0
6.291754583E0,-4.834770262E-1,1.838827701E0,2.293760374E-1,1.915111149E0
6.301780583E0,-3.747097519E-1,2.033493789E0,-1.270395309E-1,2.071628207E0
6.311806583E0,-1.999630809E-1,2.197995846E0,-9.682275760E-1,2.410111120E0
6.321832583E0,-2.397013432E-1,2.171190455E0,-1.904189339E0,2.897837429E0
6.331859583E0,-7.283803448E-1,1.863214683E0,-2.395391999E0,3.120898862E0
6.341885583E0,-1.250185285E0,1.416200309E0,-2.461589204E0,3.102903152E0
6.351911583E0,-1.735781050E0,1.056857332E0,-2.317507671E0,3.082324622E0
6.361938583E0,-2.018237234E0,1.100541295E0,-2.344830540E0,3.283702626E0
6.371964583E0,-1.934372374E0,1.470510417E0,-2.712623913E0,3.641775098E0
6.381990583E0,-1.556876424E0,1.792461619E0,-2.999175487E0,3.825158357E0
6.392016583E0,-1.140411997E0,1.908406643E0,-3.069033342E0,3.789659760E0
6.402043583E0,-9.089651683E-1,1.605285814E0,-3.029979789E0,3.547384634E0
6.412069583E0,-1.549125355E0,6.667199939E-1,-2.962433046E0,3.408858235E0
6.422095583E0,-3.529696287E0,-1.352425312E0,-2.724182689E0,4.659289799E0
6.432122583E0,-6.535368615E0,-4.724592347E0,-2.094732263E0,8.331909687E0
6.442148583E0,-9.382678463E0,-9.511616001E0,-1.694677463E0,1.346764366E1
6.452174583E0,-9.964507996E0,-1.536982033E1,-2.205600150E0,1.844959264E1
6.462201583E0,-9.425523351E0,-1.994351007E1,-3.122638276E0,2.227857613E1
6.472227583E0,-4.467228027E0,-1.843817948E1,-4.061177199E0,1.940143678E1
6.482253583E0,2.118457048E0,-9.302961618E0,-9.762616503E-1,9.590935405E0
6.492279583E0,3.959404657E0,6.509389436E-1,3.804579157E0,5.529505340E0
6.502306583E0,3.530014960E0,8.716643178E0,7.291992474E0,1.190016925E1
6.512332958E0,2.530965541E0,1.341375127E1,1.012736815E1,1.699700255E1
6.522358958E0,1.085445246E0,1.398778764E1,7.927045702E0,1.611441739E1
6.532385958E0,1.079236965E0,1.010304374E1,3.526857464E0,1.075522983E1
6.542411958E0,3.614012552E0,3.726860890E0,2.508513402E0,5.765693220E0
6.552437958E0,4.602558325E0,-3.035621767E0,4.112891729E0,6.878547886E0
6.562463958E0,5.532978682E0,-8.233778940E0,6.562590328E0,1.189439198E1
6.572490958E0,5.599854457E0,-1.126175372E1,4.654674851E0,1.341087114E1
6.582516958E0,3.444409969E0,-1.190505503E1,-3.137235850E-2,1.239335627E1
6.592542958E0,1.684419107E0,-9.713434403E0,-2.240791617E0,1.010985770E1
6.602569958E0,1.188232281E0,-4.881007120E0,-6.890750688E-1,5.070596702E0
6.612595958E0,8.494745730E-1,-8.438584685E-2,1.525824493E0,1.748390232E0
6.622621958E0,4.324900366E-1,2.849710130E0,2.662677582E0,3.923996351E0
6.632648958E0,1.557081369E-1,4.149433903E0,2.562213939E0,4.879240413E0
6.642674958E0,3.754695976E-1,4.410070617E0,2.197242140E0,4.941414098E0
6.652700958E0,6.985110131E-1,3.909906807E0,2.277643109E0,4.578531097E0
6.662726958E0,6.502554041E-1,3.007984902E0,2.549761123E0,3.996509358E0
6.672753958E0,5.172568296E-1,2.109682424E0,2.505441568E0,3.315954162E0
6.682779958E0,6.082216711E-1,1.280000530E0,1.971077685E0,2.427649522E0
6.692805958E0,4.278226429E-1,3.314225221E-1,1.386666023E0,1.488528051E0
6.702832958E0,1.284462248E-1,-4.923262024E-1,9.620017532E-1,1.088269679E0
6.712858958E0,8.565922424E-2,-1.066499975E0,7.828898433E-1,1.325773814E0
6.722884958E0,2.723624280E-1,-1.377121028E0,7.624397913E-1,1.597484915E0
6.732911958E0,4.519978099E-1,-1.283065640E0,8.498281834E-1,1.603984850E0
6.742937958E0,3.666236374E-1,-8.100715023E-1,7.419438386E-1,1.158062775E0
6.752963958E0,2.433083443E-1,-1.300344747E-1,7.277225330E-1,7.782595969E-1
6.762989958E0,3.763852715E-1,4.901416826E-1,1.037780206E0,1.207846223E0
6.773016958E0,3.982278380E-1,7.062261218E-1,1.357026633E0,1.580778931E0
6.783042958E0,3.262874973E-1,9.094209588E-1,9.157321510E-1,1.331193218E0
6.793068958E0,4.469133635E-1,9.435552496E-1,3.854215586E-1,1.112914121E0
6.803095958E0,6.588927649E-1,6.003067338E-1,6.221566093E-1,1.087008140E0
6.813121958E0,7.798193242E-1,1.585460830E-1,4.637321484E-1,9.210334110E-1
6.823147958E0,1.061421084E0,-3.261623669E-1,8.453670502E-2,1.113617107E0
6.833173958E0,1.457991675E0,-7.175065702E-1,-4.461201887E-1,1.685104930E0
6.843200958E0,1.693804766E0,-8.701516432E-1,-8.983650434E-1,2.105516140E0
6.853226958E0,1.700978130E0,-6.930973685E-1,-9.229784591E-1,2.055626376E0
6.863252958E0,1.676383425E0,-5.527928442E-1,-1.082113795E0,2.070461683E0
6.873279958E0,1.417985171E0,-4.706464809E-1,-1.752933272E0,2.303250988E0
6.883305958E0,9.161927654E-1,-5.124014479E-1,-1.997778411E0,2.256785990E0
6.893331958E0,4.434418716E-1,-3.962330604E-1,-1.531602126E0,1.642999210E0
6.903358958E0,1.513662869E-1,-8.816841066E-2,-9.299983339E-1,9.463521134E-1
6.913384958E0,1.026187809E-1,2.640427172E-1,-3.101338697E-1,4.200383171E-1
6.923410958E0,2.518441097E-1,5.439354819E-1,1.837241936E-1,6.269336834E-1
6.933436958E0,5.811036737E-1,7.202483296E-1,6.189559165E-1,1.113348805E0
6.943463958E0,3.346653148E-1,9.647239244E-1,4.988002761E-1,1.136439545E0
6.953489958E0,1.299965409E-1,1.233870091E0,-6.833872994E-2,1.242579851E0
6.963515958E0,7.746881001E-2,1.251245093E0,-7.702852929E-1,1.471378650E0
6.973542958E0,3.466583926E-1,1.133364056E0,-9.298101997E-1,1.506397402E0
6.983568958E0,7.323715080E-1,9.120609766E-1,-8.336591703E-1,1.436388131E0
6.993594958E0,9.014965197E-1,5.185907257E-1,-9.468577570E-1,1.406475001E0
7.003621958E0,8.355456282E-1,1.876201934E-1,-1.422159206E0,1.660082721E0
7.013647958E0,8.016607942E-1,-1.125296652E-2,-1.624058300E0,1.811174211E0
7.023673958E0,5.596973095E-1,-5.162331283E-2,-1.680720159E0,1.772215082E0
7.033699958E0,2.581018365E-1,-3.351624012E-3,-1.865085207E0,1.882862348E0
7.043726958E0,6.095338594E-2,-2.381980240E-2,-1.957590498E0,1.958684062E0
7.053752958E0,-6.272377666E-2,-2.510583901E-1,-1.726307391E0,1.745594969E0
7.063778958E0,-6.235470772E-3,-5.096509176E-1,-1.190649812E0,1.295156328E0
7.073805958E0,1.007309342E-1,-6.458249688E-1,-1.248468250E0,1.409223042E0
7.083831958E0,8.336901605E-2,-6.677765858E-1,-1.638590970E0,1.771399539E0
7.093857958E0,1.970358185E-2,-7.788035166E-1,-2.136347482E0,2.273962117E0
7.103883958E0,1.668447072E-1,-1.276044888E0,-2.422497498E0,2.743104417E0
7.113910958E0,3.677568278E-1,-2.097336028E0,-2.459790308E0,3.253403120E0
7.123936958E0,5.998024846E-1,-2.691008511E0,-2.515685597E0,3.732286679E0
7.133962958E0,6.655121054E-1,-2.692320626E0,-2.737421370E0,3.896790022E0
7.143989958E0,5.009693738E-1,-2.383147929E0,-2.952659132E0,3.827343768E0
7.154015958E0,6.464842424E-2,-2.211392401E0,-3.193480802E0,3.884939563E0
7.164041958E0,-5.967636135E-1,-1.949622497E0,-3.662041581E0,4.191384405E0
7.174068958E0,-7.540019667E-1,-1.469093052E0,-4.005188355E0,4.332238120E0
7.184094958E0,-5.170222101E-1,-8.026812065E-1,-4.045722424E0,4.156859273E0
7.194120958E0,-3.829247975E-1,-2.517922157E-1,-3.690194170E0,3.718543228E0
7.204146958E0,-2.638794337E-1,-7.543691719E-1,-3.066793274E0,3.169215390E0
7.214173958E0,-3.599853665E-1,-1.466685753E0,-2.249484819E0,2.709416637E0
7.224199958E0,-7.496649407E-1,-1.390460281E0,-3.396741128E-1,1.615783345E0
7.234225958E0,-4.413469969E-1,-1.645741530E0,2.176755981E0,2.764329748E0
7.244252958E0,-3.503858464E-1,-2.034055122E0,3.765273589E0,4.293883519E0
7.254278958E0,1.807623230E-1,-2.227132521E0,5.334869753E0,5.783911269E0
7.264304958E0,7.663416383E-1,-1.873750196E0,4.205600795E0,4.667472266E0
7.274331958E0,9.140670101E-1,-1.246931017E0,3.179831647E0,3.535772159E0
7.284357958E0,6.356892590E-1,-8.770151049E-1,2.078080855E0,2.343432603E0
7.294383958E0,1.824819526E-1,-7.148379010E-1,5.348016925E-1,9.112111380E-1
7.304409958E0,-4.642578131E-1,-7.867586535E-1,7.535891533E-1,1.184238619E0
7.314436958E0,-5.596708509E-1,-7.562677628E-1,1.920929917E0,2.138958657E0
7.324462958E0,-3.434693943E-1,-6.195048970E-1,1.560130692E0,1.713407516E0
7.334488958E0,8.173559636E-2,-8.098364443E-1,6.497016728E-1,1.041454770E0
7.344515958E0,1.644368604E-1,-1.186933907E0,4.835401762E-1,1.292154279E0
7.354541958E0,4.815035909E-3,-1.356863934E0,6.360314673E-1,1.498545611E0
7.364567958E0,-7.044228405E-2,-8.237358606E-1,6.056376404E-1,1.024841371E0
7.374593958E0,-5.605564848E-2,2.815083504E-1,1.099859510E0,1.136697026E0
7.384620958E0,-8.310618371E-2,1.176456281E0,1.682778963E0,2.054921181E0
7.394646958E0,6.516020179E-2,1.525625103E0,1.139413293E0,1.905266505E0
7.404672958E0,5.806406473E-1,1.478750314E0,3.412467214E-1,1.624898574E0
7.414699958E0,1.280198750E0,1.357823462E0,6.957286155E-1,1.991640455E0
7.424725958E0,1.860918189E0,1.077088113E0,1.624903223E0,2.695078068E0
7.434751958E0,2.036012477E0,6.702101970E-1,2.471416327E0,3.271456431E0
7.444778958E0,1.717913420E0,6.342878276E-1,3.181428521E0,3.670835737E0
7.454804958E0,1.267419953E0,1.054973944E0,3.422704520E0,3.799240659E0
7.464830958E0,7.921179190E-1,1.632855436E0,3.342353252E0,3.803287122E0
7.474856958E0,2.067867815E-2,2.394280443E0,3.202162748E0,3.998356251E0
7.484883958E0,-2.143188724E-1,3.040621136E0,3.113573923E0,4.357252809E0
7.494909958E0,2.932466358E-2,3.462994174E0,2.753533958E0,4.424379939E0
7.504935958E0,5.039560220E-1,3.437074637E0,2.317763194E0,4.176060339E0
7.514962708E0,4.052292940E-1,3.203355580E0,1.533010721E0,3.574327856E0
7.524988708E0,1.805895013E-1,2.876174628E0,8.475679421E-1,3.003891555E0
7.535014708E0,3.753693178E-1,2.759246687E0,5.464503694E-1,2.837772438E0
7.545041708E0,4.363224480E-1,2.489642683E0,3.651767439E-1,2.553830853E0
7.555067708E0,5.266750860E-1,2.413904868E0,1.410991609E-1,2.474718637E0
7.565093708E0,5.714442927E-1,2.471262546E0,-2.149974418E-1,2.545566941E0
7.575119708E0,3.360938627E-1,2.417069381E0,-1.067976397E-1,2.442660274E0
7.585146708E0,-1.868398824E-1,2.280010647E0,-1.942041582E-1,2.295881736E0
7.595172708E0,-7.746098936E-1,2.085949745E0,-6.214198601E-1,2.310274761E0
7.605198708E0,-1.137584868E0,1.896665434E0,-1.135342754E0,2.486049531E0
7.615225708E0,-1.082482170E0,1.915939611E0,-1.779691885E0,2.830175869E0
7.625251708E0,-7.891779390E-1,2.013724937E0,-2.181374550E0,3.071853654E0
7.635277708E0,-5.099953187E-1,2.109701135E0,-2.355748461E0,3.203199169E0
7.645304708E0,-5.642671278E-1,2.015742227E0,-2.650898366E0,3.377702809E0
7.655330708E0,-8.914346310E-1,1.598163906E0,-2.938826667E0,3.462006030E0
7.665356708E0,-1.106733204E0,9.629586500E-1,-2.850053946E0,3.205457104E0
7.675382708E0,-1.297466455E0,4.246891201E-1,-2.644214998E0,2.975844924E0
7.685409708E0,-1.621348116E0,2.857066512E-1,-2.607191014E0,3.083479039E0
7.695435708E0,-1.759429821E0,4.857831681E-1,-2.686963407E0,3.248284306E0
7.705461708E0,-2.002336608E0,8.566843361E-1,-2.785610906E0,3.535942316E0
7.715488708E0,-1.879873693E0,1.324058715E0,-2.479286387E0,3.381407632E0
7.725514708E0,-1.437270166E0,2.033917712E0,-1.712675192E0,3.022552415E0
7.735540708E0,-1.238246732E0,2.780246378E0,-1.306812353E0,3.312217296E0
7.745566708E0,-1.587612897E0,3.257848706E0,-1.845243266E0,4.066818857E0
7.755593708E0,-2.991615622E0,2.502248695E0,-2.962393577E0,4.897630883E0
7.765619708E0,-4.930026083E0,-5.502025276E-1,-2.368055096E0,5.496868649E0
7.775645708E0,-6.176974057E0,-5.710490794E0,-1.799988740E0,8.602596879E0
7.785672708E0,-4.973004872E0,-1.214179944E1,-3.623884991E-1,1.312575318E1
7.795698708E0,-4.708088873E0,-1.895895590E1,-3.715262061E0,1.988495114E1
7.805724708E0,-5.085308250E0,-2.291422073E1,-9.323984113E0,2.525586172E1
7.815751708E0,-4.827062463E0,-1.829169387E1,-4.039119748E0,1.934427783E1
7.825777708E0,-1.390698262E0,-5.709027236E0,4.578428913E0,7.449096921E0
7.835803708E0,1.105286896E0,5.706787752E0,1.034575815E1,1.186692029E1
7.845829708E0,1.604938197E0,1.241044859E1,1.479639675E1,1.937855561E1
7.855856708E0,1.672687839E0,1.527637246E1,1.086552768E1,1.882086958E1
7.865882708E0,1.727459877E0,1.362069710E1,1.704309581E0,1.383517901E1
7.875908708E0,6.202468502E0,7.929383419E0,-2.660927510E-1,1.007057805E1
7.885935708E0,9.867140161E0,7.919808018E-1,4.396772879E0,1.083140343E1
7.895961708E0,1.015366659E1,-4.983149207E0,8.509848796E0,1.415437204E1
7.905987708E0,8.630763368E0,-9.324879906E0,8.410692882E0,1.523755940E1
7.916014708E0,5.000151156E0,-1.282845902E1,3.627612591E0,1.423834420E1
7.926040708E0,1.148600146E0,-1.395866032E1,-1.496263894E0,1.408553463E1
7.936066708E0,3.952942899E-1,-1.090690608E1,-2.069268224E0,1.110849805E1
7.946092708E0,8.622592176E-1,-5.414598877E0,6.325114435E-1,5.519188590E0
7.956119708E0,4.631253536E-1,-4.446006435E-1,2.587655174E0,2.666104672E0
7.966145708E0,-2.299576892E-1,2.713135545E0,3.348526742E0,4.315856388E0
7.976171708E0,-9.437549320E-1,4.257063017E0,2.994036662E0,5.289377509E0
7.986198708E0,-1.882024883E0,4.560641683E0,2.270341691E0,5.431014787E0
7.996224708E0,-1.952887144E0,4.116272589E0,1.870940024E0,4.925229416E0
8.006250708E0,-1.410692524E0,3.267048131E0,1.707528765E0,3.947063639E0
8.016277708E0,-8.248342600E-1,2.068793430E0,1.647743032E0,2.770435870E0
8.026303708E0,-2.536555772E-1,8.915922135E-1,1.519970553E0,1.780333763E0
8.036329708E0,1.011701332E-1,6.096540928E-2,9.948967266E-1,1.001884062E0
8.046355708E0,4.820462126E-1,-3.789709103E-1,3.236732072E-1,6.933627095E-1
8.056382708E0,9.479241429E-1,-5.364346737E-1,1.670543665E-1,1.101920823E0
8.066408708E0,1.453796882E0,-5.696801877E-1,2.021011153E-1,1.574454112E0
8.076434708E0,1.704428572E0,-4.551016581E-1,2.624288857E-1,1.783553530E0
8.086461708E0,1.668097482E0,-4.179426026E-1,4.328589959E-1,1.773299788E0
8.096487708E0,1.089992699E0,-8.873091280E-2,3.575304861E-1,1.150558694E0
8.106513708E0,6.671294452E-1,2.308732170E-1,2.542769900E-1,7.503472041E-1
8.116540708E0,6.583404223E-1,4.789150286E-1,3.473047292E-1,8.850945097E-1
8.126566708E0,6.625666436E-1,5.268955261E-1,2.616112988E-1,8.860326880E-1
8.136592708E0,5.511633714E-1,3.659766430E-1,4.780230358E-2,6.633287461E-1
8.146618708E0,4.759975603E-1,5.513690472E-2,-2.874875669E-1,5.588048468E-1
8.156645708E0,6.395054443E-1,-3.686201692E-1,-4.944921573E-1,8.884652700E-1
8.166671708E0,6.912630238E-1,-6.947790277E-1,-2.061552823E-1,1.001530062E0
8.176697708E0,7.472153959E-1,-6.653096455E-1,1.355430635E-1,1.009623541E0
8.186724708E0,9.735189407E-1,-4.815375048E-1,3.855571409E-1,1.152506749E0
8.196750708E0,1.467168733E-2,5.550580555E-1,4.878939398E-1,7.391516759E-1
8.206776708E0,-2.061389831E-1,1.374083399E0,-1.368014209E-1,1.396178032E0
8.216803708E0,-5.615589168E-1,1.632931450E0,-3.660801752E-1,1.765170879E0
8.226829708E0,-7.566482703E-1,1.734663647E0,-3.711461663E-2,1.892868740E0
8.236855708E0,-5.517456079E-1,1.450754430E0,-3.403605759E-1,1.589011313E0
8.246881708E0,-4.985632811E-1,1.146044328E0,-1.294548987E0,1.799399907E0
8.256908708E0,-1.851212396E-1,5.791994548E-1,-1.926059972E0,2.019764565E0
8.266934708E0,4.779755272E-2,-3.589722633E-2,-1.770879546E0,1.771888141E0
8.276960708E0,3.641012216E-1,-3.589149606E-1,-1.495124272E0,1.580122222E0
8.286987708E0,6.680375909E-1,-3.778383046E-1,-1.697793444E0,1.863206533E0
8.297013708E0,8.428833722E-1,-1.067754203E-1,-1.862068629E0,2.046742032E0
8.307039708E0,1.024022439E0,2.208610296E-2,-2.001717680E0,2.248551405E0
8.317065708E0,1.016193163E0,-1.785037994E-2,-1.724670171E0,2.001862727E0
8.327092708E0,7.661050453E-1,-9.185098708E-2,-1.137397538E0,1.374418679E0
8.337118708E0,5.993041191E-1,3.253975511E-2,-6.477376661E-1,8.830562536E-1
8.347144708E0,5.147128157E-1,2.627458048E-1,-7.125569022E-1,9.174431750E-1
8.357171708E0,3.564372761E-1,5.761162180E-1,-1.159050947E0,1.342518725E0
8.367197708E0,4.072155201E-1,6.383498883E-1,-1.400002206E0,1.591641051E0
8.377223708E0,4.140591744E-1,3.657029933E-1,-1.761945001E0,1.846519392E0
8.387250708E0,1.879179628E-1,-1.028735733E-1,-2.473915427E0,2.483174113E0
8.397276708E0,-3.682210967E-3,-5.764442468E-1,-3.101222264E0,3.154343206E0
8.407302708E0,-5.363842049E-1,-8.544939691E-1,-3.401443459E0,3.547912846E0
8.417328708E0,-1.003018948E0,-9.483195609E-1,-3.606590096E0,3.861715826E0
8.427355708E0,-1.377712766E0,-9.228233618E-1,-3.748074004E0,4.098506333E0
8.437381708E0,-1.514173915E0,-7.874620736E-1,-3.788130940E0,4.154847191E0
8.447407708E0,-1.041602385E0,-1.024269630E0,-3.989948173E0,4.248970490E0
8.457434708E0,-8.640722930E-2,-2.047832916E0,-3.977000098E0,4.474105010E0
8.467460708E0,1.166078350E0,-3.381918436E0,-3.857461960E0,5.260905227E0
8.477486708E0,2.112661873E0,-4.719646772E0,-3.629654438E0,6.317657571E0
8.487513708E0,2.792305968E0,-5.668803070E0,-3.244904725E0,7.103640442E0
8.497539708E0,3.423652061E0,-5.608303099E0,-2.490059005E0,7.026724054E0
8.507565708E0,3.208417515E0,-4.451358392E0,-1.590663098E0,5.713032782E0
8.517591958E0,1.751327042E0,-2.670312291E0,-1.214560831E0,3.416558525E0
8.527618958E0,-2.971083563E-1,-1.199261007E0,-1.016061308E0,1.599650249E0
8.537644958E0,-2.044549704E0,-3.803643018E-1,-1.243054898E0,2.422817776E0
8.547670958E0,-2.729915884E0,-3.318236411E-2,-1.100118542E0,2.943433813E0
8.557697958E0,-3.074035050E0,3.839808047E-2,-2.304317522E-1,3.082898749E0
8.567723958E0,-2.782664201E0,-5.649082750E-1,1.059316671E0,3.030592883E0
8.577749958E0,-1.869758887E0,-1.549960045E0,2.453903332E0,3.452537617E0
8.587776958E0,-8.307661141E-1,-2.260965096E0,3.454919754E0,4.211722452E0
8.597802958E0,-1.568292674E-1,-2.105394076E0,2.478661612E0,3.255924296E0
8.607828958E0,5.247487574E-1,-1.414933802E0,1.795478783E0,2.345451552E0
8.617854958E0,6.979368896E-1,-1.013731193E0,1.389183541E0,1.855962754E0
8.627881958E0,4.070042894E-1,-6.483737701E-1,1.609906869E0,1.782650040E0
8.637907958E0,-3.502653207E-1,-2.832420498E-1,2.180717031E0,2.226755178E0
8.647933958E0,-5.539040344E-1,-1.452693951E-1,2.933380570E0,2.988751319E0
8.657960958E0,2.524580674E-1,1.690780878E-2,2.761698717E0,2.773265360E0
8.667986958E0,7.704196326E-1,-2.946552300E-1,2.184569177E0,2.335103981E0
8.678012958E0,1.057195301E0,-7.419929552E-1,1.282902211E0,1.820454210E0
8.688039958E0,1.190041483E0,-1.150655442E0,9.990239838E-1,1.933456903E0
8.698065958E0,1.153530225E0,-1.438954749E0,1.331639338E0,2.274749673E0
8.708091958E0,1.292600841E0,-1.119116730E0,1.356229511E0,2.182337663E0
8.718117958E0,1.322522505E0,-5.139468670E-1,1.690116927E0,2.206740217E0
8.728144958E0,1.400991409E0,-4.394942701E-2,2.039883918E0,2.475042400E0
8.738170958E0,1.374094363E0,3.432292199E-1,1.922680574E0,2.388020562E0
8.748196958E0,1.215387627E0,1.061233973E0,1.906994248E0,2.498001540E0
8.758223958E0,1.059327634E0,1.366216555E0,2.059149617E0,2.688646473E0
8.768249958E0,8.350971468E-1,1.463625321E0,2.436418988E0,2.962384817E0
8.778275958E0,6.793413551E-1,1.628550716E0,3.127198812E0,3.590689978E0
8.788302958E0,6.107539541E-1,1.649934568E0,3.410331227E0,3.837403230E0
8.798328958E0,3.791463268E-1,1.751232317E0,3.184152739E0,3.653682421E0
8.808354958E0,-4.421211317E-2,1.997285491E0,2.939296198E0,3.553950785E0
8.818380958E0,-3.065271243E-1,2.351712129E0,2.731199933E0,3.617175954E0
8.828407958E0,-5.317577782E-1,2.663534199E0,2.610602279E0,3.767283507E0
8.838433958E0,-7.131275904E-1,2.785758548E0,2.379272979E0,3.732283692E0
8.848459958E0,-5.424391794E-1,2.780514180E0,2.033133016E0,3.486994297E0
8.858486958E0,-2.760511440E-1,2.826052880E0,1.642012761E0,3.280089179E0
8.868512958E0,-4.985833079E-2,2.791670083E0,1.206470624E0,3.041624413E0
8.878538958E0,2.010594338E-2,2.638162546E0,9.006980824E-1,2.787752303E0
8.888565958E0,-7.812201709E-2,2.406461363E0,8.338357562E-1,2.548026964E0
8.898591958E0,1.419703960E-2,2.302309588E0,8.303344434E-1,2.447506136E0
8.908617958E0,2.731111640E-1,2.390446424E0,7.796531171E-1,2.529166423E0
8.918643958E0,4.994633138E-1,2.525170950E0,6.575650084E-1,2.656754349E0
8.928670958E0,9.254698116E-1,2.759781123E0,5.873832178E-1,2.969495793E0
8.938696958E0,5.880959934E-1,2.852030305E0,1.086567619E-1,2.914059034E0
8.948722958E0,-1.264890155E-1,2.210239915E0,-3.225119501E-1,2.237224600E0
8.958749958E0,2.543158740E-1,1.755318936E0,-5.521622220E-1,1.857607130E0
8.968775958E0,5.507638603E-1,1.515284886E0,-6.958329883E-1,1.756021829E0
8.978801958E0,3.564836884E-1,1.461448402E0,-8.639658737E-1,1.734747556E0
8.988828958E0,1.030103981E-2,1.473253931E0,-1.268710726E0,1.944276257E0
8.998854958E0,-3.201221931E-1,1.447115707E0,-1.882392381E0,2.395834544E0
9.008880958E0,-5.490345463E-1,1.275458997E0,-2.610977086E0,2.957268322E0
9.018906958E0,-1.060227667E0,9.688912350E-1,-3.306750433E0,3.605195051E0
9.028933958E0,-1.767492839E0,6.634911615E-1,-3.882602649E0,4.317273999E0
9.038959958E0,-2.239454066E0,3.208256131E-1,-4.265146793E0,4.827997592E0
9.048985958E0,-2.529267217E0,1.002978748E-1,-4.058592438E0,4.783244181E0
9.059012958E0,-2.876735961E0,2.010454005E-1,-3.460219963E0,4.504348036E0
9.069038958E0,-3.151008089E0,8.261776578E-1,-2.872782074E0,4.343305003E0
9.079064958E0,-3.209894814E0,1.633700359E0,-2.261839839E0,4.253036684E0
9.089091958E0,-3.347640012E0,2.024239401E0,-2.074833604E0,4.428224619E0
9.099117958E0,-4.148336965E0,9.109102446E-1,-2.710176269E0,5.038205282E0
9.109143958E0,-5.793989618E0,-2.825948215E0,-3.413036733E0,7.294183899E0
9.119170958E0,-6.281763178E0,-8.627048632E0,-3.566421479E0,1.125192779E1
9.129196958E0,-5.477617829E0,-1.505492320E1,-2.353204338E0,1.619236179E1
9.139222958E0,-4.238652181E0,-1.953142872E1,-1.239511485E0,2.002446675E1
9.149248958E0,-1.478658805E0,-1.770071461E1,-1.610173794E0,1.783520085E1
9.159275958E0,-8.223942170E-1,-8.664402984E0,-1.742601827E0,8.876084297E0
9.169301958E0,-1.059195341E0,1.129060505E0,3.029758764E0,3.402368375E0
9.179327958E0,-6.655350557E-1,8.282562261E0,9.616386995E0,1.270899970E1
9.189354958E0,1.811175048E-2,1.233609072E1,1.163979726E1,1.696067046E1
9.199380958E0,6.377011397E-1,1.248169574E1,6.034438820E0,1.387853894E1
9.209406958E0,2.615877345E0,9.138854833E0,1.060830515E0,9.564875500E0
9.219432958E0,6.787192991E0,3.341518854E0,3.326987354E0,8.264416603E0
9.229459958E0,8.751790792E0,-2.207295842E0,7.576162477E0,1.178406699E1
9.239485958E0,8.422079165E0,-6.656763829E0,9.188093067E0,1.413028578E1
9.249511958E0,6.403926131E0,-1.023714027E1,6.578993522E0,1.375108965E1
9.259538958E0,3.146500763E0,-1.182871378E1,1.723727015E0,1.236083216E1
9.269564958E0,1.398963302E0,-1.011706887E1,-7.906590387E-1,1.024389196E1
9.279590958E0,1.213991605E0,-6.349083926E0,3.309708247E-1,6.472571668E0
9.289617958E0,1.226525989E0,-2.233205439E0,2.195010257E0,3.362981202E0
9.299643958E0,7.896512711E-1,9.921631533E-1,2.913155344E0,3.177170267E0
9.309669958E0,2.556955245E-1,2.644941807E0,2.617643789E0,3.730034366E0
9.319695958E0,-3.267954741E-1,3.183476216E0,2.212603652E0,3.890620905E0
9.329722958E0,-6.908159311E-1,3.132565679E0,1.949345631E0,3.753683894E0
9.339748958E0,-1.026062532E0,2.672076981E0,1.738503221E0,3.348909250E0
9.349774958E0,-8.698018335E-1,2.039975427E0,1.716063361E0,2.804091374E0
9.359801958E0,-4.251932962E-1,1.288673120E0,1.481567794E0,2.009106985E0
9.369827958E0,9.492808431E-2,5.869756669E-1,1.419780267E0,1.539262089E0
9.379853958E0,4.763796759E-1,4.913415313E-2,1.114614666E0,1.213143691E0
9.389880958E0,7.393070367E-1,-2.887893033E-1,6.997842443E-1,1.058145616E0
9.399906958E0,1.107258869E0,-3.472696459E-1,5.821360727E-1,1.298268392E0
9.409932958E0,1.254273658E0,-2.456304199E-1,2.793473656E-1,1.308270486E0
9.419959958E0,1.010718415E0,-1.225640720E-1,-7.416812986E-2,1.020820541E0
9.429985958E0,7.091003206E-1,-1.326037413E-1,-2.331854984E-2,7.217691956E-1
9.440011958E0,1.527314655E-1,2.144273382E-1,1.994137350E-1,3.302602332E-1
9.450037958E0,-1.635711801E-1,5.505580384E-1,3.173623073E-1,6.561924403E-1
9.460064958E0,-5.974787280E-2,8.429299307E-1,5.828491406E-1,1.026554332E0
9.470090958E0,1.704850010E-1,1.031813123E0,6.650742951E-1,1.239365674E0
9.480116958E0,3.504606177E-1,9.694589996E-1,4.305667412E-1,1.117166557E0
9.490143958E0,9.713202415E-1,6.278921431E-1,3.270137215E-1,1.201935742E0
9.500169958E0,1.670957648E0,-3.953945696E-2,6.862409234E-2,1.672833553E0
9.510195958E0,2.053511001E0,-6.814245719E-1,-3.599955992E-1,2.193363561E0
9.520223458E0,2.356698342E0,-1.100903238E0,-6.737102672E-1,2.686987260E0
9.530249458E0,2.341170476E0,-1.243941920E0,-7.889904626E-1,2.766039885E0
9.540275458E0,1.586953332E0,-5.263113892E-1,-9.691572833E-1,1.932534707E0
9.550301458E0,1.666387464E0,1.912261713E-1,-1.413863761E0,2.193724086E0
9.560328458E0,1.600140265E0,6.611972988E-1,-1.792600783E0,2.492197485E0
9.570354458E0,1.491063965E0,9.335009623E-1,-1.873123375E0,2.569686162E0
9.580380458E0,1.349277171E0,1.108515728E0,-1.735104527E0,2.461695295E0
9.590407458E0,9.572728906E-1,9.994411826E-1,-1.706895220E0,2.197440638E0
9.600433458E0,4.754246794E-1,7.837824208E-1,-1.859786460E0,2.073438976E0
9.610459458E0,5.799619317E-2,4.176169127E-1,-2.126538777E0,2.167933259E0
9.620486458E0,-2.070562651E-1,5.228521764E-2,-2.265872079E0,2.275913513E0
9.630512458E0,-5.935635055E-1,-9.912199974E-2,-1.915713909E0,2.008009608E0
9.640538458E0,-1.149143498E0,-1.366552770E-2,-1.764635890E0,2.105862614E0
9.650564458E0,-1.218327681E0,1.174769944E-1,-2.102388607E0,2.432727078E0
9.660591458E0,-8.450102238E-1,1.275803983E-1,-2.350673078E0,2.501196305E0
9.670617458E0,-2.704408502E-1,7.848249793E-2,-2.419943873E0,2.436272994E0
9.680643458E0,2.064033869E-1,6.807094574E-2,-2.418320101E0,2.428066746E0
9.690670458E0,1.020294912E-1,-4.112171352E-2,-2.348480957E0,2.351055894E0
9.700696458E0,2.687844071E-1,-2.323519778E-1,-2.470736881E0,2.496151685E0
9.710722458E0,4.839496640E-1,-3.649943107E-1,-2.062134621E0,2.149378356E0
9.720749458E0,5.139272057E-1,-4.607986003E-1,-1.953830153E0,2.072174894E0
9.730775458E0,3.748194237E-1,-5.748929805E-1,-2.506970907E0,2.599210393E0
9.740801458E0,5.442529857E-2,-9.012810498E-1,-2.998122404E0,3.131135192E0
9.750827458E0,-6.534183092E-2,-1.442202877E0,-3.145451773E0,3.460937091E0
9.760854458E0,1.884665413E-1,-2.228702499E0,-3.535391475E0,4.183494633E0
9.770880458E0,6.401539005E-1,-3.399394594E0,-4.041919979E0,5.320037382E0
9.780906458E0,1.381596194E0,-4.741221828E0,-4.068789105E0,6.398674648E0
9.790933458E0,2.150641585E0,-5.502601227E0,-3.774540256E0,7.010779817E0
9.800959458E0,2.654579773E0,-5.292168707E0,-3.303081012E0,6.779689341E0
9.810985458E0,2.685434653E0,-4.153779554E0,-2.311149409E0,5.459565500E0
9.821012458E0,1.678397499E0,-2.728386253E0,-1.535298151E0,3.552217634E0
9.831038458E0,1.738844991E-2,-1.431014814E0,-1.096785629E0,1.803065299E0
9.841064458E0,-2.080414040E0,-6.040483671E-1,-1.510511220E0,2.640954591E0
9.851090458E0,-3.596642813E0,-2.568722767E-1,-1.984157907E0,4.115665862E0
9.861117458E0,-3.807762381E0,-1.494864070E-1,-1.015065966E0,3.943571916E0
9.871143458E0,-3.391006471E0,-5.250080448E-1,4.807194793E-1,3.464916962E0
9.881169458E0,-2.529507538E0,-1.454141722E0,1.797582611E0,3.426986982E0
9.891196458E0,-1.927726721E0,-2.147413922E0,2.827362657E0,4.039987185E0
9.901222458E0,-1.393409324E0,-1.888074120E0,2.889723504E0,3.722487791E0
9.911248458E0,-2.614116164E-1,-1.172714063E0,2.869067338E0,3.110488980E0
9.921275458E0,9.803197642E-1,-7.132842958E-1,3.377571616E0,3.588563968E0
9.931301458E0,9.854383437E-1,-7.125767827E-1,2.535586888E0,2.812126467E0
9.941327458E0,-3.058378838E-2,-3.519520962E-1,2.122737356E0,2.151933905E0
9.951354458E0,-3.535626387E-1,-7.371701717E-2,1.494265900E0,1.537293504E0
9.961380458E0,1.003558353E-1,2.483487904E-2,1.753066881E0,1.756112626E0
9.971406458E0,3.914754003E-1,-4.879676878E-2,2.290593522E0,2.324317706E0
9.981432458E0,7.600209443E-1,-1.096189213E-1,1.895191936E0,2.044847334E0
9.991459458E0,8.081099077E-1,-7.472741604E-1,1.683033610E0,2.010985436E0
1.000148546E1,8.579217531E-1,-1.507118080E0,1.737038201E0,2.454533836E0
1.001151146E1,8.076647884E-1,-1.709145813E0,1.662061109E0,2.517131095E0
1.002153846E1,1.276004104E0,-1.367491248E0,1.666609950E0,2.505156186E0
1.003156446E1,1.518738106E0,-6.459582853E-1,1.987732310E0,2.583584192E0
1.004159046E1,1.349333743E0,1.543331641E-1,2.293881996E0,2.665785980E0
1.005161746E1,1.034126427E0,8.802024221E-1,2.245053068E0,2.623821078E0
1.006164346E1,8.647491083E-1,1.264970847E0,2.149653113E0,2.639877037E0
1.007166946E1,7.866431710E-1,1.371262118E0,2.514708235E0,2.970340853E0
1.008169546E1,7.378810470E-1,1.481867464E0,2.975213597E0,3.404746036E0
1.009172246E1,6.415097237E-1,1.605584022E0,3.347599081E0,3.767738630E0
1.010174846E1,4.669162497E-1,1.764582095E0,3.682015670E0,4.109622872E0
1.011177446E1,9.575751185E-2,2.020917013E0,3.848971218E0,4.348316285E0
1.012180146E1,-1.514268056E-1,2.340746845E0,3.622224966E0,4.315384059E0
1.013182746E1,-2.214492595E-1,2.614535701E0,3.149854726E0,4.099563575E0
1.014185346E1,-1.361588484E-1,2.602085810E0,2.627690767E0,3.700560574E0
1.015188046E1,1.808856627E-1,2.341378344E0,1.925637803E0,3.036915067E0
1.016190646E1,4.606857491E-1,2.667253028E0,1.472010813E0,3.081117640E0
1.017193246E1,4.850165981E-1,2.745791659E0,1.381265534E0,3.111672768E0
1.018195946E1,3.661198997E-1,2.730528088E0,1.270964243E0,3.034003547E0
1.019198546E1,2.419270858E-1,2.712073690E0,1.006040935E0,2.902755722E0
1.020201146E1,5.415144423E-1,2.837857239E0,6.998316067E-1,2.972614317E0
1.021203746E1,9.025294304E-1,2.898246113E0,2.690806782E-1,3.047424210E0
1.022206446E1,8.993888909E-1,2.917867030E0,-2.859721148E-1,3.066696664E0
1.023209046E1,7.759813580E-1,2.850661472E0,-6.847726876E-1,3.032710261E0
1.024211646E1,7.219981089E-1,2.883616379E0,-3.849242529E-1,2.997447476E0
1.025214346E1,-6.772011280E-2,2.352451801E0,-1.913969100E-1,2.361196364E0
1.026216946E1,1.349587074E-1,1.833147715E0,-1.906595761E-1,1.847970636E0
1.027219546E1,3.995706511E-1,1.505753340E0,-4.845476514E-1,1.631482839E0
1.028222246E1,7.962475151E-2,1.337863991E0,-1.060001672E0,1.708749164E0
1.029224846E1,-4.675860482E-1,1.328562241E0,-1.709800701E0,2.215204906E0
1.030227446E1,-8.353694808E-1,1.297210055E0,-2.289127041E0,2.760561302E0
1.031230046E1,-1.353115576E0,1.260525793E0,-2.862510855E0,3.407904845E0
1.032232746E1,-2.053431040E0,1.186721653E0,-3.396348195E0,4.142471289E0
1.033235346E1,-2.781223155E0,1.037875516E0,-3.805631656E0,4.826512211E0
1.034237946E1,-3.340406713E0,9.618874401E-1,-3.913313980E0,5.234268885E0
1.035240646E1,-3.624135252E0,1.060152823E0,-3.348748351E0,5.047018511E0
1.036243246E1,-3.526447866E0,1.273525908E0,-2.085646275E0,4.290410607E0
1.037245846E1,-3.411130541E0,1.481097971E0,-9.559536856E-1,3.839701839E0
1.038248546E1,-4.019572506E0,1.316523993E0,-9.346829769E-1,4.331723770E0
1.039251146E1,-5.631375627E0,1.745978594E-3,-1.706528015E0,5.884269909E0
1.040253746E1,-7.547031648E0,-3.508303664E0,-2.161948931E0,8.598831576E0
1.041256346E1,-8.485688685E0,-8.787904950E0,-3.193717030E0,1.262671827E1
1.042259046E1,-8.637867150E0,-1.512789061E1,-5.056029487E0,1.813916363E1
1.043261646E1,-6.971710652E0,-2.039333403E1,-6.610488964E0,2.254310064E1
1.044264246E1,-1.458611918E0,-1.949093792E1,-6.254730331E0,2.052183864E1
1.045266946E1,4.017249407E0,-1.118953476E1,-1.600230896E-1,1.188989438E1
1.046269546E1,4.883026748E0,-1.595032722E-1,5.920324559E0,7.675912611E0
1.047272146E1,3.122731832E0,9.169438110E0,9.686737770E0,1.369901230E1
1.048274846E1,1.882150014E0,1.486046469E1,1.161844557E1,1.895690315E1
1.049277446E1,1.028355956E0,1.585368912E1,6.122149394E0,1.702579478E1
1.050280046E1,3.372657616E0,1.132823539E1,5.311084449E-1,1.183156003E1
1.051282746E1,6.637422409E0,3.799828879E0,2.125230755E0,7.937926777E0
1.052285288E1,6.453556713E0,-3.085660484E0,5.594268612E0,9.081053693E0
1.053287888E1,5.408431819E0,-8.362829329E0,8.258340755E0,1.293786076E1
1.054290488E1,3.060365722E0,-1.204137935E1,6.329825537E0,1.394372068E1
1.055293187E1,1.031735355E-1,-1.340034829E1,1.494762621E0,1.348385309E1
1.056295787E1,-1.465647580E0,-1.173371407E1,-8.731290454E-1,1.185708746E1
1.057298388E1,-1.163500898E0,-6.861426902E0,3.839609241E-1,6.969959789E0
1.058301088E1,-1.045843224E0,-1.688564783E0,2.447329892E0,3.151898266E0
1.059303688E1,-8.812457116E-1,1.688467135E0,3.286590987E0,3.798578101E0
1.060306287E1,-3.532940322E-1,3.133516436E0,3.542762475E0,4.742879704E0
1.061308987E1,3.164618361E-1,3.331565139E0,3.569245392E0,4.892748413E0
1.062311588E1,9.399766074E-1,2.904373410E0,3.545493709E0,4.678618020E0
1.063314188E1,1.420763184E0,2.068035631E0,3.548694475E0,4.346098466E0
1.064316788E1,1.731414934E0,1.067791041E0,3.145663442E0,3.746087809E0
1.065319487E1,1.919861923E0,2.059441978E-1,2.122212715E0,2.869158348E0
1.066322087E1,2.004903682E0,-5.797648805E-1,1.218572313E0,2.416750830E0
1.067324688E1,2.251791399E0,-1.160015665E0,1.040414962E0,2.738368883E0
1.068327388E1,2.635804363E0,-1.469496510E0,1.232336951E0,3.259683880E0
1.069329988E1,2.872504916E0,-1.499424314E0,9.295809889E-1,3.371005574E0
1.070332587E1,2.778927246E0,-1.120231794E0,2.682351708E-1,3.008206445E0
1.071335287E1,2.360207841E0,-5.128663015E-1,2.350346804E-2,2.415401686E0
1.072337888E1,1.440148896E0,2.298446918E-1,1.000505376E-1,1.461802837E0
1.073340488E1,5.901774560E-1,7.553140819E-1,2.108117124E-1,9.814531930E-1
1.074343188E1,-2.556868999E-1,1.489957672E0,-3.892652258E-1,1.561049990E0
1.075345787E1,-6.997414134E-1,1.900976002E0,-6.349351144E-1,2.122849595E0
1.076348387E1,-6.700571461E-1,1.677381399E0,-1.325881000E-1,1.811122453E0
1.077350988E1,-5.836168800E-1,1.309358815E0,-2.247095208E-1,1.451042225E0
1.078353688E1,-1.126219051E-1,9.067645687E-1,-6.285103400E-1,1.109022508E0
1.079356288E1,3.501461837E-1,4.067469388E-1,-8.255169225E-1,9.846439008E-1
1.080358887E1,6.910710159E-1,-8.716736734E-2,-7.028190954E-1,9.895109801E-1
1.081361587E1,9.860590256E-1,-4.118006873E-1,-6.627806517E-1,1.257445983E0
1.082364188E1,1.041829988E0,-5.340671360E-1,-8.086899514E-1,1.422890321E0
1.083366788E1,9.473780130E-1,-4.267192733E-1,-9.564091837E-1,1.412208541E0
1.084369488E1,9.466327123E-1,-2.003302860E-1,-1.089848565E0,1.457400292E0
1.085372087E1,8.371617986E-1,2.199664056E-2,-8.173764288E-1,1.170225600E0
1.086374687E1,5.434557179E-1,4.084163189E-1,-7.061740816E-1,9.802192817E-1
1.087377388E1,8.533067650E-1,5.302991903E-1,-7.317322612E-1,1.242892501E0
1.088379988E1,9.436705859E-1,5.906839710E-1,-8.637740850E-1,1.409087435E0
1.089382588E1,6.881163447E-1,7.877304608E-1,-1.676436489E0,1.975971326E0
1.090385187E1,8.093245205E-1,7.294454151E-1,-2.157878099E0,2.417340415E0
1.091387887E1,9.979090659E-1,6.586262780E-1,-2.196864409E0,2.501164591E0
1.092390488E1,9.288086448E-1,5.131826359E-1,-2.195385649E0,2.438392926E0
1.093393088E1,7.776774891E-1,4.059517175E-1,-2.127948541E0,2.301682877E0
1.094395788E1,4.365100705E-1,4.890049839E-1,-2.068547262E0,2.169920434E0
1.095398387E1,5.473907478E-2,7.312796867E-1,-2.267033336E0,2.382688921E0
1.096400987E1,-1.612979288E-1,8.231020224E-1,-2.685137322E0,2.813090187E0
1.097403688E1,-1.619952459E-1,6.807924879E-1,-2.716588910E0,2.805276489E0
1.098406288E1,4.800041456E-2,3.381848270E-1,-2.015905949E0,2.044639286E0
1.099408888E1,2.636275649E-1,4.944990277E-2,-1.497569577E0,1.521400481E0
1.100411487E1,4.519215768E-1,-2.089134139E-1,-1.518875077E0,1.598392763E0
1.101414187E1,5.071247012E-1,-3.118670940E-1,-1.515241032E0,1.628002436E0
1.102416788E1,5.272058305E-1,-1.547851539E-1,-1.270109380E0,1.383864975E0
1.103419388E1,4.175227360E-1,1.224021041E-1,-1.180727160E0,1.258341821E0
1.104422088E1,1.319219559E-1,2.990523362E-1,-1.292407737E0,1.333099194E0
1.105424687E1,-2.931261466E-1,2.662360078E-1,-1.627107623E0,1.674599584E0
1.106427287E1,-6.927174456E-1,-1.567240906E-1,-2.300792236E0,2.407917111E0
1.107429988E1,-9.477051647E-1,-7.784216934E-1,-2.862319066E0,3.113993553E0
1.108432588E1,-6.472467193E-1,-1.914352092E0,-3.402741541E0,3.957565191E0
1.109435188E1,5.357523401E-1,-3.753126583E0,-3.417230941E0,5.103964834E0
1.110437887E1,1.942278686E0,-5.895157558E0,-3.017141642E0,6.901338480E0
1.111440487E1,3.060404606E0,-7.187784566E0,-2.957832164E0,8.353388200E0
1.112443088E1,3.423373149E0,-6.759867783E0,-2.836591902E0,8.090831216E0
1.113445688E1,2.785729312E0,-5.176255258E0,-2.190226066E0,6.273037264E0
1.114448388E1,7.421699066E-1,-2.975974905E0,-1.493765379E0,3.411535990E0
1.115450987E1,-1.674801753E0,-1.281056537E0,-2.017284722E0,2.918133721E0
1.116453587E1,-3.345252593E0,-1.542635822E-1,-3.385498102E0,4.761943885E0
1.117456288E1,-4.168096754E0,4.934085220E-1,-3.872534913E0,5.710780084E0
1.118458888E1,-3.964439694E0,5.255372179E-1,-2.301637158E0,4.614163528E0
1.119461488E1,-3.304078840E0,1.715444434E-1,8.890706018E-2,3.309723393E0
1.120464187E1,-2.594062845E0,-7.012934107E-1,1.976233614E0,3.335636939E0
1.121466787E1,-2.235151100E0,-1.631921051E0,2.607712001E0,3.802529242E0
1.122469388E1,-1.183166399E0,-1.713868609E0,3.402333405E0,3.989122828E0
1.123472088E1,2.801531851E-1,-1.393398507E0,3.532114695E0,3.807345457E0
1.124474688E1,1.231704283E0,-1.111655683E0,3.936228633E0,4.271623772E0
1.125477287E1,1.976153653E0,-1.297957914E0,3.825192639E0,4.496885226E0
1.126479887E1,1.737951975E0,-1.375473867E0,2.604925218E0,3.420239877E0
1.127482588E1,1.039677408E0,-9.760967588E-1,1.331655710E0,1.951153742E0
1.128485188E1,8.957175703E-1,-6.862584651E-1,1.517318548E0,1.890903547E0
1.129487788E1,7.396556038E-1,-6.290428752E-1,2.200677086E0,2.405361717E0
1.130490487E1,9.408973977E-1,-6.171759510E-1,1.689935078E0,2.030289299E0
1.131493087E1,9.289975829E-1,-6.981359142E-1,1.181053654E0,1.656900117E0
1.132495688E1,1.010903041E0,-9.153061813E-1,9.903090012E-1,1.685355239E0
1.133498388E1,1.076392733E0,-9.719674551E-1,9.967380148E-1,1.759780873E0
1.134500988E1,9.658541912E-1,-7.117856544E-1,1.219097978E0,1.710471577E0
1.135503587E1,5.647208717E-1,-1.694131333E-1,1.685537972E0,1.785678786E0
1.136506287E1,1.918700959E-1,5.114840198E-1,2.098479159E0,2.168419889E0
1.137508888E1,5.119441956E-2,1.059541789E0,1.676707799E0,1.984086368E0
1.138511488E1,3.599585424E-1,1.433931990E0,1.566697699E0,2.154129241E0
1.139514088E1,8.094385412E-1,1.609967680E0,2.186633244E0,2.833469891E0
1.140516787E1,1.072916710E0,1.713840542E0,2.713029125E0,3.383626266E0
1.141519387E1,1.105390684E0,1.702993373E0,2.968603905E0,3.596482189E0
1.142521988E1,7.881621315E-1,1.865005685E0,2.966086679E0,3.591255482E0
1.143524688E1,5.756898098E-1,1.904042866E0,2.905658921E0,3.521313925E0
1.144527288E1,2.717180648E-1,1.825915879E0,2.844043593E0,3.390631721E0
1.145529887E1,-1.437730926E-1,1.802076781E0,2.932817776E0,3.445224453E0
1.146532587E1,-2.925677741E-1,1.901446702E0,2.916242089E0,3.493646145E0
1.147535188E1,-1.721677566E-1,2.030435110E0,2.639961734E0,3.334922252E0
1.148537788E1,4.104160666E-3,1.998833833E0,1.963509049E0,2.801913868E0
1.149540388E1,2.809414628E-1,2.009536577E0,9.390657574E-1,2.235846564E0
1.150543087E1,5.702374274E-1,2.249557763E0,5.343361080E-2,2.321322038E0
1.151545687E1,5.246712452E-1,2.238302457E0,-3.482011074E-1,2.325192856E0
1.152548346E1,5.456338057E-1,2.192436313E0,-2.086754322E-1,2.268928970E0
1.153551046E1,7.800375715E-1,2.355484167E0,-3.596213043E-2,2.481543381E0
1.154553646E1,7.795428970E-1,2.697032897E0,-2.076094848E-1,2.815097738E0
1.155556246E1,5.481846535E-1,2.911121097E0,-3.996408176E-1,2.989121148E0
1.156558946E1,2.031650162E-1,2.904860483E0,-2.978109723E-1,2.927145679E0
1.157561546E1,1.621929914E-2,2.851716310E0,-2.008857715E-1,2.858829143E0
1.158564146E1,-2.091432095E-1,2.604058660E0,-2.705603161E-1,2.626416812E0
1.159566846E1,-1.534844407E-1,2.285223439E0,-1.982217801E-1,2.298933560E0
1.160569446E1,-2.668786168E-1,1.979959021E0,-2.747320122E-1,2.016665466E0
1.161572046E1,-5.806466407E-1,1.549037939E0,-8.554406333E-1,1.862376904E0
1.162574746E1,-9.316456407E-1,1.060694275E0,-1.624824578E0,2.152461580E0
1.163577346E1,-1.048591708E0,4.083046371E-1,-2.358786675E0,2.613452089E0
1.164579946E1,-6.541613442E-1,6.428545833E-2,-2.850892145E0,2.925687219E0
1.165582546E1,-7.696859533E-1,1.531327307E-2,-3.107034104E0,3.200986080E0
1.166585246E1,-1.117317542E0,3.410791987E-1,-2.976392981E0,3.197444086E0
1.167587846E1,-1.257760645E0,1.026279902E0,-2.623135786E0,3.084810145E0
1.168590446E1,-1.294031216E0,1.808133327E0,-2.322438628E0,3.215211361E0
1.169593146E1,-1.084850292E0,2.256773812E0,-1.941661513E0,3.168592373E0
1.170595746E1,-8.966427460E-1,2.716153877E0,-1.495166664E0,3.227535198E0
1.171598346E1,-1.294690197E0,2.859867328E0,-1.077055369E0,3.318902245E0
1.172601046E1,-2.263744862E0,2.486251298E0,-9.305621517E-1,3.488829637E0
1.173603646E1,-4.466532501E0,1.080749055E0,-1.125836350E0,4.731325247E0
1.174606246E1,-7.224824923E0,-2.166052507E0,-1.526439912E0,7.695446539E0
1.175608846E1,-9.689209388E0,-7.673122176E0,-2.352273461E0,1.258136610E1
1.176611546E1,-9.961985507E0,-1.441771352E1,-2.858005575E0,1.775612048E1
1.177614146E1,-7.709310594E0,-1.979439905E1,-4.944080451E0,2.181044785E1
1.178616746E1,-2.714916899E0,-1.927538616E1,-6.630331491E0,2.056386591E1
1.179619446E1,2.397235334E0,-1.168092658E1,-2.907339703E0,1.227368759E1
1.180622046E1,2.964388355E0,-2.194650654E0,3.474992076E0,5.067510211E0
1.181624646E1,1.468794259E0,6.104446948E0,9.604773256E0,1.147489862E1
1.182627346E1,7.408129871E-1,1.207308530E1,1.225722932E1,1.722056512E1
1.183629946E1,-3.792328656E-2,1.387219754E1,7.061799873E0,1.556625582E1
1.184632546E1,1.612619100E0,1.057204890E1,1.195261511E0,1.076092043E1
1.185635246E1,6.256851701E0,4.472145828E0,1.473657389E0,7.830705435E0
1.186637846E1,7.717437054E0,-1.473880168E0,4.062115093E0,8.844881936E0
1.187640446E1,7.726159346E0,-6.080304379E0,5.909324777E0,1.147099642E1
1.188643046E1,6.815830314E0,-9.646675572E0,5.083718392E0,1.285916347E1
1.189645746E1,4.438721682E0,-1.188522361E1,1.954558716E0,1.283670870E1
1.190648346E1,1.698055691E0,-1.171266526E1,-2.976367253E-1,1.183885587E1
1.191650946E1,8.498021632E-1,-8.375950481E0,-4.955167356E-1,8.433519254E0
1.192653646E1,8.072563604E-1,-3.520168834E0,7.094417980E-1,3.680565054E0
1.193656246E1,5.814374766E-1,3.133476090E-1,1.765118285E0,1.884648196E0
1.194658846E1,3.440675645E-1,2.589520728E0,2.368328454E0,3.526043073E0
1.195661546E1,4.322005995E-1,3.720954618E0,2.717729994E0,4.627997077E0
1.196664146E1,5.869597332E-1,3.787422257E0,2.982443972E0,4.856342361E0
1.197666746E1,5.693521589E-1,3.113999600E0,3.101848501E0,4.431999494E0
1.198669446E1,3.765662429E-1,2.124904481E0,2.748588383E0,3.494532770E0
1.199672046E1,1.627712810E-1,1.161686214E0,2.058161145E0,2.368973755E0
1.200674646E1,3.318037605E-1,3.358360004E-1,1.094376576E0,1.191863937E0
1.201677246E1,7.377972856E-1,-3.871137428E-1,8.725548488E-1,1.206463364E0
1.202679946E1,8.072087055E-1,-9.752138293E-1,1.106894003E0,1.681618934E0
1.203682546E1,7.017478855E-1,-1.212235394E0,8.479819250E-1,1.637387581E0
1.204685146E1,5.952817829E-1,-1.025938425E0,1.696356198E-1,1.198201275E0
1.205687846E1,1.580807908E-1,-4.565728176E-1,-1.343970823E-1,5.015085741E-1
1.206690446E1,-1.201026866E-1,1.752609336E-1,8.850228667E-2,2.301601723E-1
1.207693046E1,-2.584188652E-1,9.523933160E-1,-2.214457512E-2,9.870783761E-1
1.208695746E1,-5.411177087E-1,1.606219030E0,-1.700653902E-1,1.703428949E0
1.209698346E1,-4.772139274E-1,1.815459888E0,3.729498862E-1,1.913823230E0
1.210700946E1,-1.238644928E-1,1.649304823E0,6.975073385E-1,1.795011226E0
1.211703646E1,7.544260360E-2,1.248921994E0,4.619924556E-1,1.333767132E0
1.212706246E1,-2.065068461E-2,8.127255535E-1,2.708946307E-1,8.569324227E-1
1.213708846E1,1.783377385E-1,4.569534713E-1,7.671196103E-2,4.964831809E-1
1.214711546E1,5.719940771E-1,1.648254079E-1,1.800737768E-2,5.955408508E-1
1.215714146E1,9.058114725E-1,-1.862817657E-1,1.260659695E-1,9.333209248E-1
1.216716746E1,1.113104696E0,-5.235433173E-1,1.753441103E-1,1.242515685E0
1.217719346E1,9.491478921E-1,-7.361352146E-1,4.245078564E-2,1.201906338E0
1.218722046E1,7.942944720E-1,-7.632393980E-1,-2.422643240E-1,1.127887445E0
1.219724646E1,6.661845352E-1,-1.201922659E0,-5.341701201E-1,1.474366858E0
1.220727246E1,9.204450799E-1,-1.099726194E0,-7.433530176E-1,1.615298906E0
1.221729946E1,7.114413996E-1,-4.255217636E-1,-7.270275915E-1,1.102627206E0
1.222732546E1,-1.450311942E-1,2.067031664E-1,-1.205290071E0,1.231456212E0
1.223735146E1,-2.307450899E-1,8.638606238E-1,-1.395093030E0,1.657040445E0
1.224737846E1,1.574149391E-1,1.613836783E0,-8.544770122E-1,1.832861039E0
1.225740446E1,-2.160495020E-1,1.817309947E0,-6.381978607E-1,1.938192287E0
1.226743046E1,-4.359637944E-1,1.712663498E0,-8.975183666E-1,1.982125098E0
1.227745646E1,-3.874211236E-1,1.173444380E0,-7.699344599E-1,1.455975931E0
1.228748346E1,-3.171593358E-1,3.359324795E-1,-1.012030238E0,1.112495338E0
1.229750946E1,7.831961643E-2,-2.868070972E-1,-1.641774779E0,1.668477359E0
1.230753546E1,4.758450211E-1,-2.097495657E-1,-1.757857212E0,1.833162662E0
1.231756246E1,5.259420644E-1,1.668310028E-1,-1.342190346E0,1.451179715E0
1.232758846E1,4.430932679E-1,3.926703519E-1,-8.952560788E-1,1.073315003E0
1.233761446E1,2.830341813E-1,8.583624870E-1,-1.066135109E0,1.397690444E0
1.234764146E1,2.267334614E-2,1.115925320E0,-1.044786925E0,1.528850260E0
1.235766746E1,-4.990767032E-1,9.503701794E-1,-9.590579724E-1,1.439469773E0
1.236769346E1,-7.396567002E-1,7.600304461E-1,-1.363043856E0,1.727028334E0
1.237772046E1,-4.597193505E-1,8.750369918E-1,-1.491775571E0,1.789532334E0
1.238774646E1,-1.967323481E-1,9.836291420E-1,-1.483556140E0,1.790856981E0
1.239777246E1,-8.796185777E-2,8.362208354E-1,-1.332693883E0,1.575777764E0
1.240779846E1,1.125748350E-1,1.160654765E-1,-9.293535322E-1,9.433145160E-1
1.241782546E1,4.358076006E-1,-4.284699297E-1,-8.279576965E-1,1.029091197E0
1.242785146E1,6.711871205E-1,-6.675894749E-1,-1.155909750E0,1.494086747E0
1.243787746E1,7.435323078E-1,-7.505100095E-1,-1.657514899E0,1.965568927E0
1.244790446E1,7.622222748E-1,-3.529157174E-1,-2.101061289E0,2.262739676E0
1.245793046E1,9.236924042E-1,-3.126669931E-1,-2.039639212E0,2.260773413E0
1.246795646E1,1.389177255E0,-1.505341111E0,-2.347115048E0,3.115255103E0
1.247798346E1,1.829121176E0,-3.012000770E0,-2.657429706E0,4.413588739E0
1.248800946E1,2.098251702E0,-3.917656122E0,-2.369705181E0,5.036486110E0
1.249803546E1,2.185804109E0,-4.730945932E0,-1.772410932E0,5.504637093E0
1.250806246E1,1.823091966E0,-5.385691413E0,-8.972920793E-1,5.756254805E0
1.251808808E1,1.105261826E0,-5.326938590E0,-2.601955234E-2,5.440455446E0
1.252811408E1,3.711709804E-1,-4.126911013E0,-5.789562106E-2,4.143973252E0
1.253814108E1,-3.311433175E-1,-3.249395387E0,-2.737748230E-1,3.277678893E0
1.254816708E1,-1.037936473E0,-2.464898436E0,-3.133674530E-1,2.692811836E0
1.255819308E1,-1.932867447E0,-1.855161898E0,-6.655300856E-2,2.679931256E0
1.256821908E1,-2.467081202E0,-9.313889480E-1,4.774520552E-1,2.679913337E0
1.257824608E1,-3.044351660E0,-2.488972592E-1,1.095834872E0,3.245131883E0
1.258827208E1,-3.158044044E0,-1.536630732E-1,1.887957176E0,3.682558462E0
1.259829808E1,-1.751921411E0,-1.046571495E0,2.031117042E0,2.879232009E0
1.260832508E1,-8.987187999E-1,-1.168932669E0,2.655128242E0,3.037071788E0
1.261835108E1,-8.189569312E-1,-1.127382939E0,3.549647279E0,3.813355288E0
1.262837708E1,-7.143950475E-1,-1.030508024E0,3.822171675E0,4.022599083E0
1.263840408E1,-7.795969838E-1,-1.088071523E0,3.341479093E0,3.599604648E0
1.264843008E1,-9.920969336E-1,-1.005186657E0,3.499793918E0,3.774018285E0
1.265845608E1,-8.585118102E-1,-3.923762369E-1,4.140889659E0,4.247112997E0
1.266848308E1,-1.489317109E0,5.389027834E-2,3.744526498E0,4.030192094E0
1.267850908E1,-2.188418399E0,1.759842342E-1,3.652868762E0,4.261877019E0
1.268853508E1,-1.938540415E0,5.988250494E-1,3.273339150E0,3.851140035E0
1.269856108E1,-2.032486606E0,3.045896494E-1,3.079951848E0,3.702685518E0
1.270858808E1,-1.867156583E0,-1.526503354E-1,2.776430485E0,3.349349499E0
1.271861408E1,-1.150476225E0,3.393045688E-1,2.220089842E0,2.523394944E0
1.272864008E1,-2.859842478E-1,7.340208614E-1,2.358108105E0,2.486211466E0
1.273866708E1,-1.793013962E-1,1.173043261E0,2.778737504E0,3.021516440E0
1.274869308E1,-1.813036656E-1,1.765664415E0,2.587464847E0,3.137740617E0
1.275871908E1,-3.064212167E-1,2.008379413E0,2.754284740E0,3.422508767E0
1.276874608E1,-4.653896879E-1,1.816197222E0,3.071359072E0,3.598389426E0
1.277877208E1,-3.112510899E-1,1.680134268E0,3.197612737E0,3.625528322E0
1.278879808E1,-2.247654348E-1,1.506080199E0,3.335088963E0,3.666280876E0
1.279882508E1,-1.251761694E-1,1.008242996E0,3.200418816E0,3.357812325E0
1.280885108E1,1.202629003E-1,2.335196668E-1,2.637289556E0,2.650337866E0
1.281887708E1,4.701937602E-1,-2.781152111E-1,1.787964233E0,1.869557793E0
1.282890408E1,6.341270292E-1,-5.179650736E-1,1.221749106E0,1.470739876E0
1.283893008E1,7.001890178E-1,-1.009535816E0,1.088388442E0,1.641345980E0
1.284895608E1,7.007500581E-1,-1.059371635E0,1.251477227E0,1.783119221E0
1.285898208E1,8.949126280E-1,6.485638046E-1,8.592001006E-1,1.399903009E0
1.286900908E1,9.194827013E-2,1.487491316E0,8.601988050E-1,1.720763460E0
1.287903508E1,-1.224806030E-1,1.887854265E0,1.334387529E0,2.315077818E0
1.288906108E1,5.992548198E-2,1.396174765E0,1.671735327E0,2.178897437E0
1.289908808E1,9.619970754E-2,5.028377420E-1,2.233225905E0,2.291156503E0
1.290911408E1,3.116818104E-1,-4.588754511E-1,2.300184710E0,2.366128046E0
1.291914008E1,6.016249155E-1,-6.496192271E-1,1.701563582E0,1.918143974E0
1.292916708E1,3.094902740E-1,-5.959757012E-1,1.229664043E0,1.401087051E0
1.293919308E1,-1.484016754E-1,-7.338507074E-1,8.565998438E-1,1.137683265E0
1.294921908E1,-4.661040714E-1,-7.230684417E-1,4.971174109E-1,9.935827580E-1
1.295924608E1,-7.851127354E-1,3.489325941E-2,3.169331217E-1,8.473878395E-1
1.296927208E1,-1.493461616E0,7.554661095E-1,1.809901817E-1,1.683423324E0
1.297929808E1,-2.018475800E0,1.693728459E0,2.585483810E-1,2.647604184E0
1.298932408E1,-2.139267289E0,1.858165612E0,4.139723432E-1,2.863671957E0
1.299935108E1,-2.130741171E0,6.924524206E-1,3.041888228E-1,2.260990742E0
1.300937708E1,-1.754665217E0,-1.043399965E0,4.013484970E-1,2.080532174E0
1.301940308E1,-1.288949255E0,-1.040974540E0,6.225714692E-1,1.769919040E0
1.302943008E1,-7.605479246E-1,1.009840456E0,8.655550008E-1,1.532121520E0
1.303945608E1,-2.293013027E-1,1.541589171E-1,1.119574421E0,1.153165618E0
1.304948208E1,-1.387877273E0,-4.178239626E0,5.861517942E-1,4.441560945E0
1.305950908E1,-1.072344706E0,-2.263938990E0,5.068775833E-1,2.555830159E0
1.306953508E1,1.597136623E-1,3.580413866E-1,3.983694868E-1,5.589278455E-1
1.307956108E1,8.397873446E-1,2.424240407E0,3.951732525E-1,2.595832474E0
1.308958808E1,8.306915621E-1,2.937582087E0,8.338386798E-1,3.164604862E0
1.309961408E1,-1.658725346E-1,3.152006502E0,2.392259792E0,3.960500675E0
1.310964008E1,-1.132198779E0,3.018295298E0,3.453937422E0,4.724580859E0
1.311966608E1,-5.256945080E-1,1.599401761E0,3.120053222E0,3.545302923E0
1.312969308E1,3.852156635E-2,-1.155904487E0,2.482696483E0,2.738864897E0
1.313971908E1,-3.850766094E-1,-3.840535440E0,2.007561241E0,4.350666455E0
1.314974508E1,-1.845466483E0,-4.443131944E0,6.097289371E-1,4.849632707E0
1.315977208E1,-4.144787121E0,-7.806617618E-2,-3.080804372E-1,4.156954193E0
1.316979808E1,-5.787691582E0,7.413877684E0,-1.171942377E0,9.478206850E0
1.317982408E1,2.322374601E0,-2.392744964E0,-1.964186011E0,3.869971439E0
1.318985108E1,4.614635457E0,-7.491369079E0,-3.326257329E-1,8.804891308E0
1.319987708E1,3.348925522E0,-4.506484771E0,8.254058254E-1,5.674945103E0
1.320990308E1,1.444262997E0,-4.352017121E0,-2.338886261E-5,4.585406048E0
1.321993008E1,5.081056447E-1,-3.054112417E0,-1.731162773E0,3.547209967E0
1.322995608E1,-1.600859107E-1,-2.770190921E0,-2.556324331E0,3.772847641E0
1.323998208E1,-9.077273127E-1,-7.607461452E-1,-1.650100629E0,2.031141467E0
1.325000908E1,-3.343349617E0,1.791102726E0,4.519554175E-2,3.793162042E0
1.326003508E1,-5.171652914E0,3.849319128E0,2.286163087E0,6.840306519E0
1.327006108E1,-3.672458104E0,4.078845146E0,2.350588732E0,5.970694569E0
1.328008708E1,-1.730113490E0,3.712169761E0,2.355299395E0,4.724503388E0
1.329011408E1,4.327766233E-1,2.996817305E0,2.623839791E0,4.006587677E0
1.330014008E1,1.124641837E0,4.212989044E-1,2.125397401E0,2.441234553E0
1.331016608E1,3.386369629E-1,-8.635214853E-1,1.519206029E0,1.779980704E0
1.332019308E1,2.898108850E-1,-7.028446770E-1,-3.396647573E-2,7.610090081E-1
1.333021908E1,1.456566416E0,-4.086934769E-1,-1.696012967E0,2.272680370E0
1.334024508E1,1.229445211E0,-1.108912754E-1,-2.529304347E0,2.814464937E0
1.335027208E1,-2.296023247E-1,5.748041028E-1,-2.473320765E0,2.549594594E0
1.336029808E1,-4.018448525E-1,8.996794975E-1,-2.219097862E0,2.428023436E0
1.337032408E1,-2.308786988E-1,1.033401811E-1,-2.167380263E0,2.182091055E0
1.338035108E1,-5.254163998E-1,-3.300413513E0,-2.792317954E0,4.354977762E0
1.339037708E1,-2.079322657E0,-2.047731759E0,-1.342813075E-1,2.921441346E0
1.340040308E1,-3.008036358E0,-1.448927175E0,1.314551142E0,3.588274989E0
1.341043008E1,-3.220543178E0,-2.842693471E0,2.257714044E0,4.852842181E0
1.342045608E1,-1.956953005E0,-3.426069592E0,2.336826872E0,4.585670915E0
1.343048208E1,-4.452036376E-1,-3.407623966E0,2.097790503E0,4.026267796E0
1.344050808E1,1.198299724E0,-3.956465846E0,1.469544896E-1,4.136561355E0
1.345053508E1,3.605760376E0,-4.655321553E0,-1.056114663E0,5.982382872E0
1.346056108E1,5.915395941E0,-5.293073271E0,-6.934903014E-1,7.968027522E0
1.347058708E1,5.190192096E0,-5.062292440E0,-9.044933639E-2,7.250729606E0
1.348061408E1,3.833921070E0,-4.830922794E0,5.962884542E-1,6.196154109E0
1.349064008E1,3.501729054E0,-7.084995192E0,2.081561995E-1,7.905858097E0
1.350066608E1,3.072433498E0,-9.740844980E0,-1.382215122E0,1.030700864E1
1.351069308E1,-1.985259815E-1,-9.037056563E0,-1.839291970E0,9.224467401E0
1.352071833E1,-3.072395199E0,-7.422564892E0,-4.927085007E-1,8.048406271E0
1.353074433E1,-3.039991684E0,-7.143865544E0,2.739608010E-1,7.768617565E0
1.354077133E1,-1.551460148E0,-6.228828920E0,5.252659436E-1,6.440593343E0
1.355079733E1,6.366287604E-1,-5.193850114E0,3.997952207E-1,5.247972123E0
1.356082333E1,1.446101215E-1,-5.420502226E0,1.932321171E0,5.756441746E0
1.357084933E1,-4.327661714E-1,-3.950714525E0,4.715783078E-2,3.974626483E0
1.358087633E1,1.200825722E0,-2.314809181E0,-5.106961659E0,5.734228923E0
1.359090233E1,2.436685621E0,-1.254592039E0,-2.277198136E0,3.563294732E0
1.360092833E1,3.296483014E0,-2.254774064E-1,4.024504413E-1,3.328604314E0
1.361095533E1,7.891598126E-1,-4.234698586E0,-1.647954701E0,4.612071121E0
1.362098133E1,-5.194723688E0,-3.126421425E0,-7.906418625E-1,6.114309420E0
1.363100733E1,-9.549978998E0,-2.471201735E0,-4.591171165E0,1.088061531E1
1.364103433E1,-7.981005562E0,8.052779549E-1,-1.066946936E1,1.334850175E1
1.365106033E1,-1.584136435E0,2.998358046E0,-4.593829894E0,5.709895999E0
1.366108633E1,-1.422042847E-3,6.409870995E0,3.658269542E-1,6.420301983E0
1.367111333E1,2.066438464E0,9.368516507E0,-6.858827814E-1,9.618196539E0
1.368113933E1,1.190324707E1,7.706700397E0,-7.171781906E0,1.589071986E1
1.369116533E1,1.454035419E1,6.801275425E0,-1.313841057E1,2.074360334E1
1.370119233E1,1.162841273E1,7.390457831E0,-7.698865128E0,1.578326246E1
1.371121833E1,9.048689014E0,6.446549994E0,-5.180949987E0,1.225883447E1
1.372124433E1,5.624877616E0,3.753848130E0,-3.940527798E0,7.826773493E0
1.373127133E1,1.799718014E0,2.821695535E0,-6.847031057E-1,3.416104355E0
1.374129733E1,6.339866960E-1,2.634802151E0,1.651832575E0,3.173747368E0
1.375132333E1,-1.542904794E-2,2.593861701E0,2.365421510E0,3.510495051E0
1.376134933E1,9.549701840E-2,1.125120066E0,2.883766361E0,3.096953869E0
1.377137633E1,4.299001586E-1,5.531542021E-1,4.610646486E0,4.663566740E0
1.378140233E1,1.199988985E0,1.822273064E0,6.520672808E0,6.876032763E0
1.379142833E1,2.279161046E0,2.143074118E0,7.673133870E0,8.286393977E0
1.380145533E1,2.985363779E0,6.650459361E-1,7.523882521E0,8.121791132E0
1.381148133E1,1.815859253E0,-7.512520212E-1,7.033527415E0,7.302892052E0
1.382150733E1,4.367858398E-1,-2.019775636E0,7.147111918E0,7.439857812E0
1.383153433E1,6.064199978E-1,-3.419950773E0,6.185445503E0,7.093908977E0
1.384156033E1,6.420052752E-1,-4.068496159E0,4.622751392E0,6.191499189E0
1.385158633E1,1.413640398E-1,-4.714898248E0,1.932924603E0,5.097690340E0
1.386161333E1,-1.777681320E0,-5.955948136E0,-1.224108750E0,6.334975241E0
1.387163933E1,-3.668652443E0,-6.201839926E0,-2.987652964E0,7.800506359E0
1.388166533E1,-4.823878654E0,-5.893541388E0,-3.311407447E0,8.304760962E0
1.389169233E1,-5.627270297E0,-5.227647021E0,-3.173542382E0,8.310585756E0
1.390171833E1,-5.506938107E0,-4.298078311E0,-2.629511590E0,7.464192902E0
1.391174433E1,-4.498261540E0,-3.886607114E0,-1.779102486E0,6.205262073E0
1.392177033E1,-3.564817003E0,-3.781250229E0,-1.461928459E0,5.398426472E0
1.393179733E1,-2.997791451E0,-3.728760943E0,-1.748759530E0,5.093974053E0
1.394182333E1,-2.646380515E0,-3.431242624E0,-2.451168004E0,4.978451603E0
1.395184933E1,-2.347594519E0,-2.983768659E0,-3.201072827E0,4.965978522E0
1.396187633E1,-1.932303629E0,-2.510063499E0,-3.615805308E0,4.807105586E0
1.397190233E1,-1.632252588E0,-2.075663616E0,-3.739355221E0,4.577707442E0
1.398192833E1,-1.429897704E0,-1.971946582E0,-3.648086032E0,4.386537639E0
1.399195533E1,-1.408192255E0,-2.250724867E0,-3.704028098E0,4.557257070E0
1.400198133E1,-1.329534340E0,-2.926139086E0,-3.901694393E0,5.055014406E0
1.401200733E1,-6.510307449E-1,-4.279052348E0,-3.779584064E0,5.746249710E0
1.402203433E1,2.530783108E-1,-4.932111200E0,-2.488962067E0,5.530343723E0
1.403206033E1,-9.388874173E-2,-3.806784142E0,-1.560148233E0,4.115152866E0
1.404208633E1,-3.638760307E-1,-2.673485283E0,-1.204848606E0,2.954926308E0
1.405211333E1,1.587934202E-1,-2.174173412E0,-8.045587474E-1,2.323695366E0
1.406213933E1,4.411107329E0,-2.969907834E0,2.854567412E0,6.035459843E0
1.407216533E1,3.829367843E0,-2.727201607E0,1.909643914E0,5.074290745E0
1.408219133E1,3.921643338E0,-2.472512680E0,2.189173567E0,5.126898315E0
1.409221833E1,3.752616414E0,-2.383805741E0,1.815750495E0,4.802250474E0
1.410224433E1,1.598954595E0,-2.019813643E0,6.262309492E-2,2.576863326E0
1.411227033E1,4.855317378E-1,-2.071557116E0,-3.922025746E-1,2.163541729E0
1.412229733E1,-6.900366434E-1,-2.238341049E0,-1.682747388E0,2.884087376E0
1.413232333E1,-2.170071152E0,-2.353959798E0,-2.781223447E0,4.240936147E0
1.414234933E1,-2.623922237E0,-2.514262385E0,-2.972871788E0,4.695151745E0
1.415237633E1,-1.723824078E0,-2.215447446E0,-2.369640276E0,3.673550310E0
1.416240233E1,7.809570462E-2,-1.624168813E0,-1.359823794E0,2.119703758E0
1.417242833E1,1.205595588E0,-1.176266831E0,-8.498489410E-1,1.886612732E0
1.418245533E1,1.391603704E0,-1.183547784E0,-9.080328298E-1,2.040066138E0
1.419248133E1,1.365460218E0,-1.408311830E0,-1.311234017E0,2.359482669E0
1.420250733E1,1.255889098E0,-1.458507838E0,-1.775098897E0,2.618296895E0
1.421253433E1,7.297680353E-1,-1.439718395E0,-1.729825076E0,2.365934326E0
1.422256033E1,2.755604164E-1,-1.585874813E0,-1.049879850E0,1.921764856E0
1.423258633E1,2.129269427E-1,-1.592566366E0,-4.909117609E-1,1.680059484E0
1.424261233E1,1.266460133E-1,-1.436924011E0,-1.754918987E-1,1.453130149E0
1.425263933E1,-1.685614863E-1,-1.104784035E0,-3.525286317E-1,1.171852028E0
1.426266533E1,-2.614687729E-1,-8.473200202E-1,-5.573074794E-1,1.047334122E0
1.427269133E1,4.211252421E-2,-6.916098368E-1,-5.246367466E-1,8.691037608E-1
1.428271833E1,3.146246409E-1,-6.228085738E-1,-4.724094164E-1,8.426445520E-1
1.429274433E1,3.780521666E-1,-5.594843978E-1,-2.723790926E-1,7.281048016E-1
1.430277033E1,2.811043078E-1,-4.611120111E-1,-1.569568098E-2,5.402687044E-1
1.431279733E1,1.872338386E-1,-4.465044969E-1,7.148747385E-2,4.894213267E-1
1.432282333E1,1.561330833E-1,-3.927282393E-1,-2.608986694E-1,4.966700366E-1
1.433284933E1,2.421757387E-1,-3.524853623E-1,-6.332189566E-1,7.641081507E-1
1.434287633E1,1.609123050E-1,-3.750714022E-1,-5.648287529E-1,6.968520982E-1
1.435290233E1,-6.476317585E-2,-3.377755219E-1,-4.765609396E-1,5.877047739E-1
1.436292833E1,-2.773243752E-1,-2.713037896E-1,-4.777648813E-1,6.154460473E-1
1.437295533E1,-2.991912076E-1,-2.326957941E-1,-2.586936843E-1,4.588955585E-1
1.438298133E1,-5.675219804E-2,-2.541001117E-1,4.048319757E-2,2.634892181E-1
1.439300733E1,9.802915514E-2,-2.200798416E-1,1.545629597E-1,2.862421360E-1
1.440303333E1,2.429906943E-1,-2.159394282E-1,2.729988974E-1,4.245029001E-1
1.441306033E1,4.518903673E-1,-2.533744723E-1,4.373764086E-1,6.780130161E-1
1.442308633E1,3.314014721E-1,-2.309001142E-1,3.441320300E-1,5.306304293E-1
1.443311233E1,1.457324946E-1,-1.924330366E-1,1.077641845E-1,2.643511925E-1
1.444313933E1,2.823790008E-1,-1.922979659E-1,-2.141455024E-1,4.032055357E-1
1.445316533E1,4.000395977E-1,-1.764245296E-1,-4.962964618E-1,6.614132388E-1
1.446319133E1,3.325641909E-1,-1.867080277E-1,-4.845704556E-1,6.166582158E-1
1.447321833E1,1.297128779E-1,-1.228932703E-1,-3.803748268E-1,4.202537274E-1
1.448324433E1,5.321229368E-2,-1.981095135E-2,-1.115531802E-1,1.251724171E-1
1.449327033E1,1.283993009E-1,-7.738789916E-3,1.562060273E-1,2.023526434E-1
1.450329733E1,5.586956084E-2,-1.803632140E-2,1.756269693E-1,1.851797750E-1
1.451332333E1,-1.558338520E-1,4.761621594E-2,2.050887501E-1,2.619406209E-1
1.452335025E1,-2.785096058E-1,-2.522254944E-2,1.798059744E-1,3.324664885E-1
1.453337725E1,-9.705208540E-2,-9.810926199E-2,2.105710995E-1,2.517632271E-1
1.454340325E1,8.819998562E-2,-4.708762765E-2,3.493769825E-1,3.634016483E-1
1.455342925E1,-3.105543941E-2,-4.443883896E-2,2.699408036E-1,2.753312336E-1
1.456345525E1,-2.802921295E-2,-8.624292254E-2,1.374855816E-1,1.646990092E-1
1.457348225E1,8.618123442E-2,-4.728409410E-2,-5.459779143E-2,1.124451402E-1
1.458350825E1,2.482259989E-2,3.970200956E-2,-2.295382977E-1,2.342653221E-1
1.459353425E1,2.402182370E-2,3.453365564E-3,-1.066064358E-1,1.093339192E-1
1.460356125E1,1.896228647E-1,-1.288784802E-2,5.733896613E-2,1.985212444E-1
1.461358725E1,2.545994639E-1,4.478031635E-2,1.706463110E-1,3.097520415E-1
1.462361325E1,2.547874519E-1,5.012876451E-2,2.506718892E-1,3.609237242E-1
1.463364025E1,4.625732303E-2,1.267442465E-2,3.669127822E-2,6.038734032E-2
1.464366625E1,-2.400249866E-1,-1.862513602E-2,-1.851129073E-1,3.036868096E-1
1.465369225E1,4.001337379E-2,-6.047365844E-2,-4.579831660E-2,8.576490687E-2
1.466371925E1,4.124801338E-1,-8.595348537E-2,1.504704934E-1,4.474027624E-1
1.467374525E1,4.393878508E-1,-7.968819380E-2,2.241506732E-1,4.996552971E-1
1.468377125E1,2.386105451E-1,-6.847323418E-2,2.972350216E-1,3.872624873E-1
1.469379825E1,4.628246605E-2,-1.200597095E-1,2.846997607E-1,3.124265582E-1
1.470382425E1,2.890056503E-1,-7.707098007E-2,9.312275648E-3,2.992505979E-1
1.471385025E1,5.234316355E-1,-2.203464746E-2,-1.699656951E-1,5.507763069E-1
1.472387725E1,3.062388566E-1,-4.247242033E-2,9.033597350E-2,3.220973950E-1
1.473390325E1,4.851259410E-2,-8.548921645E-2,3.717034060E-1,3.844805586E-1
1.474392925E1,-1.538993007E-1,-1.189522469E-1,3.682067710E-1,4.164262936E-1
1.475395625E1,-3.524388769E-1,-1.181447464E-1,1.885803062E-1,4.168139572E-1
1.476398225E1,-2.185934794E-1,-3.864073992E-2,6.669100285E-2,2.317841795E-1
1.477400825E1,-4.009026468E-2,1.544249654E-2,-7.481863260E-2,8.627588195E-2
1.478403425E1,-8.435894966E-2,1.250660956E-2,-1.201684678E-1,1.473543631E-1
1.479406125E1,-5.349617600E-2,-7.956891060E-3,-7.686749697E-3,5.462818946E-2
1.480408725E1,-1.342415464E-1,7.172019303E-2,-1.010205907E-1,1.826738586E-1
1.481411325E1,-2.781587729E-1,8.802573860E-2,-1.201532650E-1,3.155275593E-1
1.482414025E1,-1.451223376E-1,4.554630160E-2,1.136032140E-1,1.898437481E-1
1.483416625E1,6.317711860E-2,6.120748401E-2,3.594874030E-1,3.700930928E-1
1.484419225E1,1.434555888E-2,6.223776340E-3,3.723734969E-1,3.727016926E-1
1.485421925E1,-5.620636046E-2,7.291711807E-2,4.054459333E-1,4.157673219E-1
1.486424525E1,5.544505298E-2,9.956346452E-2,4.337306696E-1,4.484521503E-1
1.487427125E1,9.092244923E-2,3.875943840E-2,2.612442398E-1,2.793165564E-1
1.488429825E1,2.550730884E-2,6.389603376E-2,2.533446515E-1,2.625201675E-1
1.489432425E1,8.326142728E-2,8.176921785E-2,2.927502072E-1,3.151529059E-1
1.490435025E1,1.968930003E-1,6.928190410E-2,2.241372246E-1,3.062749275E-1
1.491437725E1,1.378106868E-1,7.506070733E-2,1.524450982E-1,2.187816335E-1
1.492440325E1,6.339229614E-2,1.986357629E-2,1.716070086E-1,1.840166032E-1
1.493442925E1,3.751953632E-2,-6.735466182E-2,3.063625252E-1,3.159151198E-1
1.494445525E1,-6.335341215E-2,-8.568275928E-2,3.860869718E-1,4.005225834E-1
1.495448225E1,-1.855771762E-1,-3.453833342E-2,-8.601353627E-1,8.806046940E-1
1.496450825E1,5.429174817E-1,-1.569334209E-2,-1.885239390E0,1.961920801E0
1.497453425E1,1.240806059E0,-1.688979936E-1,1.972452950E-1,1.267687625E0
1.498456125E1,5.364542618E-1,-2.654045337E-1,1.086913775E0,1.240807920E0
1.499458725E1,-8.555996776E-2,-2.963257796E-1,1.294477651E0,1.330714795E0
1.500461325E1,-2.702458821E-1,-2.371548808E-1,1.059189202E0,1.118551313E0
1.501464025E1,-2.865074274E-1,-6.362472296E-2,5.810869360E-1,6.509966502E-1