"Time (s)","Linear Acceleration x (m/s^2)","Linear Acceleration y (m/s^2)","Linear Acceleration z (m/s^2)","Absolute acceleration (m/s^2)"
9.293374955E-3,-1.343969361E-1,-1.107988894E-2,-3.289181011E0,3.291944262E0
1.931837492E-2,-6.536718591E-1,-6.075414938E-1,-3.664865786E0,3.771953711E0
2.934437490E-2,-1.439066284E-1,-8.867980814E-1,-3.507745839E0,3.620966836E0
3.936937498E-2,1.283500527E0,-1.409558457E0,-2.794798928E0,3.383065133E0
4.939437495E-2,1.417225033E0,-2.001890758E0,-1.957023318E0,3.137839012E0
5.942037492E-2,1.132948319E0,-1.966498731E0,-1.374099771E0,2.653081102E0
6.944537489E-2,6.856952320E-1,-7.380387756E-1,-7.406141818E-1,1.250355370E0
7.947137498E-2,1.970407887E0,-1.600758169E0,8.293164432E-2,2.540041656E0
8.949637495E-2,4.048242574E0,-2.779258491E0,-8.863267958E-2,4.911252533E0
9.952237492E-2,5.715781354E0,-3.130250182E0,-6.906473851E-1,6.553290509E0
1.095473750E-1,5.655005980E0,-2.882140542E0,-1.230434268E0,6.465276113E0
1.195733750E-1,3.561191145E0,-2.490632032E0,-1.657406725E0,4.651056583E0
1.295983749E-1,1.433802767E0,-2.077022509E0,-1.951243345E0,3.190166683E0
1.396243749E-1,1.149701176E0,-2.092382267E0,-2.515710740E0,3.468238295E0
1.496493750E-1,1.808820375E0,-2.421234792E0,-3.273952523E0,4.455667648E0
1.596753750E-1,1.992491943E0,-2.835237687E0,-3.575915018E0,4.979534627E0
1.697003749E-1,1.254026029E0,-3.674289452E0,-3.275554660E0,5.079590789E0
1.797263749E-1,3.203224602E-1,-3.500870098E0,-2.286890481E0,4.193872434E0
1.897513750E-1,-1.368985504E0,-2.310236366E0,2.458917904E-1,2.696623101E0
1.997773750E-1,-1.777724297E0,-1.395934152E0,2.284533468E0,3.213725097E0
2.098023749E-1,-1.867340771E0,-1.605195329E0,3.082738631E0,3.945489965E0
2.198283749E-1,-2.443848460E0,-1.500391151E0,3.084415027E0,4.211553747E0
2.298533750E-1,-3.147728679E0,-6.802975941E-1,2.329833602E0,3.974811349E0
2.398793750E-1,-4.108089411E0,-3.351514377E-2,1.341041368E0,4.321563817E0
2.499043749E-1,-4.882640832E0,3.981434919E-1,5.855659032E-1,4.933719404E0
2.599303749E-1,-5.395502456E0,4.186411987E-1,-3.986725187E-1,5.426384338E0
2.699553750E-1,-5.590943300E0,-6.343857685E-1,-1.846037902E0,5.921904105E0
2.799803750E-1,-4.805635341E0,-2.919207796E0,-2.282929577E0,6.068580776E0
2.900063749E-1,-2.302566281E0,-6.553356405E0,-1.537960389E0,7.114324550E0
3.000313749E-1,1.342573339E0,-9.737860562E0,-1.186472561E0,9.901320550E0
3.100573750E-1,1.753979924E0,-1.101561635E1,-1.476720160E0,1.125170882E1
3.200823750E-1,-1.101954567E0,-1.030016858E1,-1.571045104E0,1.047740232E1
3.301083749E-1,-3.151139359E0,-7.477255654E0,8.915261400E-1,8.162955974E0
3.401333749E-1,-1.330942642E0,-5.334896066E0,3.836614882E0,6.704635568E0
3.501593750E-1,4.089109933E-1,-3.608261231E0,5.066327019E0,6.233331916E0
3.601843750E-1,2.862217909E-1,-2.648320913E-2,5.778068234E0,5.785213634E0
3.702103749E-1,5.411130309E-2,3.295359179E-1,5.653442434E0,5.663297035E0
3.802353749E-1,3.010953534E-1,-1.054350046E0,5.816040053E0,5.918499331E0
3.902613750E-1,2.137262571E-1,-1.178474155E0,5.756782615E0,5.880053259E0
4.002863750E-1,-9.788788640E-1,-6.128536892E-1,4.805901974E0,4.942720633E0
4.103123749E-1,-1.871648707E0,8.982650560E-1,4.923167884E0,5.342988958E0
4.203373749E-1,-5.216529125E-1,1.979013526E-1,5.442317019E0,5.470840999E0
4.303633750E-1,2.948071407E0,4.621998855E-1,6.257553366E0,6.932656626E0
4.403883750E-1,5.502631048E0,1.646870043E0,7.110968524E0,9.140951960E0
4.504143749E-1,6.557830694E0,2.031425921E0,7.459183080E0,1.013761545E1
4.604393749E-1,6.534718405E0,2.117411274E0,7.617977670E0,1.025765855E1
4.704653750E-1,6.155309538E0,2.321691646E0,7.166948013E0,9.728475288E0
4.804903750E-1,6.498708912E0,3.126456800E0,5.360747191E0,8.985853331E0
4.905163749E-1,7.204678926E0,4.611162211E0,2.622250518E0,8.946866107E0
5.005413749E-1,6.942446507E0,6.286122277E0,4.674395755E-1,9.377174230E0
5.105673750E-1,6.939917001E0,6.694329851E0,-1.191986778E0,9.715828972E0
5.205923750E-1,6.468306899E0,7.188337128E0,-2.312159808E0,9.942699220E0
5.306173749E-1,4.869084063E0,7.263136464E0,-3.159873930E0,9.297630567E0
5.406433749E-1,2.883037505E0,6.609853372E0,-4.770882999E0,8.646582646E0
5.506683750E-1,1.019909946E0,6.391445249E0,-9.524948237E0,1.151587720E1
5.606943750E-1,3.192784399E-1,6.423338302E0,-1.264838466E1,1.418953305E1
5.707193749E-1,6.219519567E-1,6.588682358E0,-1.303054464E1,1.461480937E1
5.807453749E-1,2.594462210E-1,6.822238278E0,-1.207040727E1,1.386740708E1
5.907703750E-1,-1.221471655E-1,5.976540860E0,-9.760803866E0,1.144583997E1
6.007963750E-1,7.461924255E-2,4.286689397E0,-6.429241651E0,7.727640146E0
6.108213749E-1,-4.715726799E-1,2.782209873E0,-3.167653358E0,4.242298948E0
6.208473749E-1,-2.199232532E0,2.286747516E0,-1.475451022E0,3.498970370E0
6.308723750E-1,-4.026454679E0,2.040821227E0,-1.261525667E0,4.687081776E0
6.408983750E-1,-5.946348177E0,1.334036989E0,-1.237480162E0,6.218526231E0
6.509233749E-1,-8.342512593E0,1.456468036E0,-1.982202013E0,8.697582442E0
6.609493749E-1,-9.696814862E0,1.563869109E0,-3.928773433E0,1.057871286E1
6.709743750E-1,-1.115640093E1,-9.505265924E-1,-4.078089101E0,1.191635822E1
6.810003750E-1,-8.925584074E0,-2.681833937E0,-3.086015995E0,9.817422221E0
6.910253749E-1,-5.081750804E0,-4.702595999E0,-6.184512287E-1,6.951336727E0
7.010513749E-1,3.429843385E0,-4.979654911E0,2.059023317E0,6.387516395E0
7.110763750E-1,1.804041445E-1,-3.553133681E0,1.496328359E0,3.859572926E0
7.211023750E-1,-1.105541366E1,-3.559284368E0,-2.643760085E-1,1.161725317E1
7.311274583E-1,-1.078407011E1,-4.147558116E0,4.881546526E0,1.254304202E1
7.411534582E-1,-1.760179142E0,-7.388527080E0,2.298169467E0,7.935373081E0
7.511784583E-1,4.155853561E0,-4.513197960E0,-4.632146698E-1,6.152612654E0
7.612044583E-1,8.842395152E0,-2.672452372E0,-1.191344461E0,9.313928030E0
7.712294583E-1,1.043628240E1,-1.352173297E0,4.428306913E-1,1.053282783E1
7.812544582E-1,1.232140251E1,5.453241956E-1,4.630456561E0,1.317404518E1
7.912804583E-1,1.571169416E1,1.633609142E0,8.998072007E0,1.817942001E1
8.013054583E-1,1.217697161E1,2.707692956E0,6.209409732E0,1.393438222E1
8.113314583E-1,7.663176647E0,-1.865386339E0,-1.278236425E-1,7.887983354E0
8.213564582E-1,3.884073808E0,-6.054996461E0,-2.094042876E0,7.492264481E0
8.313824583E-1,1.282023667E0,-6.932624354E0,-2.682496719E0,7.543252201E0
8.414074583E-1,7.190823948E-1,-5.154905904E0,-1.457748284E0,5.405105404E0
8.514334583E-1,-6.708802879E-1,-3.000937838E0,4.437606910E-1,3.106868491E0
8.614584582E-1,-2.346101140E0,-1.260592452E0,1.502978105E0,3.058141114E0
8.714844583E-1,-3.415284988E0,-1.184172267E-1,1.476643269E0,3.722723403E0
8.815094583E-1,-4.979932653E0,2.779093891E-1,8.929186544E-1,5.066978052E0
8.915354583E-1,-5.896980720E0,5.087194562E-2,1.272867804E0,6.033006051E0
9.015604582E-1,-4.288560798E0,-1.343748629E-1,1.976764687E0,4.724130497E0
9.115864583E-1,-3.030568603E0,6.628579080E-1,4.231874089E-1,3.130944626E0
9.216114583E-1,-2.221923529E0,7.575746155E-1,-1.763187680E0,2.935931584E0
9.316374583E-1,-1.491206637E0,6.739775580E-1,-2.046894438E0,2.620633477E0
9.416624582E-1,-1.779313570E0,7.677236277E-1,-1.848323579E0,2.677994847E0
9.516884583E-1,-1.822440294E0,1.364867603E0,-5.324148591E-1,2.338293775E0
9.617134583E-1,-1.636064681E0,2.653428456E0,2.545977098E-1,3.127652507E0
9.717394583E-1,-1.414139604E0,2.492078633E0,7.045117182E-1,2.950692037E0
9.817644582E-1,-7.879889808E-1,2.252802967E0,1.866844927E-1,2.393929603E0
9.917904583E-1,2.966031934E-1,3.134215178E0,-5.332849248E-1,3.193066089E0
1.001815458E0,1.179902630E0,3.608026173E0,-1.330881393E0,4.022594730E0
1.011841458E0,1.987448281E0,3.374973698E0,-1.633066959E0,4.243501600E0
1.021866458E0,4.370410123E0,2.849026006E0,-1.571704816E0,5.448641102E0
1.031892458E0,6.330546498E0,2.717609249E0,-1.098667409E0,6.976266127E0
1.041917458E0,6.311171749E0,2.388563620E0,-9.984886712E-1,6.821517767E0
1.051943458E0,5.224067940E0,1.865388093E0,-9.378283404E-1,5.625840433E0
1.061968458E0,3.610188473E0,3.993812013E-1,-1.338987680E0,3.871156695E0
1.071994458E0,1.608752336E0,-2.722131486E0,-2.635720748E0,4.116443583E0
1.082019458E0,5.727660558E-1,-4.581257796E0,-2.876458218E0,5.439668724E0
1.092044458E0,8.365988579E-1,-2.873929297E0,-9.422899121E-1,3.138037210E0
1.102070458E0,1.253630026E0,-7.265627378E-1,6.638805860E-1,1.593806477E0
1.112095458E0,1.600129301E0,-2.703846073E-1,-5.482002217E-2,1.623738541E0
1.122121458E0,2.124325314E0,-5.701555663E-1,1.581228615E0,2.708896333E0
1.132146458E0,6.664608161E-1,-4.673147374E0,1.408644537E0,4.926129904E0
1.142172458E0,-1.739772871E-1,-8.189668715E0,2.182748061E-1,8.194424058E0
1.152197458E0,-5.535330651E-1,-1.003488041E1,-6.064914069E-1,1.006841872E1
1.162223458E0,-4.561736720E-1,-1.145472587E1,-3.082953808E0,1.187111803E1
1.172248458E0,7.228131377E-1,-1.129223642E1,-7.308560559E0,1.347041646E1
1.182274458E0,2.152392241E0,-7.769595972E0,-6.707063917E0,1.048733142E1
1.192299458E0,3.444933879E0,-4.053136109E0,-3.961136017E0,6.632200261E0
1.202325458E0,4.731987321E0,-1.489389907E0,-2.579479305E0,5.591395155E0
1.212350458E0,5.845064462E0,1.914507043E-1,-2.250700893E0,6.266345542E0
1.222376458E0,6.538193990E0,1.211189327E0,-2.308631598E0,7.038802461E0
1.232401458E0,6.523236228E0,1.770757924E0,-2.202435052E0,7.109072701E0
1.242427458E0,5.995353107E0,1.707833698E0,-1.542244059E0,6.421796598E0
1.252452458E0,5.122464382E0,1.410153118E0,-1.804345500E-1,5.316082184E0
1.262478458E0,4.626504427E0,1.104159552E0,1.155311580E0,4.894737621E0
1.272503458E0,4.464027554E0,6.254591167E-1,2.190053573E0,5.011494364E0
1.282529458E0,4.629697300E0,1.470925570E-2,2.513830276E0,5.268173887E0
1.292554458E0,5.393705606E0,-9.048028278E-1,1.701323408E0,5.727584977E0
1.302580458E0,5.997206674E0,-1.780779467E0,1.526940726E0,6.439659260E0
1.312605458E0,6.028859991E0,-2.267000007E0,7.105395397E-1,6.480070082E0
1.322631458E0,5.634358876E0,-3.107766468E0,-1.888471731E0,6.706007594E0
1.332656458E0,4.744322607E0,-3.985854537E0,-5.936327219E0,8.581119638E0
1.342682458E0,2.152848617E0,-5.271804024E0,-1.057227929E1,1.200832062E1
1.352707458E0,-3.524388769E-1,-5.653435417E0,-1.230000287E1,1.354162530E1
1.362733458E0,-4.473090738E-2,-4.638796737E0,-6.778840828E0,8.214202273E0
1.372758458E0,6.461883733E-1,-4.377622079E0,-7.072172248E-1,4.481215313E0
1.382784458E0,-5.352702007E-1,-4.503478718E0,3.432910835E0,5.687944404E0
1.392809458E0,-2.695282826E-1,-4.382866446E0,5.387529777E0,6.950369838E0
1.402834458E0,9.710611367E-1,-3.779382920E0,4.927579608E0,6.285517941E0
1.412860458E0,1.229851008E0,-2.712475979E0,3.471795988E0,4.574213246E0
1.422885458E0,4.091638854E-1,-1.845224555E0,2.931446604E0,3.487928888E0
1.432911458E0,-7.589794090E-1,-1.293017017E0,3.145699110E0,3.484733224E0
1.442936458E0,-1.134375916E0,-9.010600251E-1,2.054152440E0,2.513614954E0
1.452962458E0,-1.107763484E0,-6.413652974E-1,1.315870567E-1,1.286780686E0
1.462987458E0,-1.581916248E0,-4.848651552E-1,-5.908494473E-1,1.756888244E0
1.473013458E0,-2.448296437E0,-3.946478802E-1,3.182275490E-1,2.500234222E0
1.483038458E0,-3.236956605E0,-1.806193221E-1,2.194539557E0,3.914909356E0
1.493064458E0,-3.728772345E0,1.858613509E-1,3.702316618E0,5.257892732E0
1.503089458E0,-4.017711337E0,9.483669233E-1,4.404505237E0,6.036643985E0
1.513115458E0,-4.466744170E0,2.051824810E0,4.502321846E0,6.665785065E0
1.523140458E0,-5.116405497E0,3.237067117E0,4.197681326E0,7.367274750E0
1.533166458E0,-5.910469077E0,4.108464802E0,3.507733560E0,8.007329297E0
1.543191458E0,-6.650795576E0,4.688479359E0,2.810196693E0,8.608839988E0
1.553217458E0,-7.082646950E0,5.024096673E0,2.386039377E0,9.005477173E0
1.563242458E0,-7.127898552E0,5.178409957E0,2.252767299E0,9.093834612E0
1.573268458E0,-7.208167959E0,5.190316642E0,2.354789518E0,9.189238589E0
1.583293458E0,-7.154862987E0,5.270022377E0,2.532594283E0,9.240088421E0
1.593319458E0,-7.075908619E0,5.355756592E0,2.421347497E0,9.198670293E0
1.603344458E0,-6.810111737E0,5.229470183E0,2.095558182E0,8.838345114E0
1.613370458E0,-6.399044876E0,4.984319819E0,1.726718743E0,8.292935367E0
1.623395458E0,-5.968432526E0,4.643440011E0,1.482053698E0,7.705855249E0
1.633421458E0,-5.769434820E0,4.388640572E0,1.495605497E0,7.401579562E0
1.643446458E0,-5.518657681E0,4.198171030E0,1.606996271E0,7.117770692E0
1.653472458E0,-5.070711261E0,3.926201243E0,1.573035789E0,6.603151557E0
1.663497458E0,-4.699297292E0,3.689718207E0,1.611798005E0,6.188320313E0
1.673523458E0,-4.589845017E0,3.448911155E0,1.565221424E0,5.950763274E0
1.683548458E0,-4.577465292E0,3.182099782E0,1.280842967E0,5.720096697E0
1.693574458E0,-4.722172769E0,2.818630425E0,9.844324033E-1,5.586832760E0
1.703599458E0,-5.076494742E0,2.381428263E0,8.196835940E-1,5.666911031E0
1.713625458E0,-5.393833076E0,1.905440351E0,8.177214146E-1,5.778650923E0
1.723650458E0,-5.742338238E0,1.360013244E0,1.222501935E0,6.026491139E0
1.733676250E0,-6.125296365E0,5.600521624E-1,1.132357750E0,6.254210426E0
1.743701250E0,-6.033926604E0,-8.435128981E-1,-4.042880677E0,7.311953804E0
1.753727250E0,-6.862777609E-1,-4.639955655E0,-3.529867260E1,3.560893782E1
1.763752250E0,2.609543582E1,-1.837859753E1,-1.607313746E1,3.573640113E1
1.773778250E0,2.670230430E1,-3.425716654E1,3.893538579E1,5.833121618E1
1.783803250E0,2.004389741E1,-4.719819148E1,1.382981458E1,5.311017674E1
1.793828250E0,2.270401625E0,-3.633633820E1,-5.247215313E0,3.678338573E1
1.803854250E0,-5.178827448E0,-1.310530363E1,-1.123851805E1,1.802424825E1
1.813879250E0,-1.070937135E0,-2.268232600E0,1.039921223E1,1.069744831E1
1.823905250E0,-2.024836694E0,2.086673630E0,3.438937560E0,4.503383397E0
1.833930250E0,-3.585112104E0,6.090047010E0,1.176919234E0,7.164275279E0
1.843956250E0,-4.639511851E0,8.746863928E0,-6.243966776E-1,9.920814987E0
1.853981250E0,-6.258374900E0,1.032355627E1,-5.976953089E0,1.347097022E1
1.864007250E0,-6.504622786E0,1.029770456E1,-5.194015591E0,1.324124748E1
1.874032250E0,-4.008790533E0,9.009626105E0,-7.700783014E-3,9.861228290E0
1.884058250E0,-2.215474050E0,7.712607254E0,4.613381521E-1,8.037752721E0
1.894083250E0,-1.754205626E-1,5.449934771E0,8.682776105E-1,5.521455188E0
1.904109250E0,1.908906873E0,1.260653263E0,1.623894578E0,2.805388689E0
1.914134250E0,3.355916745E0,-2.826386172E0,2.386799954E0,4.994742237E0
1.924160250E0,3.547680860E0,-4.836755392E0,1.751242842E0,6.248767375E0
1.934185250E0,1.429887764E0,-3.456081596E0,-6.711177579E-1,3.799931323E0
1.944211250E0,-2.764653608E0,-7.524559629E-1,-2.217537825E0,3.623116552E0
1.954236250E0,-1.903108189E0,4.769573808E-1,-1.165197467E0,2.281883928E0
1.964262250E0,-7.261417383E-1,1.414567766E0,-1.687793097E0,2.318820676E0
1.974287250E0,1.486620958E-1,1.551195561E0,-1.666550601E0,2.281600095E0
1.984313250E0,1.381582599E0,6.499665517E-1,-1.298617626E0,2.004403836E0
1.994338250E0,2.347987598E0,-3.170062119E-1,-5.358669821E-1,2.429134027E0
2.004364250E0,2.581548634E0,-2.812083882E-1,2.467184405E-1,2.608513273E0
2.014389250E0,2.170792698E0,5.657742476E-1,8.210349586E-1,2.388836504E0
2.024415250E0,1.958877178E0,1.518167564E0,1.325299640E0,2.810418418E0
2.034440250E0,2.027646866E0,2.567506546E0,1.608355603E0,3.645579435E0
2.044466250E0,2.789086783E0,2.991163048E0,2.025628699E0,4.563905464E0
2.054491250E0,4.001960400E0,2.745411590E0,2.987560578E0,5.698990266E0
2.064517250E0,4.468273509E0,2.185661144E0,4.242630334E0,6.537774464E0
2.074542250E0,4.318406741E0,1.179722536E0,4.811675515E0,6.572107980E0
2.084568250E0,4.322457692E0,2.581124711E-1,3.964045592E0,5.870597925E0
2.094593250E0,3.885597593E0,-1.532373959E-1,-3.506740703E0,5.236275462E0
2.104619250E0,2.888323680E0,1.484222138E-1,-7.888664578E0,8.402111143E0
2.114644250E0,2.216695388E0,6.663130277E-1,-3.213789936E0,3.960575368E0
2.124670250E0,1.775780683E0,1.584121233E0,5.852856754E-1,2.450591038E0
2.134695250E0,1.399137841E0,2.336787111E0,2.080138636E0,3.427117950E0
2.144721250E0,1.344515930E0,2.330680863E0,-7.170908332E-2,2.691642355E0
2.154746250E0,1.972732740E0,2.120615548E0,-1.156239533E0,3.118585356E0
2.164772250E0,2.186933352E0,1.380104862E0,-7.927776311E-1,2.704785257E0
2.174797250E0,2.237856607E0,2.361222625E-1,-2.749606383E-1,2.267015498E0
2.184823250E0,2.315818264E0,-7.163967687E-1,-5.429837014E-1,2.484163816E0
2.194848250E0,2.593156527E0,-1.147982680E0,-1.091865782E0,3.038831336E0
2.204873250E0,2.814167537E0,-9.565442544E-1,-9.825865835E-1,3.130493928E0
2.214899250E0,2.911823933E0,-5.526191819E-1,-4.830133420E-1,3.002900009E0
2.224924250E0,2.816601733E0,-2.532049030E-1,-3.296984705E-1,2.847114175E0
2.234950250E0,2.842618042E0,-2.896874356E-1,-5.487122186E-1,2.909550007E0
2.244975250E0,3.324262843E0,-7.709109449E-1,-9.263441165E-1,3.535978020E0
2.255001250E0,4.069044921E0,-1.274343933E0,-9.205891407E-1,4.362174159E0
2.265026250E0,4.675549995E0,-1.802196649E0,-4.800600596E-1,5.033799577E0
2.275052250E0,4.804100447E0,-2.486926067E0,-1.997888339E-1,5.413325959E0
2.285077250E0,4.944885612E0,-2.833544918E0,-5.406329745E-1,5.724784234E0
2.295103250E0,5.142818540E0,-2.700380428E0,-1.263385228E0,5.944474680E0
2.305128250E0,5.484703485E0,-2.220293618E0,-2.185834953E0,6.307895886E0
2.315154250E0,6.014773464E0,-1.405461313E0,-2.804319949E0,6.783585461E0
2.325179250E0,6.536250960E0,-4.095565259E-1,-2.935240277E0,7.176764497E0
2.335205250E0,7.889232928E0,3.233644742E-1,-1.582305818E0,8.052841267E0
2.345230250E0,9.968975269E0,6.401864988E-1,1.657452187E0,1.012607794E1
2.355256250E0,1.077903449E1,9.830034900E-1,5.095925624E0,1.196337488E1
2.365281250E0,1.222355637E1,-5.042054057E-2,6.113233559E0,1.366709542E1
2.375307250E0,1.446211143E1,-1.802422936E0,6.596632817E0,1.599740479E1
2.385332250E0,1.472658801E1,-2.184318624E0,2.271167902E0,1.505994176E1
2.395358250E0,1.632874147E1,-3.142400111E0,-1.784348842E1,2.439041934E1
2.405383250E0,1.304634382E1,-5.181986114E0,-4.386888161E0,1.470730617E1
2.415409250E0,8.535139173E0,-5.143588033E0,1.239264148E0,1.004195570E1
2.425434250E0,4.670541270E0,-4.659836773E0,1.140552038E0,6.695438257E0
2.435460250E0,1.759263175E0,-4.871233499E0,2.961697174E0,5.966202550E0
2.445485250E0,4.922674379E-1,-5.738953870E0,3.848830301E0,6.927583521E0
2.455511250E0,-1.043526265E-1,-7.371623949E0,3.113801379E0,8.002967459E0
2.465536250E0,-6.916148070E-1,-1.025570869E1,2.339665695E0,1.054191289E1
2.475562250E0,-1.490080171E0,-1.303360507E1,2.345915199E0,1.332660940E1
2.485587250E0,-3.010929560E0,-1.427887022E1,1.919004722E0,1.471850572E1
2.495613250E0,-4.887929639E0,-1.323661806E1,1.468239359E0,1.418645976E1
2.505638250E0,-5.613153949E0,-1.019303239E1,7.109282333E-2,1.163660005E1
2.515664250E0,-5.178291843E0,-6.706278051E0,2.464332791E-1,8.476414399E0
2.525689250E0,-4.725142570E0,-4.246834483E0,3.755012895E0,7.379884638E0
2.535715250E0,-3.970701770E0,-2.129274105E0,4.868995185E0,6.633806967E0
2.545740250E0,-3.737694027E0,-2.521377861E-1,2.978478098E0,4.785944200E0
2.555766250E0,-2.890959313E0,1.093155093E0,2.985237479E-1,3.105116783E0
2.565791250E0,-2.354946223E0,1.707001639E0,-2.549140807E-1,2.919693049E0
2.575817250E0,-2.631805453E0,1.853100754E0,4.073719696E-1,3.244431270E0
2.585842250E0,-3.233313205E0,1.955815283E0,1.060462725E0,3.924806861E0
2.595868250E0,-3.861635118E0,2.034653876E0,3.991929940E-1,4.383080792E0
2.605893250E0,-4.429000393E0,1.579610690E0,9.114335704E-1,4.789773019E0
2.615919250E0,-4.150582881E0,7.835853696E-1,1.913344617E0,4.637049914E0
2.625944250E0,-2.894908522E0,1.564200354E-1,2.780194337E0,4.016770237E0
2.635970250E0,-2.472936019E0,-1.492794156E-3,3.225500740E0,4.064390459E0
2.645995250E0,-4.463228824E0,-3.298893821E-1,3.118355191E0,5.454665676E0
2.656021250E0,-7.223083037E0,-5.760057056E-1,2.934431022E0,7.817646485E0
2.666046250E0,-9.317530541E0,-2.361058903E-1,2.990869517E0,9.788637384E0
2.676072250E0,-1.075700452E1,5.473239434E-1,3.046998110E0,1.119361011E1
2.686097250E0,-1.142388648E1,1.539830328E0,2.916056732E0,1.189031735E1
2.696123250E0,-1.189894820E1,2.415963088E0,3.157226603E0,1.254551417E1
2.706148250E0,-1.215668879E1,3.174262174E0,3.557853262E0,1.305830550E1
2.716173250E0,-1.228954922E1,3.641894415E0,3.672278009E0,1.333349319E1
2.726199250E0,-1.261130980E1,3.871743200E0,3.142225279E0,1.356130930E1
2.736224708E0,-1.270958746E1,4.213419399E0,1.860437109E0,1.351842235E1
2.746250708E0,-1.111613466E1,4.900892916E0,2.672532772E-1,1.215148655E1
2.756275708E0,-8.125866237E0,5.064827208E0,3.095094967E-1,9.580082091E0
2.766301708E0,-6.181748309E0,4.760285506E0,2.056069450E0,8.068565661E0
2.776326708E0,-6.289000862E0,5.094852076E0,2.695694177E0,8.530874317E0
2.786352708E0,-5.968739505E0,5.425721451E0,2.227266423E0,8.368095378E0
2.796377708E0,-5.506783741E0,5.341840219E0,1.534156483E0,7.823909522E0
2.806403708E0,-5.231845322E0,5.039380125E0,1.085088859E0,7.344724321E0
2.816428708E0,-5.019865628E0,4.650151445E0,1.145775940E0,6.937994082E0
2.826454708E0,-5.008635466E0,4.238626161E0,1.607579677E0,6.755493570E0
2.836479708E0,-5.117643937E0,3.625901695E0,1.808353182E0,6.527448491E0
2.846505708E0,-4.820279108E0,2.516400712E0,1.661492175E0,5.685764633E0
2.856530708E0,-4.360098558E0,1.276295149E0,1.616062818E0,4.821934028E0
2.866556708E0,-3.740648625E0,-4.437101126E-2,1.387116843E0,3.989801255E0
2.876581708E0,-2.761986693E0,-1.777418488E0,9.904107428E-1,3.430553951E0
2.886607708E0,3.041399986E-2,-4.515054451E0,-1.286724243E0,4.694922894E0
2.896632708E0,8.789198354E0,-1.242130804E1,-1.723124518E1,2.298814284E1
2.906658708E0,2.213670243E1,-2.419028199E1,3.414023159E0,3.296754299E1
2.916683708E0,3.015043778E1,-3.505239723E1,2.109390063E1,5.081999699E1
2.926709708E0,2.731569126E1,-5.033975544E1,7.409204589E0,5.775062146E1
2.936734708E0,9.330295597E0,-3.555326036E1,-1.746859652E1,4.069693604E1
2.946760708E0,-3.812079381E0,-9.585500833E0,-1.250669610E1,1.621207028E1
2.956785708E0,-6.464769334E0,-2.501433009E-1,3.131688597E0,7.187717835E0
2.966811708E0,-8.131137502E0,3.966621875E0,4.631582442E-1,9.058918353E0
2.976836708E0,-9.365709844E0,6.753144654E0,-5.798911804E-1,1.156104482E1
2.986862708E0,-9.329437811E0,7.700228114E0,-3.578675489E0,1.261502442E1
2.996887708E0,-8.595021093E0,6.599345341E0,-4.654264376E0,1.179355432E1
3.006913708E0,-6.357662376E0,4.343020595E0,-2.610598186E0,8.130001333E0
3.016938708E0,-4.492027531E0,1.941576144E0,-1.458830312E0,5.106487554E0
3.026964708E0,-3.079691354E0,-1.396009288E0,-1.953139597E-1,3.386958564E0
3.036989708E0,-2.155023196E0,-4.333163359E0,1.260871364E0,5.001022522E0
3.047015708E0,-2.894651245E0,-5.135451633E0,2.353663929E0,6.347566714E0
3.057040708E0,-4.730100717E0,-3.722572542E0,2.715535242E0,6.603448400E0
3.067066708E0,-5.983866252E0,-1.257291114E0,2.377165643E0,6.560362243E0
3.077091708E0,-6.214085750E0,7.549620795E-1,2.487092713E0,6.735759765E0
3.087117708E0,-5.448564184E0,1.927731691E0,2.605564903E0,6.339713684E0
3.097142708E0,-3.513126155E0,2.763990533E0,2.946513124E0,5.353843352E0
3.107168708E0,-2.066941324E0,3.407142740E0,2.589959854E0,4.752763421E0
3.117193708E0,-1.178066896E0,3.148260775E0,1.024385916E0,3.514079400E0
3.127219708E0,3.444299456E-1,2.176273440E0,6.842866378E-1,2.307172788E0
3.137244708E0,1.044885450E0,1.742253333E0,9.517846209E-1,2.243463003E0
3.147270708E0,1.412894293E0,1.668973687E0,1.167751531E0,2.478989127E0
3.157295708E0,1.660479145E0,1.801341201E0,1.401117270E0,2.822259860E0
3.167321708E0,2.414885008E0,2.307787845E0,1.588387215E0,3.698719817E0
3.177346708E0,3.953027099E0,2.746171144E0,6.474567805E-1,4.856653115E0
3.187372708E0,5.630074621E0,3.116772349E0,-6.086567040E-1,6.463936348E0
3.197397708E0,7.207173933E0,2.745104612E0,-1.707722016E0,7.899067661E0
3.207423708E0,7.625711782E0,1.847882114E0,-1.581815091E0,8.004266829E0
3.217448708E0,7.189122409E0,1.154690021E0,-8.005251919E-1,7.325136902E0
3.227474708E0,6.601943843E0,7.719371313E-1,-9.303558911E-1,6.711714500E0
3.237499708E0,5.345959582E0,1.112305309E0,-2.691329523E0,6.087672918E0
3.247525708E0,3.085980619E0,1.954565733E0,-3.650812588E0,5.164497666E0
3.257550708E0,1.135351817E0,2.299381303E0,-1.871195548E0,3.174515853E0
3.267576708E0,7.933087776E-1,2.172113146E0,8.721676169E-1,2.471455176E0
3.277601708E0,1.956680525E0,1.840573094E0,1.679733149E0,3.168250534E0
3.287627708E0,3.233346534E0,1.682591268E0,3.357529700E-1,3.660378838E0
3.297652708E0,4.167486597E0,1.611618349E0,-1.038642963E0,4.587378057E0
3.307678708E0,4.913469107E0,1.299025031E0,-1.394577305E0,5.270150905E0
3.317703708E0,5.604928086E0,7.056063169E-1,-4.883307999E-1,5.670235100E0
3.327729708E0,6.013612207E0,2.120785117E-1,6.353730708E-1,6.050802262E0
3.337754708E0,5.876525990E0,-4.415291011E-2,7.226334089E-1,5.920954842E0
3.347780708E0,5.010179130E0,-2.922046620E-1,1.188480203E-1,5.020099933E0
3.357805708E0,3.864492652E0,-5.618846798E-1,-6.037437272E-1,3.951521775E0
3.367831708E0,2.944224232E0,-8.136804038E-1,-8.881359243E-1,3.181087478E0
3.377856708E0,2.956279728E0,-1.068850556E0,-8.003468518E-1,3.243853638E0
3.387882708E0,3.888158673E0,-1.083990167E0,-4.403000164E-1,4.060378880E0
3.397907708E0,5.302596631E0,-8.266922128E-1,-4.044671094E-1,5.381871857E0
3.407933708E0,6.829910409E0,-2.390043551E-1,-1.336087753E0,6.963471100E0
3.417958708E0,8.142992731E0,5.051853991E-1,-2.484677812E0,8.528608723E0
3.427984708E0,8.912515547E0,1.437778289E0,-2.077621556E0,9.263727712E0
3.438009708E0,9.100739173E0,2.348576267E0,5.312995027E-1,9.413901590E0
3.448035708E0,9.413830674E0,2.215729281E0,3.762155854E0,1.037706514E1
3.458060708E0,1.154378247E1,7.443908983E-1,5.886217750E0,1.297923692E1
3.468085708E0,1.510083671E1,-1.698341328E0,7.791542326E0,1.707711230E1
3.478111708E0,1.530302992E1,-2.192940928E0,7.196365355E0,1.705225466E1
3.488136708E0,1.418803138E1,-2.225574238E0,-6.902129955E0,1.593401435E1
3.498162708E0,1.172151912E1,-4.700162680E0,-1.155176275E1,1.711516177E1
3.508187708E0,7.625768500E0,-6.620371928E0,-2.718120881E0,1.045800415E1
3.518213708E0,4.736462780E0,-7.885142800E0,2.163627082E0,9.449382985E0
3.528238708E0,1.886631905E0,-9.611175957E0,3.997578204E0,1.057897513E1
3.538264708E0,7.261043161E-2,-1.178730848E1,4.898532395E0,1.276485539E1
3.548289708E0,-8.182292452E-1,-1.366701523E1,5.788591468E0,1.486487792E1
3.558315708E0,-1.729507864E0,-1.508877274E1,4.846270566E0,1.594203872E1
3.568340708E0,-2.524122837E0,-1.576198957E1,2.005002061E0,1.608824243E1
3.578366708E0,-3.512827947E0,-1.476493990E1,-5.771809959E-1,1.518803965E1
3.588391708E0,-3.810060337E0,-1.155815259E1,-2.250081673E0,1.237619968E1
3.598417708E0,-3.706944104E0,-8.117024077E0,-3.756807405E0,9.681999605E0
3.608442708E0,-4.794242041E0,-5.742913020E0,-1.642053691E0,7.659121818E0
3.618468708E0,-5.963693358E0,-4.303930205E0,1.454434083E0,7.496988207E0
3.628493708E0,-6.295727499E0,-2.862655281E0,2.633373091E0,7.400380654E0
3.638519708E0,-6.718440260E0,-1.338633485E0,2.221596377E0,7.201726848E0
3.648544708E0,-6.710992076E0,1.500635272E-1,8.618035734E-1,6.767764706E0
3.658570708E0,-6.384368949E0,1.398242925E0,4.550753456E-1,6.551514613E0
3.668595708E0,-5.510034208E0,2.593898538E0,5.872861540E-1,6.118307905E0
3.678621708E0,-4.606773291E0,3.759602959E0,1.263232561E-1,5.947514786E0
3.688646708E0,-3.514042121E0,4.635887747E0,-3.682284057E-1,5.828854037E0
3.698672708E0,-2.583945408E0,4.919930865E0,-1.261396627E-1,5.558633358E0
3.708697708E0,-2.656189511E0,4.311051528E0,6.092845122E-1,5.100170156E0
3.718723708E0,-3.732927377E0,3.334249011E0,1.839248700E0,5.332429001E0
3.728748708E0,-5.028815961E0,2.374838451E0,2.897743253E0,6.271025721E0
3.738774125E0,-5.709689140E0,1.419742552E0,2.898305755E0,6.558688531E0
3.748799125E0,-6.384017531E0,7.417064416E-1,2.363888955E0,6.847903276E0
3.758825125E0,-7.551453313E0,5.883392376E-1,1.682508237E0,7.758957672E0
3.768850125E0,-9.188888288E0,8.521042120E-1,1.259487913E0,9.313863826E0
3.778876125E0,-1.048229298E1,1.289313975E0,1.367995717E0,1.064951684E1
3.788901125E0,-1.161090149E1,1.867964961E0,1.501579013E0,1.185567653E1
3.798927125E0,-1.265460960E1,2.434211664E0,1.766146810E0,1.300706751E1
3.808952125E0,-1.309572823E1,2.908057156E0,2.322890764E0,1.361435697E1
3.818978125E0,-1.260112512E1,3.344733653E0,2.815771136E0,1.333807200E1
3.829003125E0,-1.162025119E1,3.514240342E0,2.533225490E0,1.240150613E1
3.839029125E0,-1.032831708E1,3.104430047E0,1.561349251E0,1.089722125E1
3.849054125E0,-8.226530147E0,2.440603840E0,4.844173316E-1,8.594591643E0
3.859080125E0,-6.139429085E0,2.465396619E0,-5.862054424E-1,6.641867719E0
3.869105125E0,-4.754264043E0,3.039244117E0,-1.596298059E0,5.864145197E0
3.879131125E0,-3.621861269E0,3.409260601E0,-9.627498313E-1,5.066342284E0
3.889156125E0,-3.862036822E0,3.278982298E0,4.969513134E-1,5.090580903E0
3.899182125E0,-4.622555510E0,2.892464386E0,1.640229360E0,5.694270983E0
3.909207125E0,-5.206654347E0,2.507279640E0,2.082615663E0,6.142718346E0
3.919233125E0,-5.438592927E0,2.234291852E0,1.974649165E0,6.202386027E0
3.929258125E0,-5.495186373E0,1.913490797E0,1.689725456E0,6.059182488E0
3.939284125E0,-5.300201612E0,1.343294300E0,1.583050607E0,5.692330448E0
3.949309125E0,-4.758887436E0,4.053383446E-1,5.284444535E-1,4.805264025E0
3.959335125E0,-2.160671314E0,-2.416655399E0,-7.331677526E0,8.016371947E0
3.969360125E0,9.940173054E0,-1.055932302E1,-2.002864085E1,2.472757160E1
3.979386125E0,2.770574030E1,-1.841151501E1,2.141423216E1,3.956211912E1
3.989411125E0,4.098112774E1,-3.502080589E1,1.985627429E1,5.744720450E1
3.999437125E0,2.634061659E1,-4.517866611E1,2.019327886E0,5.233562495E1
4.009462125E0,3.777234069E0,-2.745587708E1,-1.257599964E1,3.043433013E1
4.019488125E0,-4.272728292E0,-8.279173799E0,-6.485534551E0,1.135178771E1
4.029513125E0,-8.091417950E0,-2.025379023E0,-7.378618973E0,1.113630202E1
4.039539125E0,-1.039418245E1,1.146852413E0,-6.873026608E0,1.251370425E1
4.049564125E0,-1.051939824E1,2.366339523E0,-6.303435883E0,1.248961993E1
4.059590125E0,-5.806130776E0,1.099511016E0,-4.002074128E-1,5.922857844E0
4.069615125E0,-3.443648369E0,6.740652663E-1,2.649852884E-1,3.518990661E0
4.079641125E0,-2.480913083E0,-1.047821045E-3,1.666000378E-1,2.486500833E0
4.089666125E0,-1.659970729E0,-1.633752399E0,1.132108220E0,2.589656106E0
4.099692125E0,-1.828545080E0,-2.723984469E0,2.830526585E0,4.333076187E0
4.109717125E0,-3.807817930E0,-1.944641254E0,4.156678603E0,5.963143802E0
4.119743125E0,-5.579428963E0,-1.487081426E-1,3.475193220E0,6.574884758E0
4.129768125E0,-6.091941508E0,1.217121912E0,2.696210194E0,6.772199532E0
4.139794125E0,-6.726282545E0,2.275417074E0,2.908636615E0,7.673367364E0
4.149819125E0,-6.501131998E0,3.084008061E0,3.281021807E0,7.908282182E0
4.159845125E0,-4.607668207E0,3.717860271E0,3.416254456E0,6.835487240E0
4.169870125E0,-2.122132608E0,4.032004271E0,3.298736531E0,5.625137149E0
4.179896125E0,-5.654444647E-1,3.985818284E0,2.052525891E0,4.518776092E0
4.189921125E0,4.586035556E-1,3.534601516E0,1.277413137E0,3.786226277E0
4.199947125E0,1.594772521E0,2.649871010E0,9.967883009E-1,3.249415744E0
4.209972125E0,1.881144731E0,2.070075139E0,7.926258228E-1,2.907261990E0
4.219998125E0,2.358751738E0,1.984957221E0,8.213431069E-1,3.190355690E0
4.230023125E0,2.908153635E0,2.145681977E0,1.094707528E0,3.776200906E0
4.240049125E0,3.419499076E0,2.442412384E0,1.363004095E0,4.417706684E0
4.250074125E0,4.454452738E0,2.773391102E0,1.701860767E0,5.516355452E0
4.260100125E0,6.300425152E0,2.952390161E0,1.441362486E0,7.105595722E0
4.270125125E0,8.229659577E0,2.785047526E0,1.223910456E0,8.773924053E0
4.280151125E0,9.666483600E0,2.182066861E0,-4.811561202E-1,9.921382574E0
4.290176125E0,9.601815734E0,1.438886336E0,-5.167645817E0,1.099862821E1
4.300202125E0,7.632410352E0,1.130981900E0,-6.998780336E0,1.041708856E1
4.310227125E0,5.072582955E0,1.038918074E0,-3.764643259E0,6.401795644E0
4.320253125E0,2.771229386E0,9.609834605E-1,-2.897624262E-1,2.947399496E0
4.330278125E0,1.049543196E0,9.865287763E-1,1.196863502E0,1.872768589E0
4.340304125E0,7.258683810E-1,1.014946244E0,1.929853499E0,2.298115601E0
4.350329125E0,2.537346900E0,8.865998608E-1,2.323146580E0,3.552632634E0
4.360355125E0,4.569721824E0,8.155193532E-1,1.622086765E0,4.917173460E0
4.370380125E0,4.976274050E0,6.253778404E-1,-2.563181068E-1,5.021961752E0
4.380406125E0,4.881254165E0,1.698136675E-1,-1.082427352E0,5.002712052E0
4.390431125E0,4.772091911E0,-3.499652123E-1,-5.643656534E-1,4.818074870E0
4.400457125E0,4.626631604E0,-7.850056583E-1,2.174409932E-1,4.697790382E0
4.410482125E0,4.699456921E0,-1.047709363E0,1.449419510E-1,4.817011359E0
4.420508125E0,5.178716351E0,-1.142337778E0,-5.084346968E-1,5.327527051E0
4.430533125E0,5.844232988E0,-9.950043154E-1,-8.200164467E-1,5.984773995E0
4.440559125E0,6.340304917E0,-4.910368913E-1,-6.782283376E-1,6.395355920E0
4.450584125E0,6.766112609E0,4.333190256E-1,-1.784266162E-1,6.782321230E0
4.460610125E0,7.396594484E0,1.515484861E0,2.438516968E-1,7.554188770E0
4.470635125E0,8.291789752E0,2.614527515E0,6.537736007E-1,8.718770059E0
4.480661125E0,9.281757275E0,3.472388311E0,1.277776834E0,9.992057463E0
4.490686125E0,1.051490290E1,3.665639373E0,2.312486082E0,1.137311245E1
4.500712125E0,1.185267684E1,3.199146754E0,4.106041716E0,1.294527199E1
4.510737125E0,1.369841829E1,1.675799142E0,5.079152302E0,1.470553483E1
4.520763125E0,1.582803504E1,-8.683811063E-1,2.987438371E0,1.613088860E1
4.530788125E0,1.533825355E1,-2.823663123E0,-5.603078027E0,1.657195157E1
4.540814125E0,9.454133778E0,-4.056031650E0,-7.582635344E0,1.277999988E1
4.550839125E0,6.312838790E0,-5.815209163E0,-1.165134317E0,8.661762476E0
4.560865125E0,3.787994407E0,-7.172071343E0,2.084155819E0,8.374438158E0
4.570890125E0,1.501347463E0,-8.144154573E0,3.579229220E0,9.021761454E0
4.580916125E0,5.265201348E-1,-9.486190553E0,4.569922383E0,1.054273329E1
4.590941125E0,3.195061889E-1,-1.166200732E1,4.949073388E0,1.267271977E1
4.600967125E0,1.131804603E-1,-1.418746537E1,4.397569855E0,1.485380773E1
4.610992125E0,-3.135990393E-1,-1.629614558E1,2.811837130E0,1.653992543E1
4.621018125E0,-1.141287910E0,-1.750333600E1,-3.459834047E-3,1.754050516E1
4.631043125E0,-2.405713212E0,-1.700724068E1,-3.273222790E0,1.748564209E1
4.641069125E0,-3.258098967E0,-1.353902904E1,-3.483382246E0,1.435459745E1
4.651094125E0,-4.003868054E0,-9.455956939E0,-7.360931146E-1,1.029504318E1
4.661120125E0,-4.700946792E0,-6.507289701E0,3.325917313E0,8.689386973E0
4.671145125E0,-4.989709198E0,-4.361552176E0,5.569996235E0,8.657089194E0
4.681171125E0,-5.877724670E0,-2.405725783E0,5.437541013E0,8.360742557E0
4.691196125E0,-5.691734680E0,-3.777827561E-1,2.004027330E0,6.046047388E0
4.701222125E0,-4.641339691E0,1.249150035E0,-1.885228280E0,5.162992892E0
4.711247125E0,-4.603628073E0,1.938113422E0,-1.490641796E0,5.212646932E0
4.721273125E0,-4.887746036E0,2.307008411E0,3.305430780E-2,5.404946041E0
4.731298125E0,-4.846086379E0,2.641817640E0,5.632225227E-1,5.548060314E0
4.741324875E0,-5.353883144E0,3.059871340E0,1.197030477E-1,6.167755358E0
4.751349875E0,-5.374189939E0,3.475301979E0,6.937779844E-1,6.437466057E0
4.761375875E0,-4.964336375E0,3.601022378E0,1.790992799E0,6.389025983E0
4.771400875E0,-4.720112795E0,3.304186136E0,2.501636492E0,6.281345076E0
4.781426875E0,-5.265428805E0,2.587542615E0,2.712538544E0,6.463588990E0
4.791451875E0,-6.691926060E0,1.786689833E0,2.173392516E0,7.259322970E0
4.801477875E0,-7.679958740E0,1.356945795E0,1.196353186E0,7.890141259E0
4.811502875E0,-8.333258205E0,1.237923381E0,5.127563739E-1,8.440294172E0
4.821528875E0,-8.921161825E0,1.546077493E0,2.590363312E-1,9.057846529E0
4.831553875E0,-9.660042892E0,1.935494455E0,-2.589672244E-1,9.855436646E0
4.841579875E0,-1.037815406E1,2.306747040E0,-6.634390482E-1,1.065210379E1
4.851604875E0,-1.098375370E1,2.638344394E0,3.967008376E-1,1.130314461E1
4.861630875E0,-1.132475396E1,2.923360489E0,2.226722631E0,1.190606494E1
4.871655875E0,-1.134833110E1,3.126883355E0,3.205081093E0,1.219977718E1
4.881681875E0,-1.118995810E1,3.156887172E0,2.706746292E0,1.193765364E1
4.891706875E0,-1.109483676E1,2.937505488E0,1.532551714E0,1.157899201E1
4.901732875E0,-1.122210492E1,2.379194627E0,5.852991971E-1,1.148646077E1
4.911757875E0,-1.089200387E1,1.958350051E0,-4.316304959E-2,1.106674054E1
4.921783875E0,-9.647290699E0,1.961423348E0,-3.196310270E-1,9.849850932E0
4.931808875E0,-7.751528075E0,2.057050467E0,-8.700773835E-2,8.020300148E0
4.941834875E0,-6.390024961E0,1.975994609E0,5.266539995E-1,6.709272548E0
4.951859875E0,-5.738286118E0,1.906958288E0,1.166316040E0,6.158304197E0
4.961885875E0,-5.325578527E0,1.958790346E0,1.370943444E0,5.837647831E0
4.971910875E0,-4.799146101E0,1.853054561E0,1.035233159E0,5.247601566E0
4.981936875E0,-4.302541491E0,1.336009839E0,8.477959836E-1,4.584271327E0
4.991961875E0,-4.045167523E0,3.964991087E-1,9.479102558E-1,4.173622609E0
5.001987875E0,-3.796415275E0,-8.151755369E-1,8.357201676E-1,3.971864586E0
5.012012875E0,-2.073723802E0,-2.853493279E0,7.637267634E-2,3.528255530E0
5.022038875E0,4.004645149E0,-8.170254790E0,-1.230855735E1,1.530656167E1
5.032063875E0,2.018836573E1,-1.685773440E1,1.115473184E0,2.632484758E1
5.042089875E0,3.925088518E1,-2.975140975E1,2.453566766E1,5.502524291E1
5.052114875E0,3.699646078E1,-4.664707971E1,7.786526585E0,6.004430158E1
5.062140875E0,1.549633770E1,-3.833108541E1,-1.726272308E1,4.480413149E1
5.072165875E0,1.340437351E0,-1.429335260E1,-7.228640231E0,1.607326788E1
5.082191875E0,-4.481385013E0,-3.548303297E0,-2.178950587E0,6.117278282E0
5.092216875E0,-9.672989212E0,2.861995715E0,-8.718472188E0,1.333302280E1
5.102242875E0,-1.088553685E1,6.478159457E0,-1.033199381E1,1.634660694E1
5.112267875E0,-8.798037590E0,6.506271116E0,-3.638686633E0,1.153156840E1
5.122293875E0,-6.367855242E0,6.290694800E0,-1.019812297E0,9.009019846E0
5.132318875E0,-3.999439665E0,5.278779168E0,-1.476193034E0,6.785290930E0
5.142344875E0,-1.909098369E0,2.777453747E0,-1.351253238E0,3.631086781E0
5.152369875E0,-4.142541790E-1,-6.378826958E-1,-5.475288883E-1,9.371706045E-1
5.162395875E0,-4.384745157E-1,-3.570116335E0,1.494251136E0,3.894968164E0
5.172420875E0,-2.626528925E0,-4.631742656E0,3.488162929E0,6.365451661E0
5.182446875E0,-5.356950009E0,-3.365256795E0,4.096780311E0,7.536940733E0
5.192471875E0,-7.326220905E0,-9.076545149E-1,5.151561297E0,9.001996071E0
5.202497875E0,-8.383102795E0,7.705022246E-1,7.699178538E0,1.140821793E1
5.212522875E0,-7.393786651E0,1.759687391E0,9.499619268E0,1.216582702E1
5.222548875E0,-3.230102499E0,2.078241361E0,7.756479498E0,8.655381187E0
5.232573875E0,-8.184812602E-1,2.174468404E0,3.111112829E0,3.882943143E0
5.242599875E0,2.367847520E-1,2.246437104E0,9.208693685E-1,2.439374320E0
5.252624875E0,1.328597324E0,1.810541210E0,6.678145927E-1,2.342905601E0
5.262650875E0,1.779203058E0,1.567853694E0,9.212159622E-1,2.544084821E0
5.272675875E0,2.013576418E0,1.624749441E0,1.240117988E0,2.869179911E0
5.282701875E0,2.362321755E0,1.960646253E0,1.815849313E0,3.566792190E0
5.292726875E0,2.900642887E0,2.576292572E0,2.309302858E0,4.514852408E0
5.302752875E0,4.419883122E0,3.186641314E0,-4.531738311E-1,5.467670089E0
5.312777875E0,7.706845407E0,3.848870062E0,-1.065590032E1,1.370246250E1
5.322803875E0,9.795566148E0,4.582302693E0,-1.400412125E1,1.769367192E1
5.332828875E0,9.042150072E0,4.344059061E0,-4.789229808E0,1.111611664E1
5.342854875E0,7.420714248E0,3.102163666E0,7.197763132E-1,8.075177850E0
5.352879875E0,5.005348161E0,2.120686884E0,-1.608618143E0,5.669080649E0
5.362905875E0,1.981520666E0,1.858360325E0,-2.109959582E0,3.439746602E0
5.372930875E0,-1.081158945E-1,1.366311865E0,1.196872419E-1,1.375798748E0
5.382956875E0,-1.175762801E0,6.933949918E-1,2.275870233E0,2.653827443E0
5.392981875E0,-7.537943906E-1,-1.642067724E-1,3.020868073E0,3.117821958E0
5.403007875E0,1.693998601E0,-7.857090783E-1,2.197877732E0,2.884031300E0
5.413032875E0,4.171968195E0,-4.193190372E-1,3.535021931E-1,4.207862982E0
5.423058875E0,4.582871042E0,2.828076017E-1,-1.034576078E0,4.706701052E0
5.433083875E0,4.208209530E0,2.080205441E-1,-4.616249581E-1,4.238560793E0
5.443109875E0,4.209504396E0,-9.470811206E-1,4.603458796E-1,4.339217468E0
5.453134875E0,4.794596967E0,-2.190771026E0,2.824250476E-1,5.278958389E0
5.463160875E0,5.341169543E0,-2.525905945E0,-2.630065906E-1,5.914174955E0
5.473185875E0,5.723745847E0,-2.092739532E0,-9.967514634E-2,6.095142361E0
5.483211875E0,6.230633955E0,-1.427100688E0,5.630788274E-1,6.416733875E0
5.493236875E0,6.378552139E0,-6.790973800E-1,1.252608079E0,6.535757618E0
5.503262875E0,6.145792025E0,9.639193475E-2,1.566027024E0,6.342908770E0
5.513287875E0,6.140271084E0,8.911466557E-1,1.586727337E0,6.404277867E0
5.523313875E0,6.830165348E0,1.727072207E0,1.337342420E0,7.170942883E0
5.533338875E0,7.966654741E0,2.594234169E0,1.037473227E0,8.442392396E0
5.543364875E0,9.216500595E0,3.391167562E0,1.333190312E0,9.910665823E0
5.553389875E0,1.032986074E1,3.788836699E0,2.451661509E0,1.127261951E1
5.563415875E0,1.071527879E1,3.867433217E0,4.148369710E0,1.212366325E1
5.573440875E0,1.097503316E1,3.616991708E0,5.832412841E0,1.294415009E1
5.583466875E0,1.315216556E1,1.682191318E0,8.170102762E0,1.557433163E1
5.593491875E0,1.519222401E1,-4.945896596E-1,8.820636494E0,1.757418327E1
5.603517875E0,1.547144961E1,-2.916289451E0,-2.017041478E0,1.587258497E1
5.613542875E0,1.379066279E1,-6.016570898E0,-1.707678396E1,2.275957065E1
5.623568875E0,8.608998277E0,-8.101379852E0,-6.204969356E0,1.335098691E1
5.633594875E0,4.724937918E0,-9.221360800E0,1.355112108E0,1.044963455E1
5.643619875E0,8.412237132E-1,-1.022105458E1,3.868606169E0,1.096100943E1
5.653645875E0,-2.323766531E0,-1.136332336E1,4.550370464E0,1.245916852E1
5.663670875E0,-3.943556656E0,-1.264163229E1,4.426335817E0,1.396262708E1
5.673696875E0,-4.493199897E0,-1.347859456E1,3.550057461E0,1.464459848E1
5.683721875E0,-4.056823070E0,-1.426686705E1,3.600276127E-1,1.483680993E1
5.693747875E0,-3.132773255E0,-1.446327152E1,-3.786392562E0,1.527538084E1
5.703772875E0,-1.756115912E0,-1.205472270E1,-4.548278330E0,1.300335027E1
5.713798875E0,-2.153669858E0,-9.015936420E0,-3.042919677E0,9.756267911E0
5.723823875E0,-3.617873468E0,-7.075270688E0,-2.419303018E-1,7.950282637E0
5.733849875E0,-4.651592199E0,-6.018597543E0,2.683426427E0,8.066077346E0
5.743874833E0,-5.526282451E0,-4.721077001E0,4.346006768E0,8.468538280E0
5.753900833E0,-6.352251363E0,-3.128227045E0,4.582533073E0,8.434246332E0
5.763925833E0,-6.041333857E0,-1.448402095E0,3.212015891E0,6.993756464E0
5.773951833E0,-4.843827015E0,9.907931507E-2,1.336188545E-1,4.846682459E0
5.783976833E0,-3.684623528E0,1.210000588E0,-1.960201280E0,4.345450612E0
5.794002833E0,-3.306234416E0,1.804719138E0,-2.157074107E0,4.340641183E0
5.804027833E0,-3.786800113E0,1.954586198E0,-1.091314974E0,4.399003373E0
5.814053833E0,-4.281147698E0,2.058709906E0,6.688746929E-2,4.750893182E0
5.824078833E0,-3.557484010E0,2.647788817E0,1.271855943E0,4.613468938E0
5.834104833E0,-2.893315741E0,3.035979617E0,1.426047020E0,4.429679256E0
5.844129833E0,-3.586891996E0,2.985106502E0,1.135456774E0,4.802698940E0
5.854155833E0,-5.734191898E0,2.468215562E0,1.591444870E0,6.442494979E0
5.864180833E0,-7.366814615E0,1.814796814E0,1.895764378E0,7.820317616E0
5.874206833E0,-8.453314406E0,1.238060791E0,1.872037547E0,8.746190231E0
5.884231833E0,-1.020866550E1,1.009275615E0,1.470202854E0,1.036325166E1
5.894257833E0,-1.202602457E1,1.284351443E0,1.194818292E0,1.215328829E1
5.904282833E0,-1.336603565E1,1.876331157E0,1.252422722E0,1.355507619E1
5.914308833E0,-1.398799931E1,2.804028173E0,1.198181611E0,1.431650578E1
5.924333833E0,-1.440795803E1,3.866472520E0,6.736647320E-1,1.493293971E1
5.934359833E0,-1.463914758E1,4.746180852E0,-2.377553898E-1,1.539114688E1
5.944384833E0,-1.426939305E1,5.188191179E0,-1.260416451E0,1.523553594E1
5.954410833E0,-1.246558082E1,4.721321999E0,-1.740996181E0,1.344294068E1
5.964435833E0,-9.588759486E0,3.950840825E0,-1.469632750E0,1.047441035E1
5.974461833E0,-8.448964663E0,3.776539419E0,-1.047042781E0,9.313621875E0
5.984486833E0,-7.866941587E0,3.714599279E0,-9.670838606E-1,8.753414702E0
5.994512833E0,-7.107246771E0,3.383766156E0,-1.151011537E0,7.955354023E0
6.004537833E0,-6.374108255E0,2.859954452E0,-1.168998742E0,7.083442212E0
6.014563833E0,-5.431896111E0,2.274786159E0,-5.945483959E-1,5.918921796E0
6.024588833E0,-4.584762032E0,1.644828195E0,3.972487217E-1,4.887055272E0
6.034614833E0,-3.698130012E0,7.702999109E-1,1.515080819E0,4.070011968E0
6.044639833E0,-2.705914818E0,-6.485702366E-1,2.578154910E0,3.793349588E0
6.054665833E0,-1.100305653E0,-2.668256410E0,3.113863360E0,4.245751974E0
6.064690833E0,1.355077025E0,-5.186545773E0,2.994114722E0,6.140131412E0
6.074716833E0,5.109456081E0,-7.847084443E0,1.976964662E0,9.570353441E0
6.084741833E0,1.296987393E1,-1.368844645E1,-6.369050413E0,1.990366798E1
6.094767833E0,2.334539441E1,-1.985189590E1,5.278632402E0,3.109612791E1
6.104792833E0,3.819245494E1,-3.287973561E1,1.817115001E1,5.357173995E1
6.114818833E0,3.807301504E1,-4.581199440E1,9.213762344E0,6.027592158E1
6.124843833E0,1.134304990E1,-2.535120456E1,-1.613874088E1,3.212175759E1
6.134869833E0,-1.305576836E0,-6.008999923E0,-2.298224256E1,2.379067220E1
6.144894833E0,-9.358428306E0,-7.414655364E-1,-2.034984478E1,2.241084858E1
6.154920833E0,-1.421147989E1,4.814275187E0,-2.019578936E1,2.515975584E1
6.164945833E0,-8.640848646E0,6.873574492E0,8.696020049E-1,1.107549093E1
6.174971833E0,-6.630385870E0,6.991840861E0,1.374682739E0,9.733324614E0
6.184996833E0,-6.423783860E0,7.609743036E0,-3.077376442E-1,9.963327286E0
6.195022833E0,-6.376180508E0,7.422274286E0,4.998720342E-1,9.797739816E0
6.205047833E0,-5.406973523E0,5.739643841E0,2.686507909E0,8.330438095E0
6.215073833E0,-3.850705503E0,1.939483425E0,4.992920489E0,6.596876824E0
6.225098833E0,-2.783626945E0,-2.301938875E0,5.919859121E0,6.934856420E0
6.235124833E0,-3.131995283E0,-5.358332875E0,7.138603050E0,9.459428057E0
6.245149833E0,-5.303874832E0,-6.404285735E0,8.700844586E0,1.203539200E1
6.255175833E0,-7.596143582E0,-4.400629118E0,9.127084973E0,1.266375197E1
6.265200833E0,-7.378121375E0,-8.114818507E-1,6.860895390E0,1.010777242E1
6.275226833E0,-5.401529766E0,1.396151376E0,3.648328691E0,6.666038157E0
6.285251833E0,-3.784768791E0,2.770196768E0,1.767726728E0,5.012317100E0
6.295277833E0,-2.368411776E0,3.642595496E0,6.214011490E-1,4.389079138E0
6.305302833E0,-1.201998673E0,3.902783729E0,-4.879448837E-1,4.112737756E0
6.315328833E0,-1.689463793E-1,3.340673347E0,-8.401406626E-1,3.448837140E0
6.325353833E0,1.002387448E0,2.205342287E0,-3.900556963E-1,2.453662293E0
6.335379833E0,1.805878494E0,1.325584838E0,-8.231125474E-3,2.240187504E0
6.345404833E0,2.101341371E0,1.002270650E0,-3.733336828E-1,2.357871933E0
6.355430833E0,3.974879313E0,1.096896141E0,-5.482446460E0,6.860033956E0
6.365455833E0,5.301445899E0,1.336902124E0,-8.961642684E0,1.049779384E1
6.375481833E0,5.272555976E0,1.563392853E0,-5.973935341E0,8.119848963E0
6.385506833E0,5.519790287E0,1.898264648E0,-2.127945617E0,6.212861340E0
6.395532833E0,5.137492311E0,1.812415243E0,2.244837306E0,5.892195753E0
6.405557833E0,3.938824212E0,1.170082231E0,3.899545541E0,5.664793379E0
6.415583833E0,2.314457033E0,1.144117670E0,1.978572793E0,3.252762963E0
6.425609833E0,5.476384505E-1,1.223796508E0,-7.181586809E-1,1.520966028E0
6.435634833E0,-7.488246227E-1,9.793109733E-1,-1.685313293E0,2.088077870E0
6.445660833E0,-1.214058555E0,8.376621741E-1,-5.913107926E-1,1.589108098E0
6.455685833E0,-1.054190855E-2,8.900625819E-1,3.231313165E-1,9.469616567E-1
6.465711833E0,2.652523307E0,9.282729667E-1,1.665491670E-1,2.815192573E0
6.475736833E0,4.448033665E0,1.351231311E0,-6.856638032E-1,4.699038667E0
6.485762833E0,6.002193180E0,1.711226252E0,-2.243803225E-1,6.245395486E0
6.495787833E0,7.706641924E0,1.395590043E0,1.057696554E0,7.903083153E0
6.505813833E0,8.906125710E0,5.904863352E-1,2.335684326E0,9.226221900E0
6.515838833E0,8.777234366E0,1.258572239E-1,3.184436329E0,9.337896866E0
6.525864833E0,8.167821178E0,5.310236603E-1,2.650529991E0,8.603522428E0
6.535889833E0,7.551270880E0,1.191139809E0,8.819963479E-1,7.695350772E0
6.545915833E0,6.290702401E0,1.421923563E0,-6.982424797E-1,6.487090710E0
6.555940833E0,5.696972616E0,1.318754121E0,-7.327344739E-1,5.893344486E0
6.565966833E0,5.756002597E0,1.267386916E0,8.326785922E-2,5.894469359E0
6.575991833E0,6.078622720E0,1.415437247E0,9.689776276E-1,6.316014124E0
6.586017833E0,6.554751551E0,1.760827013E0,1.722492083E0,7.002303809E0
6.596042833E0,7.098466008E0,2.039955547E0,2.248685943E0,7.720506898E0
6.606068833E0,8.047918174E0,2.019637057E0,2.880736041E0,8.783311501E0
6.616093833E0,9.414888436E0,1.553001181E0,3.854239560E0,1.029111751E1
6.626119833E0,1.040122250E1,1.072548920E0,5.048715205E0,1.161143040E1
6.636144833E0,1.133301257E1,-3.636851192E-2,5.557303684E0,1.262228667E1
6.646170833E0,1.293315692E1,-2.158356401E0,5.102166358E0,1.406972466E1
6.656195833E0,1.476820966E1,-4.729449044E0,-5.341496549E-1,1.551621799E1
6.666221833E0,1.316023588E1,-6.975935265E0,-1.339084890E1,2.002923652E1
6.676246833E0,6.543889763E0,-8.740442516E0,-8.189458215E0,1.364862830E1
6.686272833E0,2.316274932E0,-9.570676387E0,-1.606604946E0,9.977181742E0
6.696297833E0,-1.015065089E0,-9.703587107E0,9.183935112E-1,9.799663592E0
6.706323833E0,-3.668218288E0,-9.903770628E0,4.228087140E0,1.137616890E1
6.716348833E0,-4.637212434E0,-1.046533605E1,5.612561041E0,1.274864068E1
6.726374833E0,-4.661347986E0,-1.168657966E1,4.504547004E0,1.336395349E1
6.736398958E0,-5.003295203E0,-1.269633300E1,2.695721367E0,1.391031086E1
6.746424958E0,-6.030777878E0,-1.296982131E1,-7.965322014E-2,1.430359714E1
6.756449958E0,-6.187038285E0,-1.187308713E1,-2.317436335E0,1.358749984E1
6.766475958E0,-4.716529621E0,-9.602781694E0,-2.695292181E0,1.103284496E1
6.776500958E0,-4.090220904E0,-6.841429424E0,-2.344508359E0,8.308536758E0
6.786526958E0,-4.517941513E0,-4.667310099E0,-7.581938356E-1,6.539911083E0
6.796551958E0,-4.897555617E0,-3.449223981E0,4.548379121E-1,6.007501529E0
6.806577958E0,-5.188067218E0,-2.576952723E0,7.336834770E-1,5.839093957E0
6.816602958E0,-5.323102232E0,-1.543872508E0,1.745673369E0,5.810880760E0
6.826628958E0,-5.599146944E0,-4.597946334E-1,3.350722371E0,6.541345275E0
6.836653958E0,-5.362436451E0,7.622863019E-1,3.769043289E0,6.598673534E0
6.846679958E0,-4.163535633E0,2.024978489E0,1.225979274E0,4.789425021E0
6.856704958E0,-2.495950075E0,3.152698227E0,-2.389013271E0,4.677248903E0
6.866730958E0,-2.089915327E0,3.690338597E0,-3.079701587E0,5.241269588E0
6.876755958E0,-2.004516742E0,3.806269587E0,-1.454562721E0,4.541093288E0
6.886781958E0,-2.319695699E0,3.856715271E0,-7.992736319E-2,4.501291948E0
6.896806958E0,-3.765023913E0,3.732678870E0,7.939653468E-1,5.360846722E0
6.906832958E0,-4.620497875E0,3.524413912E0,2.034915832E0,6.157221490E0
6.916857958E0,-5.096002223E0,3.243895496E0,2.655591926E0,6.598807856E0
6.926883958E0,-5.163015407E0,2.797730722E0,1.912238908E0,6.175814354E0
6.936908958E0,-5.844341161E0,2.568328080E0,9.560864174E-1,6.454977457E0
6.946934958E0,-7.079699369E0,2.683380234E0,-7.602144141E-2,7.571555447E0
6.956959958E0,-8.165708579E0,2.948690042E0,-9.394148362E-1,8.732472147E0
6.966985958E0,-9.255406213E0,3.309111831E0,-1.146103969E0,9.895772814E0
6.977011958E0,-1.025628172E1,3.727447366E0,-1.009228252E0,1.095918429E1
6.987036958E0,-1.099618488E1,3.980186246E0,-8.734453797E-1,1.172692932E1
6.997062958E0,-1.143627907E1,4.179537708E0,-5.875364149E-1,1.219025076E1
7.007087958E0,-1.196858854E1,4.201335543E0,-3.932737845E-1,1.269066571E1
7.017113958E0,-1.190656595E1,4.171650399E0,-8.118829697E-1,1.264231520E1
7.027138958E0,-1.141469583E1,4.134944503E0,-1.568755335E0,1.224148848E1
7.037164958E0,-1.000453803E1,4.073435302E0,-1.596771099E0,1.091940174E1
7.047189958E0,-7.582233641E0,3.961792075E0,-3.100819391E-1,8.560503153E0
7.057215958E0,-5.748569031E0,3.987981754E0,2.826385441E-1,7.002137454E0
7.067240958E0,-4.753831349E0,4.012080469E0,-1.102902986E0,6.317602170E0
7.077266958E0,-2.339478584E0,3.693322431E0,-3.812440739E0,5.800732282E0
7.087291958E0,2.332354921E0,3.146087365E0,-4.387692738E0,5.881291759E0
7.097317958E0,5.723469273E0,2.172782067E0,-1.220905645E0,6.242571027E0
7.107342958E0,7.893258151E0,2.857446581E-1,2.109976539E0,8.175400616E0
7.117368958E0,8.997253397E0,-2.152973455E0,4.784053268E0,1.041503860E1
7.127393958E0,1.013162142E1,-4.556680779E0,5.856472380E0,1.255831840E1
7.137419958E0,1.170430608E1,-6.797418017E0,5.318070703E0,1.454226766E1
7.147444958E0,1.284454471E1,-8.601247208E0,4.146515558E0,1.600491717E1
7.157470958E0,1.335635267E1,-1.084156462E1,2.052393744E0,1.732466450E1
7.167495958E0,1.381839263E1,-1.484348087E1,-1.164065885E0,2.031334410E1
7.177521958E0,1.680657944E1,-2.095890246E1,-4.612248623E0,2.725820137E1
7.187546958E0,2.201818171E1,-2.522977192E1,1.520056068E0,3.352092313E1
7.197572958E0,2.576930854E1,-2.902948444E1,9.835416677E0,4.004377168E1
7.207597958E0,1.251598615E1,-1.960065039E1,7.992157956E0,2.459085184E1
7.217623958E0,-1.152217233E1,-4.289866481E0,-4.369416096E1,4.539100254E1
7.227648958E0,-2.320215400E1,1.614071256E-1,-4.883584690E1,5.406760531E1
7.237674958E0,-1.617350608E1,2.295301116E-1,2.357919386E0,1.634609332E1
7.247699958E0,-1.168960618E1,3.698167434E0,7.367633225E0,1.430403280E1
7.257725958E0,-1.202735071E1,7.106279057E0,6.238734103E0,1.529961341E1
7.267750958E0,-1.288295975E1,8.947202985E0,6.895443079E0,1.713389122E1
7.277776958E0,-1.292748513E1,8.329296716E0,5.574746513E0,1.635771543E1
7.287801958E0,-1.059540385E1,4.547335174E0,3.591332372E0,1.207636155E1
7.297827958E0,-8.756909444E0,1.259882600E0,2.589426588E0,9.218237209E0
7.307852958E0,-7.715092320E0,-2.939002960E0,3.460208561E0,8.951727833E0
7.317878958E0,-6.678703752E0,-8.599175540E0,6.044364468E0,1.245332267E1
7.327903958E0,-5.002717499E0,-1.211597111E1,9.530593724E0,1.620667008E1
7.337929958E0,-4.733619571E0,-9.882146455E0,1.056181043E1,1.521892941E1
7.347954958E0,-6.886645943E0,-3.695298205E0,7.799731352E0,1.104159999E1
7.357980958E0,-7.415326624E0,9.734655118E-1,3.964989333E0,8.464977522E0
7.368005958E0,-6.446321368E0,3.362386982E0,1.684106866E0,7.463037005E0
7.378031958E0,-5.090609336E0,4.362076671E0,3.640283507E-1,6.713756991E0
7.388056958E0,-3.769766589E0,4.544210422E0,1.056212384E0,5.998047441E0
7.398082958E0,-2.589768650E0,3.140152441E0,-4.119304955E-1,4.091105688E0
7.408107958E0,-1.373966747E0,1.505922909E0,-3.605877905E0,4.142214854E0
7.418133958E0,-4.369577479E-1,8.261963689E-1,-4.489480484E0,4.585735222E0
7.428158958E0,4.290257075E-1,-1.014714110E-1,-5.109132730E0,5.128118248E0
7.438184958E0,1.422714984E0,-9.960772794E-1,-6.325343061E0,6.559439969E0
7.448210958E0,1.846041118E0,-1.249443566E0,-6.717084290E0,7.077301633E0
7.458235958E0,9.201386127E-1,-5.671360642E-1,-4.656383407E0,4.780188785E0
7.468261958E0,-2.351913857E-1,1.380849212E-1,-2.560345461E0,2.574830346E0
7.478286958E0,-5.420848382E-1,4.563529623E-1,-1.302074354E0,1.482400628E0
7.488312958E0,-4.093667838E-1,5.171458787E-1,-3.007907865E-1,7.249111123E-1
7.498337958E0,-3.494889566E-1,8.671227854E-1,3.611199456E-1,1.002223563E0
7.508363958E0,8.525503546E-2,6.407794064E-1,9.935255545E-1,1.185309958E0
7.518388958E0,1.172556188E0,-2.831806540E-1,1.873635006E0,2.228359808E0
7.528414958E0,2.156465997E0,-8.998730403E-1,3.000531456E0,3.803065356E0
7.538439958E0,2.913540967E0,-2.123205864E-1,4.532508974E0,5.392350007E0
7.548465958E0,3.228637186E0,1.396779951E0,6.442396717E0,7.340270279E0
7.558490958E0,3.459087650E0,2.385669249E0,7.072189790E0,8.226334151E0
7.568516958E0,4.147479471E0,3.420411826E0,5.751902529E0,7.873067111E0
7.578541958E0,5.177659174E0,6.803538297E0,3.852124622E0,9.377374472E0
7.588567958E0,6.185243774E0,6.012598300E0,1.080380681E0,8.693434378E0
7.598592958E0,6.510294585E0,2.435880459E0,-6.440988708E-1,6.980853283E0
7.608618958E0,6.166748446E0,-2.796992218E-1,-8.094288933E-1,6.225929102E0
7.618643958E0,4.722655457E0,-2.235804527E0,-1.175976809E0,5.355858279E0
7.628669958E0,2.726926203E0,-3.603976391E0,-1.117575989E0,4.655507323E0
7.638694958E0,4.456417403E-1,-4.265114633E0,-9.689017600E-1,4.396426960E0
7.648720958E0,-2.973318222E0,-4.595220362E0,-1.805362331E0,5.763332766E0
7.658745958E0,-7.546869096E0,-3.735045823E0,-6.331095552E0,1.053511136E1
7.668771958E0,-1.072434548E1,-2.311799034E0,-7.890635090E0,1.351362731E1
7.678796958E0,-9.454251891E0,-1.693682266E0,-1.996244102E0,9.810016766E0
7.688822958E0,-8.097237684E0,-2.781932715E0,4.544794778E-1,8.573853237E0
7.698847958E0,-7.371418712E0,-2.686443005E0,8.782646549E-1,7.894690536E0
7.708873958E0,-6.298856928E0,-1.944912565E0,2.071823457E0,6.910190730E0
7.718898958E0,-4.435143478E0,-1.445726409E0,3.783846685E0,6.006506327E0
7.728924958E0,-2.080976104E0,-1.518061729E0,5.337187005E0,5.926258354E0
7.738950083E0,2.345259726E-2,-1.592359959E0,6.659596220E0,6.847363148E0
7.748976083E0,1.579934919E0,-1.472192661E0,7.417347422E0,7.725321246E0
7.759001083E0,2.268470582E0,-1.384480333E0,7.160816038E0,7.638064604E0
7.769027083E0,2.461456765E0,-7.275801533E-1,6.173404917E0,6.685736351E0