"Time (s)","Linear Acceleration x (m/s^2)","Linear Acceleration y (m/s^2)","Linear Acceleration z (m/s^2)","Absolute acceleration (m/s^2)"
7.830708288E-3,2.052185583E-1,-4.052629155E-1,-4.155247790E-1,6.156407469E-1
1.785670826E-2,2.321525878E-1,-6.292393416E-1,-5.340589499E-1,8.573540313E-1
2.788370824E-2,1.655738515E-1,-8.302148679E-1,-7.320433331E-1,1.119177765E0
3.791070834E-2,1.490478659E-1,-9.479125947E-1,-1.086412668E0,1.449498547E0
4.793770832E-2,1.102226463E-1,-1.117345608E0,-1.552749751E0,1.916152925E0
5.796470831E-2,2.620868236E-2,-1.222731146E0,-2.113978958E0,2.442266444E0
6.799170829E-2,-2.547690332E-2,-1.257931384E0,-2.532937807E0,2.828217526E0
7.801770826E-2,9.297716081E-2,-1.384629145E0,-2.971301810E0,3.279401938E0
8.804470825E-2,2.275479054E-1,-1.381414638E0,-3.244904140E0,3.534046877E0
9.807170834E-2,-1.219436824E-2,-1.440121560E0,-3.351118813E0,3.647478048E0
1.080987083E-1,-1.957580557E-1,-1.552501829E0,-3.617546609E0,3.941475183E0
1.181257083E-1,-9.256580919E-2,-1.604131282E0,-4.012086316E0,4.321879476E0
1.281527083E-1,-9.152325064E-2,-1.591683144E0,-4.369548828E0,4.651321178E0
1.381787083E-1,-3.350779089E-1,-1.568619972E0,-4.407461005E0,4.690262075E0
1.482057082E-1,-7.996924022E-1,-1.636150050E0,-4.253484521E0,4.626945590E0
1.582327083E-1,-1.219285381E0,-1.988759081E0,-4.303315662E0,4.894930562E0
1.682597083E-1,-1.868322226E0,-2.587663068E0,-4.543774220E0,5.552703148E0
1.782867083E-1,-3.067305490E0,-3.525987690E0,-5.095860720E0,6.914387076E0
1.883137083E-1,-4.416197914E0,-4.176799457E0,-5.478239973E0,8.182882800E0
1.983397083E-1,-3.737913297E0,-3.179321477E0,-5.069383358E0,7.055404206E0
2.083667082E-1,-3.260326172E0,-2.202754602E0,-4.585003522E0,6.041863279E0
2.183937083E-1,-4.133558713E0,-2.920468164E0,-4.459415855E0,6.745504554E0
2.284207083E-1,-5.691145281E0,-5.010570309E0,-4.161271591E0,8.649342789E0
2.384477083E-1,-6.368161052E0,-6.806381214E0,-3.389680030E0,9.918176804E0
2.484747083E-1,-5.943911058E0,-7.360929392E0,-2.559034515E0,9.801123294E0
2.585007083E-1,-4.795326700E0,-6.882196797E0,-1.685975636E0,8.555834544E0
2.685277082E-1,-3.696579330E0,-6.193455019E0,-1.139590171E0,7.302208541E0
2.785547083E-1,-2.960337111E0,-6.284129546E0,-1.015765147E0,7.020374548E0
2.885817083E-1,-2.489752611E0,-6.477851309E0,-5.820166433E-1,6.964206274E0
2.986087083E-1,-2.249893978E0,-6.427716697E0,5.176072240E-2,6.810304254E0
3.086347083E-1,-2.018790965E0,-6.418745314E0,7.881114069E-1,6.774727150E0
3.186617083E-1,-1.036478616E0,-6.444750806E0,1.856699131E0,6.786488970E0
3.286887083E-1,7.665044832E-1,-6.277648492E0,2.742936172E0,6.893482325E0
3.387157083E-1,2.308525178E0,-5.947788931E0,3.423426651E0,7.240533938E0
3.487427083E-1,3.931823341E0,-5.384712589E0,4.794621525E0,8.212354109E0
3.587697083E-1,5.519811922E0,-5.040520917E0,5.749408107E0,9.430316450E0
3.687957083E-1,6.689433392E0,-4.430767129E0,5.124857647E0,9.520734340E0
3.788227083E-1,8.707821484E0,-3.835046074E0,5.304912128E0,1.089384349E1
3.888497083E-1,1.028129026E1,-3.382255236E0,5.804654939E0,1.228163665E1
3.988767084E-1,1.177100410E1,-3.031778977E0,6.056832486E0,1.358062742E1
4.089037083E-1,1.277663047E1,-2.154110153E0,5.964939984E0,1.426404521E1
4.189307083E-1,1.255448539E1,-1.337062338E0,5.048004768E0,1.359724940E1
4.289567083E-1,1.178151389E1,-1.457070007E0,3.564150420E0,1.239476868E1
4.389837083E-1,1.118296132E1,-1.962691024E0,2.869407645E0,1.171086163E1
4.490107083E-1,1.081904816E1,-2.259444235E0,2.649776870E0,1.136565919E1
4.590377082E-1,1.068220811E1,-2.510794986E0,2.750574974E0,1.131279471E1
4.690647083E-1,1.035776950E1,-2.540110002E0,3.226397410E0,1.114204596E1
4.790917083E-1,1.016887286E1,-2.225616923E0,2.921297591E0,1.081172167E1
4.891177083E-1,1.120967608E1,-1.026120273E0,-1.661159176E0,1.137845378E1
4.991447083E-1,1.577243855E1,2.813422310E0,-1.784004207E1,2.397816223E1
5.091717083E-1,1.224696746E1,1.177329270E0,-1.019933452E1,1.598126217E1
5.191987082E-1,7.211687983E0,-2.397608678E0,-1.072110379E0,7.675049942E0
5.292257083E-1,4.451781730E0,-2.824453667E0,-1.809160975E0,5.573953940E0
5.392527083E-1,4.148381989E0,-3.507370448E0,7.095657590E-1,5.478522077E0
5.492787083E-1,3.916109533E0,-2.300140271E0,-6.648290044E-1,4.590049755E0
5.593057083E-1,3.534014456E0,-1.399139888E0,-2.659991079E0,4.639224411E0
5.693327083E-1,1.823482853E0,-1.141812113E0,-8.947903481E-1,2.330123255E0
5.793597082E-1,1.789692378E-1,1.166959818E0,-2.539324428E0,2.800356005E0
5.893867083E-1,-1.091792107E-1,2.438780093E0,-2.085867299E0,3.210982845E0
5.994137083E-1,-3.300150973E-1,1.794708120E0,-3.770194021E-1,1.863338624E0
6.094397083E-1,-4.475464708E-1,-5.305915511E-1,8.056328809E-1,1.063423517E0
6.194667083E-1,6.246171176E-1,-3.573160980E0,7.560786054E0,8.385887650E0
6.294937083E-1,-1.365551727E0,-2.695641260E0,9.675243314E0,1.013615048E1
6.395207082E-1,-5.640201999E0,3.194702286E0,-9.054613413E0,1.113570947E1
6.495477083E-1,5.706999421E-1,3.256846493E0,-3.688450531E0,4.953525494E0
6.595747083E-1,-2.663006195E0,4.918987709E0,-5.412026103E0,7.783191416E0
6.696007083E-1,-3.083328030E0,8.075878390E0,-3.990542250E0,9.521089799E0
6.796277083E-1,-4.281417840E0,9.270486183E0,-2.193151720E0,1.044425044E1
6.896547083E-1,-3.648155029E0,6.932883385E0,3.327556872E-1,7.841213777E0
6.996817082E-1,-4.222954454E0,5.685591010E0,2.995163128E-1,7.088652868E0
7.097087083E-1,-5.396156759E0,5.795213440E0,-6.233652288E-1,7.943021515E0
7.197347083E-1,-3.884160932E0,4.206744218E0,-9.508353254E-1,5.804092597E0
7.297617083E-1,-2.293876734E0,3.344923103E0,-2.086354373E0,4.561058605E0
7.397887083E-1,-2.151651399E0,3.868601491E0,-1.625734697E0,4.715792038E0
7.498157083E-1,-2.471150279E0,4.453306099E0,-1.650291395E0,5.353688504E0
7.598427082E-1,-2.654611348E0,4.857114227E0,-1.535876441E-1,5.537337735E0
7.698697083E-1,-2.768513355E0,4.017648187E0,2.880734579E-1,4.887652757E0
7.798957083E-1,-3.224155295E0,1.506318181E0,-1.554629923E0,3.883432249E0
7.899227083E-1,-2.607250655E0,-4.400836694E-1,-1.145979570E0,2.881787430E0
7.999497083E-1,1.405670643E-2,-2.307665053E0,-3.093402198E-1,2.328348548E0
8.099767083E-1,-7.947360098E-1,7.816224593E-1,2.619738261E-1,1.145063003E0
8.200037082E-1,-2.956794868E0,-6.320115066E-1,-8.411861448E-1,3.138418163E0
8.300307083E-1,-2.064165943E0,-1.240528316E0,-1.455832736E0,2.814096747E0
8.400567083E-1,-1.448364088E0,-1.519232342E0,-1.137444828E0,2.387384798E0
8.500837083E-1,-6.672865891E-1,-2.750748344E0,-6.816730785E-1,2.911454281E0
8.601107083E-1,-2.326431692E-2,-3.851246955E0,-1.099652226E-1,3.852886799E0
8.701377083E-1,3.145305008E-1,-2.112304900E0,4.185897432E-2,2.136004120E0
8.801647082E-1,-2.025212377E-1,-1.308044946E0,1.480354205E0,1.985810918E0
8.901917083E-1,5.354880095E-2,-1.198189212E0,1.226462985E0,1.715440560E0
9.002177083E-1,1.242068765E0,-2.213019097E0,7.087017598E-1,2.634852277E0
9.102447083E-1,1.313843045E0,-4.891482407E-1,1.798136488E-1,1.413429339E0
9.202717083E-1,6.548565781E-1,2.519658780E0,1.545366472E-1,2.607949210E0
9.302987083E-1,3.300303585E0,3.999344648E0,-2.660639827E0,5.828015585E0
9.403257082E-1,4.550844673E0,3.341210121E0,-1.755338232E0,5.912282522E0
9.503527083E-1,5.450320687E0,2.523650090E0,3.174512581E-1,6.014613925E0
9.603787083E-1,6.061519614E0,2.497233539E0,1.527198588E0,6.731309747E0
9.704057083E-1,4.599671263E0,3.065861812E0,1.704967977E0,5.784755844E0
9.804327083E-1,2.368188413E0,3.462956752E0,6.152989948E-1,4.240162577E0
9.904597083E-1,3.232510382E-1,3.370977126E0,-3.701199800E-1,3.406606349E0
1.000486708E0,-1.378569675E0,3.563898405E0,-1.936282659E0,4.283808671E0
1.010513875E0,-2.599425327E0,3.389587060E0,-1.305106720E0,4.466499302E0
1.020539875E0,-3.373556333E0,3.409937709E0,2.987178755E-1,4.806016009E0
1.030566875E0,-3.163744202E0,4.086652933E0,1.352638151E0,5.342250419E0
1.040593875E0,-2.618508884E0,4.495296709E0,1.802291958E0,5.505682299E0
1.050620875E0,-2.085453317E0,4.707320257E0,7.444862080E-1,5.202137950E0
1.060647875E0,-1.863822793E0,4.740212014E0,2.901693193E-1,5.101729469E0
1.070674875E0,-2.012386510E0,4.663893571E0,-3.598879373E-1,5.092260994E0
1.080700875E0,-2.712543222E0,4.243168863E0,-4.988826853E-1,5.060756531E0
1.090727875E0,-3.476589535E0,3.881919694E0,-1.115561769E-1,5.212333459E0
1.100754875E0,-3.914555636E0,3.764104730E0,1.332738322E-1,5.432310021E0
1.110781875E0,-4.003687375E0,3.921583697E0,6.589765263E-1,5.642923121E0
1.120808875E0,-3.422888415E0,4.387396869E0,1.068166432E0,5.666250604E0
1.130835875E0,-2.531005010E0,5.150546220E0,9.744093255E-1,5.820960939E0
1.140861875E0,-1.935039541E0,5.556963961E0,-1.627655069E-1,5.886486142E0
1.150888875E0,-1.111995260E0,5.147506253E0,-1.392123814E0,5.447142626E0
1.160915875E0,3.253118528E-2,3.490521696E0,-3.181221530E0,4.722813824E0
1.170942875E0,1.195006061E0,2.806141357E0,2.827202443E0,4.158790985E0
1.180969875E0,-1.328852847E-2,-1.459471342E1,3.866212319E0,1.509812684E1
1.190996875E0,-9.697969687E0,-5.798550446E1,1.008187740E0,5.879953900E1
1.201022875E0,-1.181663226E0,-5.108843761E1,4.344229215E0,5.128642231E1
1.211049875E0,7.367837293E0,-2.158578011E1,6.502204378E0,2.371728465E1
1.221076875E0,3.172113030E-1,-6.445454226E0,8.907701535E0,1.099962044E1
1.231103875E0,-3.041627735E0,2.439838439E0,3.830601021E0,5.466060288E0
1.241130875E0,-3.687058893E0,9.565205147E0,-6.012694194E0,1.188444548E1
1.251157875E0,-3.578573163E0,1.126841721E1,-5.054915008E0,1.285828830E1
1.261183875E0,-3.715402102E0,1.040737143E1,-1.557445065E0,1.115989373E1
1.271210875E0,-3.060135634E0,7.827259458E0,-4.366162705E-1,8.415524612E0
1.281237875E0,-1.320103366E0,5.155899931E0,-7.796016616E-1,5.379010666E0
1.291264875E0,-1.335766887E0,1.990757074E0,-8.405009973E-1,2.540438709E0
1.301291875E0,-1.100657655E0,-4.472442282E0,-9.431786889E-1,4.701465014E0
1.311317875E0,1.840941469E0,-8.026964677E0,-1.223214199E0,8.325712005E0
1.321344875E0,4.649127305E0,-4.741810643E0,3.050200045E-1,6.647720668E0
1.331371875E0,2.685690176E0,-1.431154563E0,1.657919526E0,3.465520489E0
1.341398875E0,-4.280543388E-1,5.712431484E-1,1.331173022E0,1.510486964E0
1.351425875E0,-1.760799385E0,1.908973238E0,5.225355497E-1,2.649082237E0
1.361452875E0,-1.728312109E0,1.502999302E0,-1.575165345E-1,2.295839956E0
1.371478875E0,-9.946360870E-1,3.757865167E-1,-6.493053778E-1,1.245838643E0
1.381505875E0,-1.644349966E-1,-2.143086398E-1,-1.121870330E0,1.153932450E0
1.391532875E0,4.146271217E-1,-4.869789237E-1,-1.312281253E0,1.459844584E0
1.401559875E0,7.452442264E-1,-4.211158866E-1,-1.175990331E0,1.454538004E0
1.411586875E0,6.778374512E-1,-2.038842237E-1,-1.136293511E0,1.338728998E0
1.421613875E0,4.255723785E-1,2.611892760E-2,-1.311094999E0,1.378682032E0
1.431639875E0,3.427312930E-1,9.090958536E-2,-1.443509876E0,1.486421896E0
1.441666875E0,2.948570686E-1,-1.663532853E-2,-1.339079043E0,1.371258585E0
1.451693875E0,2.616935252E-1,-1.823869354E-1,-1.207563614E0,1.248982937E0
1.461720875E0,1.614583618E-1,-3.153251374E-1,-1.271690467E0,1.320111885E0
1.471747875E0,4.673902396E-2,-4.149827421E-1,-1.630889164E0,1.683506661E0
1.481774875E0,7.833558664E-2,-4.361221808E-1,-2.110065417E0,2.156087912E0
1.491800875E0,2.290589722E-1,-3.785890871E-1,-2.488423539E0,2.527459083E0
1.501827875E0,3.783497167E-1,-3.277919859E-1,-2.648302202E0,2.695199556E0
1.511854875E0,4.722540267E-1,-3.145831257E-1,-2.581139914E0,2.642776885E0
1.521881875E0,5.009142273E-1,-2.425483525E-1,-2.466010576E0,2.528033412E0
1.531908875E0,4.755528065E-1,-1.342345297E-1,-2.420523916E0,2.470446399E0
1.541935875E0,4.393000694E-1,-5.080060959E-3,-2.398828992E0,2.438727310E0
1.551961875E0,4.909529107E-1,5.746994376E-2,-2.197153262E0,2.252070161E0
1.561988875E0,5.460804599E-1,-1.080892897E-1,-1.900801170E0,1.980639354E0
1.572015875E0,3.941191457E-1,-3.100386697E-1,-1.631587760E0,1.706907290E0
1.582042875E0,4.360476288E-1,-5.405487746E-1,-1.436124111E0,1.595237592E0
1.592069875E0,3.935125702E-1,-9.110897541E-1,-1.256416370E0,1.601099241E0
1.602096875E0,2.473092286E-1,-1.211188157E0,-1.001131028E0,1.590723716E0
1.612122875E0,1.745656997E-2,-1.363043271E0,-9.569213998E-1,1.665500002E0
1.622149875E0,-3.313633190E-1,-1.239040784E0,-1.211706805E0,1.764442432E0
1.632176875E0,-2.224759575E-1,-9.648233271E-1,-7.872597599E-1,1.264973333E0
1.642203875E0,1.678563852E-1,-9.725474989E-1,4.750523214E-1,1.095307770E0
1.652230875E0,6.261571281E-2,-1.002524419E0,8.019070351E-1,1.285313515E0
1.662257875E0,-1.965439215E-1,-9.138496399E-1,5.829744172E-1,1.101639618E0
1.672283875E0,-3.688825630E-1,-5.796836042E-1,5.869880922E-1,9.036937793E-1
1.682310875E0,-2.559388418E-1,-4.056997025E-1,4.315079968E-1,6.452101135E-1
1.692337875E0,-1.959464823E-1,-3.355968493E-1,1.433034150E-1,4.141933582E-1
1.702364875E0,-3.022077861E-1,-3.492331409E-1,-3.695440292E-4,4.618370593E-1
1.712391875E0,-3.618530403E-1,-7.660951781E-1,-3.932018638E-2,8.481659754E-1
1.722417875E0,-8.461779859E-1,-7.919410408E-1,-3.461059038E-1,1.209535900E0
1.732444875E0,-1.220621543E0,-4.823145998E-1,-4.772136350E-1,1.396523247E0
1.742471875E0,-1.265968966E0,-1.181476700E-1,-3.542526832E-1,1.319898200E0
1.752498875E0,-1.395599837E0,1.055363953E-2,-5.414568472E-1,1.496992252E0
1.762525875E0,-1.470432211E0,2.067347413E-1,-4.511457244E-1,1.551915785E0
1.772552875E0,-1.065605278E0,3.414990288E-1,-1.972686839E-1,1.136244309E0
1.782579875E0,-5.888168820E-1,2.720650971E-2,-1.281241894E-2,5.895843220E-1
1.792605875E0,-3.057627471E-1,-2.181432438E-1,-1.285931361E-1,3.970057014E-1
1.802632875E0,3.201467514E-2,-2.934618133E-1,-1.424843663E-1,3.277904360E-1
1.812659875E0,3.798973285E-1,-3.278071886E-1,9.703162014E-3,5.018701869E-1
1.822686875E0,3.834730471E-1,-3.317113745E-1,2.030998197E-1,5.461991858E-1
1.832713875E0,3.633505122E-1,-5.235012174E-2,2.438721621E-1,4.407241330E-1
1.842739875E0,2.046461159E-1,3.951343685E-1,1.770209455E-1,4.789025132E-1
1.852766875E0,-1.368875577E-1,6.924360484E-1,1.695996594E-1,7.259269447E-1
1.862793875E0,-1.989283430E-1,1.047964302E0,8.408032984E-2,1.069986526E0
1.872820875E0,-3.434640587E-1,1.290768178E0,-8.964220136E-2,1.338688079E0
1.882847875E0,-5.122364102E-1,1.436718189E0,-3.106722155E-1,1.556618938E0
1.892874875E0,-6.651364949E-1,1.491142902E0,-3.661941594E-1,1.673323601E0
1.902900875E0,-7.415290517E-1,1.563869986E0,-2.896310100E-1,1.754833550E0
1.912927875E0,-7.469475934E-1,1.733032274E0,-2.451211274E-1,1.903001822E0
1.922954875E0,-8.085085416E-1,1.920833146E0,-2.237413681E-1,2.096031068E0
1.932981875E0,-8.035465944E-1,2.142685863E0,-3.221836290E-1,2.310972118E0
1.943008875E0,-6.199599566E-1,2.430371797E0,-4.251487112E-1,2.543975009E0
1.953035875E0,-6.478497134E-1,2.620343156E0,-5.537626049E-1,2.755460130E0
1.963061875E0,-8.253812671E-1,2.767629840E0,-8.607855731E-1,3.013632521E0
1.973088875E0,-9.455710772E-1,2.691799639E0,-1.168115813E0,3.082918181E0
1.983115875E0,-9.080050555E-1,2.449771689E0,-1.583045930E0,3.054814057E0
1.993142875E0,-9.116562031E-1,1.926523656E0,-2.363142850E0,3.182303342E0
2.003169875E0,-8.418557972E-1,1.047030501E0,-3.598837565E0,3.841435393E0
2.013196958E0,-2.107726823E-1,8.765034735E-2,-5.443811567E0,5.448595423E0
2.023222958E0,1.124591770E0,-9.827485514E-1,-7.336592696E0,7.487061757E0
2.033249958E0,2.712683555E0,-1.026126121E0,-5.800575922E0,6.485234607E0
2.043276958E0,3.594827253E0,1.280742542E0,9.533771101E-1,3.933447896E0
2.053303958E0,2.694286460E0,4.546163392E0,5.588829532E0,7.691670602E0
2.063330958E0,4.005744718E-1,5.937347558E0,8.762652580E0,1.059229136E1
2.073357958E0,-2.294699145E0,4.735204459E0,9.401929836E0,1.077423269E1
2.083383958E0,-3.305899370E0,2.455646387E0,8.597751743E0,9.533126709E0
2.093410958E0,-3.687224954E0,-7.930859256E-1,3.574662252E0,5.196424094E0
2.103437958E0,-2.792230246E0,-6.145668649E0,-4.560173321E0,8.146224500E0
2.113464958E0,-1.873013155E0,-9.883898281E0,-4.368056034E0,1.096720279E1
2.123491958E0,1.435995765E-1,-7.702372872E0,5.296407938E-1,7.721896663E0
2.133518958E0,2.128250111E0,-3.153260145E0,2.339137837E0,4.465877730E0
2.143544958E0,2.341141824E0,-1.842679846E-1,1.922689345E0,3.035067388E0
2.153571958E0,-1.464278016E-1,2.025977778E0,7.313311422E-1,2.158905347E0
2.163598958E0,-2.365938989E0,3.188182055E0,-6.017847638E-1,4.015509559E0
2.173625958E0,-3.390775214E0,3.287351418E0,-8.794400914E-1,4.803899538E0
2.183652958E0,-3.191350662E0,2.590131762E0,-1.300887077E-1,4.112228673E0
2.193679958E0,-1.420656179E0,1.242381883E0,7.421590161E-1,2.027948897E0
2.203705958E0,6.383126123E-1,-2.080427635E-1,2.011908938E0,2.120967317E0
2.213732958E0,1.572799269E0,-1.685434769E0,3.127223078E0,3.885088426E0
2.223759958E0,1.717485112E0,-2.697416475E0,3.125465405E0,4.471503634E0
2.233786958E0,1.826305596E0,-2.722201653E0,2.038981401E0,3.860468769E0
2.243813958E0,2.000033974E0,-2.123259074E0,1.140088865E0,3.131799421E0
2.253840958E0,2.111714624E0,-1.545328465E0,8.124460566E-1,2.739972137E0
2.263866958E0,2.155543891E0,-1.133141277E0,1.039746040E0,2.647914358E0
2.273893958E0,1.474126043E0,-8.358296567E-1,1.410811515E0,2.205005201E0
2.283920958E0,1.114883492E0,-1.172717571E-1,1.997222341E0,2.290330750E0
2.293947958E0,9.390959436E-1,5.169611067E-1,1.995525479E0,2.265231095E0
2.303974958E0,9.090593085E-1,8.701434571E-1,1.751046376E0,2.156316737E0
2.314001958E0,1.019876617E0,9.136280304E-1,1.100823716E0,1.756894233E0
2.324027958E0,1.074273629E0,6.048219538E-1,6.593893397E-1,1.398094320E0
2.334054958E0,8.570130227E-1,3.616736770E-2,1.596149174E-1,8.725000409E-1
2.344081958E0,4.108345080E-1,-3.431286478E-1,-3.215337475E-1,6.244247054E-1
2.354108958E0,5.407924573E-1,-3.352343220E-1,-7.251658380E-1,9.647300271E-1
2.364135958E0,7.517878454E-1,-1.025800431E-1,-1.271309813E0,1.480518920E0
2.374162958E0,5.895010793E-1,3.741077811E-1,-1.948770558E0,2.070066386E0
2.384188958E0,5.630712260E-1,8.354010558E-1,-1.771256692E0,2.037717939E0
2.394215958E0,3.780855688E-1,8.970850879E-1,-1.261048535E0,1.593095653E0
2.404242958E0,3.242676497E-1,5.050883353E-1,-1.653968562E0,1.759510085E0
2.414269958E0,2.319214766E-1,2.505900282E-1,-2.410678959E0,2.434739407E0
2.424296958E0,-3.373586154E-1,1.438274717E-1,-2.802174021E0,2.826070845E0
2.434323958E0,-8.593223074E-1,3.029927748E-1,-3.109737272E0,3.240479185E0
2.444349958E0,-9.928621879E-1,4.876671410E-1,-3.415542265E0,3.590198258E0
2.454376958E0,-8.084421757E-1,4.344440299E-1,-3.617979303E0,3.732572116E0
2.464403958E0,-8.349882424E-2,2.335149890E-1,-3.540372718E0,3.549047800E0
2.474430958E0,1.053882049E0,-1.703118503E-1,-3.506864664E0,3.665756848E0
2.484457958E0,1.686846140E0,-9.254522699E-1,-3.576393321E0,4.061096033E0
2.494484958E0,1.407893754E0,-1.755340571E0,-3.420772600E0,4.094517129E0
2.504510958E0,5.791004176E-1,-1.814764654E0,-3.106383017E0,3.643946143E0
2.514537958E0,6.042512655E-2,-9.397446191E-1,-3.017766125E0,3.161278780E0
2.524564958E0,-6.342167109E-1,2.235934335E-1,-3.715386314E0,3.775754272E0
2.534591958E0,-1.813526652E0,7.547790617E-1,-5.123298195E0,5.486962251E0
2.544618958E0,-2.490727634E0,8.425568783E-1,-5.876388581E0,6.437823312E0
2.554645958E0,-2.062030248E0,6.099616563E-1,-5.527284079E0,5.930842373E0
2.564671958E0,-1.242747334E0,-2.291284078E-1,-4.087026570E0,4.277932556E0
2.574698958E0,-5.044311813E-1,-1.575118275E0,-2.020619389E0,2.611197257E0
2.584725958E0,5.650546747E-1,-3.189208242E0,9.556630790E-1,3.376925808E0
2.594752958E0,1.982034783E0,-4.606096183E0,3.319841471E0,6.013811713E0
2.604779958E0,3.244966413E0,-5.676544198E0,3.625219910E0,7.476307943E0
2.614806958E0,3.671449751E0,-6.068977738E0,2.936298623E0,7.676840735E0
2.624832958E0,2.766895138E0,-5.542320778E0,2.206318188E0,6.575778909E0
2.634859958E0,1.699936741E0,-4.113961769E0,9.041818535E-1,4.542247372E0
2.644886958E0,2.254196651E-1,-2.596782970E0,2.463490427E-1,2.618164179E0
2.654913958E0,-1.286819553E0,-1.594815790E0,1.645484837E0,2.628110027E0
2.664940958E0,-1.523327293E0,-5.567707050E-1,2.163121297E0,2.703629673E0
2.674967958E0,-1.574127464E0,3.092083651E-1,1.052281374E0,1.918536728E0
2.684993958E0,-1.486881744E0,7.730808467E-1,6.778585012E-1,1.807750941E0
2.695020958E0,-1.195174022E0,7.509128827E-1,5.706613505E-1,1.522486610E0
2.705047958E0,-1.312229944E0,1.747083718E-1,5.541511524E-1,1.435114609E0
2.715074958E0,-1.909177306E0,-2.501684439E-1,6.489393421E-1,2.031911540E0
2.725101958E0,-1.353915183E0,-6.756352437E-1,1.791001131E0,2.344622434E0
2.735128958E0,-5.688931525E-1,-8.583829522E-1,1.803288178E0,2.076609969E0
2.745154958E0,-2.561373547E-1,-6.622685087E-1,1.145346755E0,1.347599759E0
2.755181958E0,-1.851677980E-1,-5.641452134E-2,1.005301408E0,1.023767861E0
2.765208958E0,-4.250489796E-1,5.095082456E-1,1.211102203E0,1.380953958E0
2.775235958E0,-9.255776927E-1,1.088655075E0,1.421806765E0,2.015787294E0
2.785262958E0,-1.416488577E0,1.580732771E0,1.645930687E0,2.685934439E0
2.795289958E0,-1.941519718E0,1.909963757E0,1.719082864E0,3.220668604E0
2.805315958E0,-2.195084371E0,2.329773960E0,1.704980549E0,3.626734174E0
2.815342958E0,-1.966067791E0,2.576510088E0,1.871929958E0,3.742719407E0
2.825369958E0,-1.571142168E0,2.672428399E0,1.540723198E0,3.461818775E0
2.835396958E0,-1.139735840E0,2.441783808E0,9.598888618E-1,2.860540609E0
2.845423958E0,-7.331382242E-1,1.984574813E0,7.518300185E-1,2.245278874E0
2.855450958E0,-9.451899849E-1,1.649032928E0,-1.015667206E-1,1.903420475E0
2.865476958E0,-1.177162259E0,1.117222232E0,-1.256830061E0,2.052685632E0
2.875503958E0,-7.163904829E-1,6.280839318E-1,-2.405807352E0,2.587588407E0
2.885530958E0,6.065645702E-2,1.621409512E-1,-4.399242743E0,4.402647568E0
2.895557958E0,1.445122538E0,-4.659938514E-1,-6.126173447E0,6.311539474E0
2.905584958E0,2.910045794E0,-1.095219160E0,-6.658122722E0,7.348365105E0
2.915611958E0,3.926746203E0,-8.046026015E-1,-4.124626798E0,5.751457843E0
2.925637958E0,3.700784063E0,1.354041483E0,1.006391475E0,4.067192498E0
2.935664958E0,2.060654106E0,4.461399230E0,6.075682740E0,7.814364926E0
2.945691958E0,6.256526595E-1,7.148708208E0,7.749504354E0,1.056173698E1
2.955718958E0,-3.393957853E-1,8.032767454E0,6.593493447E0,1.039782181E1
2.965745958E0,-1.388232492E0,6.905527772E0,4.939686853E0,8.603139512E0
2.975772958E0,-2.178413228E0,4.685707778E0,3.891232847E0,6.468619222E0
2.985798958E0,-1.855241420E0,1.026564662E0,1.837510031E0,2.805743902E0
2.995825958E0,-1.622476921E0,-3.262800713E0,1.085522722E0,3.802191399E0
3.005852958E0,-1.774458919E0,-6.236342592E0,2.488674384E0,6.945082690E0
3.015879583E0,-1.573994732E0,-6.658717968E0,2.593644769E0,7.317306717E0
3.025906583E0,-6.982120011E-1,-5.562883682E0,5.704042192E-1,5.635471216E0
3.035932583E0,1.331294060E-2,-4.671420692E0,-1.908518179E0,5.046264970E0
3.045959583E0,-1.120925128E-1,-3.419680924E0,-1.620635340E0,3.785926738E0
3.055986583E0,-3.557031582E-1,-1.304329040E0,1.963946714E-1,1.366151473E0
3.066013583E0,-7.215721393E-1,7.291857988E-1,8.864682984E-1,1.355803941E0
3.076040583E0,-9.180078142E-1,1.917452871E0,1.016268592E0,2.356303399E0
3.086067583E0,-8.727248566E-1,2.139203846E0,1.082757135E0,2.551510295E0
3.096094583E0,-1.109793637E0,1.540640752E0,1.079957342E0,2.184381767E0
3.106120583E0,-9.769280136E-1,6.304795361E-1,1.350422641E0,1.782002834E0
3.116147583E0,-3.531192005E-2,-1.502026910E-1,1.783175364E0,1.789838584E0
3.126174583E0,1.228421071E0,-1.143106686E0,1.838896698E0,2.489428105E0
3.136201583E0,1.929717698E0,-2.030136318E0,1.743414005E0,3.299205397E0
3.146228583E0,2.168705242E0,-2.356818502E0,1.475879331E0,3.526484890E0
3.156255583E0,1.832717945E0,-2.069782779E0,1.103059764E0,2.976507460E0
3.166281583E0,1.839461831E0,-1.232929859E0,1.482588426E0,2.664921069E0
3.176308583E0,1.980230624E0,4.247078311E-1,2.501908972E0,3.218887785E0
3.186335583E0,1.824191243E0,1.515459718E0,1.730810916E0,2.935983358E0
3.196362583E0,1.160933385E0,1.862210131E0,6.654669356E-1,2.293128679E0
3.206389583E0,4.669213295E-1,1.676682072E0,-1.085324903E-1,1.743862838E0
3.216416583E0,4.952569731E-2,1.185309550E0,-4.635438681E-1,1.273689304E0
3.226442583E0,1.270597038E-1,4.259363312E-1,-2.572634554E-1,5.135663657E-1
3.236469583E0,3.477925332E-1,-2.701010174E-1,-8.309595108E-2,4.481284892E-1
3.246496583E0,5.799618586E-1,-5.543411869E-1,-3.085458755E-1,8.595641141E-1
3.256523583E0,4.350047048E-1,-3.381234312E-1,-8.742218900E-1,1.033353986E0
3.266550583E0,2.701727919E-1,1.260384876E-1,-1.040371692E0,1.082244102E0
3.276577583E0,1.973095413E-1,5.015063310E-1,-6.295346260E-1,8.287059192E-1
3.286603583E0,2.529154658E-1,3.265892136E-1,-6.134933746E-1,7.395950703E-1
3.296630583E0,3.521712206E-1,8.473960340E-2,-1.203064620E0,1.256411497E0
3.306657583E0,2.754301697E-1,4.092232347E-2,-1.275656633E0,1.305693785E0
3.316684583E0,2.461780116E-1,9.258305848E-2,-1.010608780E0,1.044272638E0
3.326711583E0,3.345924439E-1,2.137391210E-2,-8.222155845E-1,8.879456149E-1
3.336738583E0,5.294358489E-1,-2.705220169E-1,-6.345462745E-1,8.695593449E-1
3.346764583E0,8.437493449E-1,-7.429238319E-1,-6.382084588E-1,1.292733079E0
3.356791583E0,1.207780181E0,-1.089421061E0,-1.016098219E0,1.917818240E0
3.366818583E0,1.463642570E0,-1.338855679E0,-1.920736082E0,2.761161205E0
3.376845583E0,1.585197997E0,-1.575476709E0,-3.044206064E0,3.776528845E0
3.386872583E0,1.525157910E0,-1.869040264E0,-3.676364921E0,4.397166950E0
3.396898583E0,1.165341455E0,-2.012394111E0,-3.890429732E0,4.532460067E0
3.406925583E0,6.363035090E-1,-1.598488426E0,-3.870605332E0,4.235756489E0
3.416952583E0,2.895961460E-2,-9.859177423E-1,-3.817000982E0,3.942381127E0
3.426979583E0,-9.225679115E-1,-6.417997456E-1,-3.723636151E0,3.889537845E0
3.437006583E0,-1.763381369E0,-4.918455613E-1,-4.055467978E0,4.449522045E0
3.447033583E0,-2.345867398E0,-4.249423045E-1,-4.745291491E0,5.310504792E0
3.457060583E0,-2.736972304E0,-1.652195102E-1,-4.727601324E0,5.465210807E0
3.467086583E0,-2.630852941E0,6.060329121E-1,-4.467308426E0,5.219722949E0
3.477113583E0,-1.902977942E0,1.517937183E0,-4.432994626E0,5.057360942E0
3.487140583E0,-9.517331654E-1,2.056369266E0,-4.309512541E0,4.868916606E0
3.497167583E0,1.006779438E-1,1.763596255E0,-3.197917085E0,3.653365774E0
3.507194583E0,1.306674504E0,6.780326021E-1,-1.594914023E0,2.170455531E0
3.517221583E0,2.315728363E0,-1.082980353E0,4.095085788E-1,2.589042598E0
3.527247583E0,3.131751747E0,-2.628890616E0,3.228578714E0,5.209861359E0
3.537274583E0,3.544203814E0,-3.804707211E0,4.948243668E0,7.177903108E0
3.547301583E0,2.998678181E0,-4.347281461E0,4.418391205E0,6.885717666E0
3.557328583E0,1.805928634E0,-3.643008310E0,2.528872823E0,4.788328051E0
3.567355583E0,4.438855290E-1,-2.732658228E0,-1.156099784E-1,2.770888129E0
3.577381583E0,-1.109098988E0,-2.179111678E0,-1.363036255E0,2.799374234E0
3.587408583E0,-1.773339762E0,-1.279651451E0,-1.033892246E-1,2.189276383E0
3.597435583E0,-1.710054470E0,-4.703412563E-1,1.458292075E0,2.296110399E0
3.607462583E0,-1.618177463E0,1.443034351E-2,1.609926749E0,2.282667447E0
3.617489583E0,-1.379946402E0,6.638402402E-2,4.321795495E-1,1.447562805E0
3.627516583E0,-1.164379734E0,-3.704363143E-1,-6.419656603E-1,1.380261981E0
3.637543583E0,-1.350033363E0,-6.230909944E-1,-4.174736559E-1,1.544382310E0
3.647569583E0,-1.302201384E0,-9.926730305E-1,6.837824616E-1,1.774453901E0
3.657596583E0,-1.038155890E0,-1.203020766E0,6.997224100E-1,1.736271311E0
3.667623583E0,-7.823186434E-1,-1.174988630E0,4.053759129E-1,1.468655974E0
3.677650583E0,-7.529678866E-2,-1.117103534E0,1.094465746E0,1.565709162E0
3.687677583E0,9.923393738E-2,-8.460295397E-1,1.189536502E0,1.463082515E0
3.697704583E0,-4.370054027E-1,-2.523284054E-1,8.857841742E-1,1.019439527E0
3.707730583E0,-7.436980033E-1,2.623376691E-1,1.231986996E0,1.462771250E0
3.717757583E0,-1.135165510E0,6.989463383E-1,1.743112581E0,2.194440291E0
3.727784583E0,-1.280211907E0,1.219315202E0,1.973762434E0,2.649794376E0
3.737811583E0,-1.286572216E0,1.225076464E0,2.341288590E0,2.938998582E0
3.747838583E0,-8.722390261E-1,1.132392833E0,2.289808826E0,2.699321935E0
3.757865583E0,-6.456247748E-1,1.336188764E0,1.772430228E0,2.311653234E0
3.767891583E0,-7.414225593E-1,1.361999543E0,1.439646766E0,2.115970931E0
3.777918583E0,-7.802660514E-1,1.460084832E0,1.056665836E0,1.963976964E0
3.787945583E0,-1.021517345E0,1.581211073E0,5.295203412E-1,1.955535205E0
3.797972583E0,-1.166942496E0,1.836133304E0,2.848997355E-2,2.175764688E0
3.807999583E0,-1.107430631E0,2.200536461E0,-7.993398151E-1,2.589924219E0
3.818026583E0,-1.052185334E0,2.340668492E0,-1.805500910E0,3.137778913E0
3.828052583E0,-1.028637354E0,2.026596998E0,-3.092428637E0,3.837747395E0
3.838079583E0,-6.458909693E-1,1.221854063E0,-5.138112116E0,5.320742299E0
3.848106583E0,6.597337407E-1,-4.470781088E-2,-6.520959907E0,6.554400468E0
3.858133583E0,1.851438829E0,-1.203304941E0,-6.502398505E0,6.867092168E0
3.868160583E0,2.656506138E0,-2.096519172E-1,-1.576293273E0,3.096074817E0
3.878187583E0,2.679011194E0,3.110966649E0,5.795369561E0,7.102219570E0
3.888213583E0,1.303834804E0,6.676151442E0,8.605767106E0,1.096951279E1
3.898240583E0,1.473035245E0,9.216107077E0,8.707491117E0,1.276428079E1
3.908267583E0,1.273453987E0,9.292233732E0,7.352700605E0,1.191761297E1
3.918294583E0,-1.005582659E0,7.241019371E0,5.467731357E0,9.129054946E0
3.928321583E0,-2.705936453E0,3.818946936E0,2.768356357E0,5.437852950E0
3.938348583E0,-1.404585984E0,-1.841190560E0,8.042194627E-1,2.451451287E0
3.948374583E0,-6.807058029E-1,-8.443786953E0,1.411281046E-1,8.472355968E0
3.958401583E0,-1.627566776E0,-1.054351683E1,2.152954159E0,1.088347060E1
3.968428583E0,-3.411302157E-2,-1.022470792E1,1.668828238E0,1.036005808E1
3.978455583E0,2.009821775E0,-8.869456066E0,2.335904181E-1,9.097318229E0
3.988482583E0,2.219134992E0,-6.149361166E0,-9.906105714E-1,6.612148831E0
3.998509583E0,-4.055123723E-1,-2.652026879E0,-1.566030532E0,3.106467202E0
4.008535708E0,-2.182435674E0,-6.740377843E-2,-3.818136804E-1,2.216607865E0
4.018562708E0,-1.358622484E0,1.519957396E0,1.592569582E0,2.586967996E0
4.028589708E0,-1.698120157E0,2.666354896E0,2.568675989E0,4.073224378E0
4.038616708E0,-3.170532820E0,2.933175040E0,2.584399152E0,5.033379894E0
4.048643708E0,-3.479911339E0,2.047507811E0,2.598023164E0,4.801228543E0
4.058670708E0,-1.523594949E0,7.400768226E-1,2.269513579E0,2.831915810E0
4.068696708E0,5.729422031E-1,-7.997815722E-1,2.829811471E0,2.995954988E0
4.078723708E0,1.270657410E0,-1.891884166E0,3.216479656E0,3.942021984E0
4.088750708E0,1.429385342E0,-1.841096420E0,3.354340628E0,4.084651703E0
4.098777708E0,2.296686906E0,-8.217817211E-1,3.022141596E0,3.883739920E0
4.108804708E0,2.920379578E0,2.810031509E-1,2.164581932E0,3.645955923E0
4.118831708E0,2.564538499E0,1.023957973E0,6.490000069E-1,2.836643907E0
4.128857708E0,1.735816718E0,1.484798673E0,-5.393764079E-1,2.347043606E0
4.138884708E0,1.218581377E0,1.541071107E0,-7.811628681E-1,2.114250732E0
4.148911708E0,1.023697480E0,1.168682408E0,-7.025096315E-1,1.705079143E0
4.158938708E0,7.677537408E-1,9.186098582E-1,-1.051458013E0,1.593378119E0
4.168965708E0,6.901809235E-1,6.382452232E-1,-1.568492795E0,1.828626894E0
4.178992708E0,6.473335505E-1,2.913492143E-1,-1.624073503E0,1.772438951E0
4.189018708E0,4.250450693E-1,-1.462037802E-2,-1.198296801E0,1.271531474E0
4.199045708E0,2.864205962E-1,-3.139586431E-1,-7.242682904E-1,8.397448089E-1
4.209072708E0,2.495023730E-1,-6.208556038E-1,-9.197886568E-1,1.137420014E0
4.219099708E0,4.019892787E-1,-5.840222383E-1,-1.446953740E0,1.611320105E0
4.229126708E0,5.381729778E-1,-3.535624194E-1,-1.613558455E0,1.737298888E0
4.239153708E0,4.992979107E-1,-1.327885133E-1,-1.407782657E0,1.499594346E0
4.249179708E0,4.059434948E-1,-3.008743286E-2,-1.300024905E0,1.362262870E0
4.259206708E0,6.092442761E-1,-5.117950916E-2,-1.691783676E0,1.798869071E0
4.269233708E0,7.869094386E-1,-1.311852068E-1,-2.860333936E0,2.969502694E0
4.279260708E0,9.425743061E-1,-2.880835444E-1,-4.032677870E0,4.151376791E0
4.289287708E0,1.406730158E0,-7.202670407E-1,-5.059580501E0,5.300663090E0
4.299314708E0,1.927584341E0,-1.091175225E0,-5.339114247E0,5.780344774E0
4.309340708E0,2.141709086E0,-1.009272106E0,-4.484324409E0,5.070967698E0
4.319367708E0,1.780553326E0,-6.747716099E-1,-3.470779157E0,3.958787040E0
4.329394708E0,7.051331310E-1,-1.311635721E-1,-3.081721215E0,3.164083163E0
4.339421708E0,-7.564876181E-1,5.024781382E-1,-3.846198469E0,3.951961596E0
4.349448708E0,-2.294512618E0,8.281785750E-1,-5.519437700E0,6.034472672E0
4.359475708E0,-3.219159727E0,9.060108626E-1,-7.148560858E0,7.892133259E0
4.369501708E0,-3.179316507E0,8.276581728E-1,-7.488710935E0,8.177644096E0
4.379528708E0,-2.239453189E0,4.715387660E-1,-5.228980186E0,5.707865904E0
4.389555708E0,-8.990405430E-1,-7.323438799E-1,-1.904622910E0,2.229840776E0
4.399582708E0,6.594950281E-2,-2.424537445E0,-1.938047934E-1,2.433164906E0
4.409609708E0,1.391090903E0,-3.580707981E0,1.262913212E0,4.043705395E0
4.419636708E0,2.525462142E0,-4.011561821E0,2.027995652E0,5.155904735E0
4.429662708E0,2.326610324E0,-3.942603267E0,2.070707223E0,5.024446689E0
4.439689708E0,1.704808641E0,-3.069014631E0,2.479841580E0,4.298236565E0
4.449716708E0,1.756968728E0,-2.451040535E0,2.756769222E0,4.085867761E0
4.459743708E0,1.603657072E0,-2.243097759E0,2.034918755E0,3.426966283E0
4.469770708E0,9.065397432E-1,-2.059896891E0,7.223895800E-1,2.363648919E0
4.479797708E0,5.918400752E-1,-1.556402507E0,9.029046755E-1,1.894175359E0
4.489823708E0,2.597495819E-1,-1.015122246E0,1.427297447E0,1.770627296E0
4.499850708E0,-1.692992587E-1,-7.763599652E-1,1.064933506E0,1.328713817E0
4.509877708E0,-5.830736372E-1,-8.575292587E-1,5.219612069E-1,1.160937034E0
4.519904708E0,-9.658238588E-1,-1.096413746E0,4.864883423E-3,1.461151086E0
4.529931708E0,-8.831982431E-1,-1.115764521E0,3.769258466E-1,1.472087870E0
4.539958708E0,-4.711993717E-1,-8.954268175E-1,4.657121618E-1,1.113869764E0
4.549985708E0,-7.690451715E-2,-6.783793420E-1,2.696015190E-1,7.340284840E-1
4.560011708E0,2.627425157E-1,-8.710164464E-1,1.015531258E0,1.363454075E0
4.570038708E0,-2.574784867E-1,-7.626646167E-1,1.290367059E0,1.520854902E0
4.580065708E0,-1.166126005E0,-3.898864925E-1,2.027118277E0,2.370879551E0
4.590092708E0,-1.736139776E0,7.626815736E-2,2.588503605E0,3.117747435E0
4.600119708E0,-2.100199410E0,5.551083416E-1,2.403284424E0,3.239561522E0
4.610146708E0,-2.016554405E0,9.465256351E-1,2.216230972E0,3.142305232E0
4.620172708E0,-1.811101958E0,1.056091347E0,2.444541062E0,3.220434791E0
4.630199708E0,-1.704504293E0,8.912121445E-1,2.665774852E0,3.287240413E0
4.640226708E0,-1.637547388E0,8.494501609E-1,2.739171149E0,3.302451455E0
4.650253708E0,-1.437948443E0,7.759717101E-1,3.279590116E0,3.664087765E0
4.660280708E0,-1.345184413E0,6.056873417E-1,3.303706080E0,3.618128262E0
4.670307708E0,-7.054730004E-1,7.010776484E-1,2.805706909E0,2.976775652E0
4.680333708E0,-5.503224687E-1,1.007348957E0,2.403605875E0,2.663630594E0
4.690360708E0,-6.624609552E-1,1.427159745E0,1.904985437E0,2.470750690E0
4.700387708E0,-8.217005179E-1,1.838784431E0,1.709316552E0,2.641606140E0
4.710414708E0,-1.146469713E0,2.335294901E0,1.262810301E0,2.891830723E0
4.720441708E0,-1.549790183E0,2.906995302E0,5.582734394E-1,3.341278278E0
4.730468708E0,-1.539176025E0,3.287240320E0,-4.382488132E-4,3.629739929E0
4.740494708E0,-1.095237213E0,3.396076884E0,-5.680800971E-1,3.613253071E0
4.750521708E0,-7.563958899E-1,2.876174628E0,-1.136990499E0,3.183906818E0
4.760548708E0,-7.406790128E-1,1.709639903E0,-1.828917547E0,2.610826189E0
4.770575708E0,-5.529993971E-1,5.059747732E-1,-2.777525376E0,2.876884777E0
4.780602708E0,-9.222623214E-2,-5.533226019E-1,-3.823670609E0,3.864599398E0
4.790629708E0,7.614095119E-1,-1.594877186E0,-5.810448360E0,6.073276532E0
4.800655708E0,1.640044003E0,-2.927962832E0,-9.232138388E0,9.823191431E0
4.810682708E0,3.176919733E0,-3.543830177E0,-1.145376342E1,1.240323537E1
4.820709708E0,5.329459909E0,-1.969531097E0,-6.524336089E0,8.651540734E0
4.830736708E0,5.338935322E0,2.233781390E0,4.526961428E0,7.347611139E0
4.840763708E0,3.397681360E0,7.530280545E0,1.309637376E1,1.548432657E1
4.850790708E0,7.661714112E-1,9.353395023E0,1.197930180E1,1.521764400E1
4.860816708E0,-1.398367178E0,8.019688402E0,1.069515501E1,1.344087697E1
4.870843708E0,-3.134955144E0,5.543005487E0,9.622832381E0,1.153914020E1
4.880870708E0,-4.763871018E0,1.489430838E0,5.256906488E0,7.248995594E0
4.890897708E0,-7.507091072E0,-6.630206945E0,-7.702122027E0,1.263482268E1
4.900924708E0,-6.683629446E0,-1.198622608E1,-9.760906777E0,1.684089722E1
4.910951708E0,-2.963008704E0,-1.067717249E1,-9.090851824E-1,1.111790757E1
4.920977708E0,5.760850085E-1,-6.193061501E0,4.790004564E0,7.850479503E0
4.931004708E0,2.379023596E0,-1.793916407E0,4.399309402E0,5.313361700E0
4.941031708E0,6.184630693E-1,1.346531319E0,2.135789073E-1,1.497083535E0
4.951058708E0,-2.002212062E0,2.981914507E0,-2.168003722E0,4.195343539E0
4.961085708E0,-2.878038136E0,2.958853673E0,-7.634472665E-1,4.197710125E0
4.971112708E0,-2.088029307E0,2.187749770E0,1.726816391E0,3.482529295E0
4.981138708E0,4.274408928E-1,8.003832507E-1,3.453206520E0,3.570427752E0
4.991165708E0,2.187306258E0,-1.026422575E0,4.585765414E0,5.183347992E0
5.001192708E0,2.400159526E0,-2.682299083E0,4.620393795E0,5.856921798E0
5.011219875E0,2.729146683E0,-3.307498584E0,3.732305818E0,5.684883043E0
5.021246875E0,2.579384580E0,-2.798704868E0,1.948933110E0,4.276016138E0
5.031273875E0,2.446202695E0,-1.533297234E0,1.406913907E0,3.211590692E0
5.041299875E0,2.059117603E0,-2.338722539E-1,1.534833298E0,2.578832059E0
5.051326875E0,1.359465506E0,9.748542255E-1,1.856060615E0,2.498689302E0
5.061353875E0,8.283764302E-1,1.630880247E0,1.672949209E0,2.478857992E0
5.071380875E0,6.336519429E-1,1.784725753E0,6.577111888E-1,2.004830368E0
5.081407875E0,1.942646403E-1,1.547363881E0,-1.032572676E0,1.870368964E0
5.091434875E0,1.571708909E-1,8.981709158E-1,-8.919564950E-1,1.275539130E0
5.101460875E0,5.849729590E-1,2.692993641E-1,6.070466001E-2,6.468389026E-1
5.111487875E0,8.078690755E-1,-7.669208050E-2,1.504687027E-1,8.253332350E-1
5.121514875E0,6.011706965E-1,-1.747241592E-1,-2.897236518E-1,6.898365985E-1
5.131541875E0,4.622276233E-1,-5.426742375E-2,-5.927427757E-1,7.536201478E-1
5.141568875E0,2.998254478E-1,-6.879541576E-2,-9.623195493E-1,1.010290564E0
5.151595875E0,1.757121560E-1,-1.531262988E-1,-1.391762456E0,1.411143210E0
5.161622875E0,1.330989274E-1,-1.869050789E-1,-1.340817420E0,1.360308857E0
5.171648875E0,1.066270838E-1,-1.899310130E-1,-9.133017558E-1,9.389159823E-1
5.181675875E0,1.411536131E-2,-1.809760022E-1,-6.955672324E-1,7.188639173E-1
5.191702875E0,-2.685553059E-3,-1.175097388E-1,-9.678808361E-1,9.749918276E-1
5.201729875E0,1.714370739E-1,-1.723548675E-1,-1.559900896E0,1.578729767E0
5.211756875E0,5.294330349E-1,-4.317344302E-1,-2.320400873E0,2.418874567E0
5.221783875E0,9.198111686E-1,-8.849334043E-1,-3.008124066E0,3.267716345E0
5.231809875E0,1.062265202E0,-1.394311257E0,-3.789989185E0,4.175707037E0
5.241836875E0,1.176155149E0,-1.605478773E0,-4.672713511E0,5.078893047E0
5.251863875E0,1.222545935E0,-1.324271554E0,-5.331741493E0,5.628124115E0
5.261890875E0,1.187155662E0,-6.507009619E-1,-5.484103560E0,5.648729253E0
5.271917875E0,9.177947563E-1,2.652180076E-2,-5.213916004E0,5.294144947E0
5.281944875E0,3.074941076E-1,3.683219612E-1,-5.223187349E0,5.245178718E0
5.291970875E0,-3.594662069E-1,4.277963305E-1,-5.285733846E0,5.315186539E0
5.301997875E0,-8.353805906E-1,5.037838215E-1,-4.551184396E0,4.654561019E0
5.312024875E0,-1.231829998E0,9.585539424E-1,-3.595244744E0,3.919440722E0
5.322051875E0,-1.573023071E0,1.890765009E0,-3.172492222E0,4.014237262E0
5.332078875E0,-1.738541228E0,2.585301377E0,-3.389771247E0,4.604004552E0
5.342105875E0,-1.410441094E0,2.461232817E0,-3.208154390E0,4.282436882E0
5.352131875E0,-1.366882407E-1,9.124299359E-1,-9.026147997E-1,1.290707380E0
5.362158875E0,1.759949931E0,-1.567845508E0,2.369906909E0,3.342457487E0
5.372185875E0,3.207842149E0,-3.565418682E0,4.270077749E0,6.421528292E0
5.382212875E0,3.765951281E0,-4.813034407E0,4.737170877E0,7.732300898E0
5.392239875E0,3.250230954E0,-5.440281603E0,4.516946025E0,7.782253309E0
5.402266875E0,2.246785598E0,-4.799836657E0,4.187013373E0,6.754077172E0
5.412292875E0,1.689338224E0,-3.201861032E0,2.818493600E0,4.587993447E0
5.422319875E0,4.773770281E-1,-2.112192049E0,-1.144393659E-1,2.168488056E0
5.432346875E0,-1.784961981E0,-1.468727601E0,-1.466581088E0,2.737537238E0
5.442373875E0,-2.996411216E0,-8.173132789E-1,-4.900761938E-1,3.144305304E0
5.452400875E0,-2.931126468E0,-5.602147150E-1,5.568478882E-1,3.035691432E0
5.462427875E0,-2.599427081E0,-8.930119175E-1,7.456778705E-1,2.847898685E0
5.472453875E0,-2.647208188E0,-1.518071669E0,-1.377158158E-1,3.054704312E0
5.482480875E0,-2.756698763E0,-1.395725114E0,-5.257290065E-1,3.134298590E0
5.492507875E0,-2.387527932E0,-7.630441010E-1,-3.135382283E-1,2.526030908E0
5.502534875E0,-1.955043889E0,-2.350668401E-1,8.386193633E-2,1.970909905E0
5.512561875E0,-1.540458612E0,7.944027185E-3,3.586474505E-1,1.581677538E0
5.522588875E0,-1.099977697E0,3.838229299E-2,6.504992330E-1,1.278504355E0
5.532615875E0,-3.884889714E-1,-1.124138904E-1,1.409558164E0,1.466429262E0
5.542641875E0,-2.495467387E-1,-8.255508363E-2,1.260857331E0,1.287963557E0
5.552668875E0,-1.693108435E-1,-3.627788007E-2,1.771002630E0,1.779447263E0
5.562695875E0,-2.289875265E-1,-1.205263174E-1,2.389799137E0,2.403768249E0
5.572722875E0,-3.861681750E-1,-4.708061099E-2,2.477381072E0,2.507739903E0
5.582749875E0,-3.207254065E-1,3.050100642E-1,2.481719998E0,2.520878830E0
5.592776875E0,-4.663756381E-1,6.629011774E-1,2.396509109E0,2.529861680E0
5.602802875E0,-2.481756397E-1,8.247959608E-1,2.743607140E0,2.875632046E0
5.612829875E0,-3.827763148E-1,9.608910745E-1,3.226731286E0,3.388454538E0
5.622856875E0,-6.736330839E-1,1.317730858E0,3.610847162E0,3.902359975E0
5.632883875E0,-3.133818153E-1,1.356153497E0,2.861585240E0,3.182142448E0
5.642910875E0,-5.293346921E-1,1.561570861E0,2.023590360E0,2.610290542E0
5.652937875E0,-8.762957512E-1,1.758633723E0,1.601296259E0,2.534726124E0
5.662963875E0,-1.043174409E0,2.029734029E0,1.186040744E0,2.571910909E0
5.672990875E0,-1.260222323E0,2.428938645E0,5.061092591E-1,2.782813293E0
5.683017875E0,-1.166940376E0,2.760062959E0,-2.371908411E-1,3.005986838E0
5.693044875E0,-4.256324952E-1,2.693516382E0,-9.134067133E-1,2.875848630E0
5.703071875E0,2.140540666E-1,2.064156003E0,-1.686753608E0,2.674265672E0
5.713098875E0,4.922224143E-1,9.122305459E-1,-2.634620595E0,2.831196417E0
5.723124875E0,6.928533934E-1,-1.348771387E-1,-3.334280293E0,3.408175867E0
5.733151875E0,1.024263636E0,-1.202941244E0,-4.270237671E0,4.553143244E0
5.743178875E0,1.050569821E0,-2.096403397E0,-5.994370190E0,6.436697766E0
5.753205875E0,9.215213330E-1,-2.435372336E0,-8.456739120E0,8.848540927E0
5.763232875E0,1.630253864E0,-1.426643436E0,-8.883788177E0,9.144109116E0
5.773259875E0,2.734299249E0,6.735799474E-1,-4.161023377E0,5.024362435E0
5.783286875E0,3.193765269E0,3.727933270E0,3.959102941E0,6.306514025E0
5.793312875E0,2.934262330E0,7.463621702E0,1.063744066E1,1.332181249E1
5.803339875E0,1.132681247E0,8.712248411E0,1.184467551E1,1.474729050E1
5.813366875E0,-3.721947914E-1,7.738594034E0,1.129835963E1,1.369953637E1
5.823393875E0,-1.996905129E0,5.795001186E0,9.590055229E0,1.138151256E1
5.833420875E0,-3.702068111E0,2.457782375E0,5.167000870E0,6.814976191E0
5.843447875E0,-6.314626284E0,-4.435931683E0,-5.381842775E0,9.408306259E0
5.853473875E0,-7.197765763E0,-1.135817781E1,-1.019791949E1,1.687642134E1
5.863500875E0,-4.524635991E0,-1.353622120E1,-5.056310738E0,1.514159482E1
5.873527875E0,6.028267376E-2,-1.112947099E1,3.578592458E-1,1.113538602E1
5.883554875E0,1.655572308E0,-3.578864939E0,2.829589276E0,4.853428622E0
5.893581875E0,-2.528919308E-1,2.310011541E0,2.485070161E0,3.402305299E0
5.903608875E0,-1.195132361E0,4.352713525E0,5.265853313E-1,4.544419490E0
5.913634875E0,-1.244788013E0,4.873413341E0,1.942692085E-1,5.033626458E0
5.923661875E0,-9.108323304E-1,4.119381554E0,1.603798867E0,4.513434471E0
5.933688875E0,1.738051231E-1,1.904096076E0,3.819253914E0,4.271122868E0
5.943715875E0,1.614908870E0,-7.371730953E-1,5.289123477E0,5.579084332E0
5.953742875E0,2.391073684E0,-2.873566185E0,5.245417879E0,6.441197459E0
5.963769875E0,2.719985265E0,-4.026124311E0,3.759757326E0,6.143596012E0
5.973795875E0,3.207991545E0,-3.967355701E0,1.888399079E0,5.440328307E0
5.983822875E0,3.059776907E0,-2.697088446E0,5.422626666E-1,4.114677339E0
5.993849875E0,1.999935010E0,-8.679612762E-1,6.665054742E-1,2.279764542E0
6.003876875E0,1.149119305E0,8.315775615E-1,1.348543492E0,1.957183172E0
6.013904500E0,4.553979658E-1,1.805079326E0,9.228626843E-1,2.077829207E0
6.023931500E0,-2.241548393E-1,1.954962759E0,-9.971710011E-2,1.970296496E0
6.033957500E0,-6.297250991E-1,1.610903819E0,-1.027987289E0,2.012044404E0
6.043984500E0,-2.590434575E-1,9.768662524E-1,-1.074468999E0,1.475077903E0
6.054011500E0,4.256978378E-1,4.927594811E-1,-6.883878748E-1,9.475802982E-1
6.064038500E0,7.909188013E-1,5.601106346E-2,3.422994395E-1,8.636311109E-1
6.074065500E0,7.543162546E-1,-2.621727777E-1,5.649206273E-1,9.781936886E-1
6.084092500E0,8.220873843E-1,-2.602338409E-1,-5.169768211E-1,1.005392636E0
6.094119500E0,5.034460351E-1,2.321753919E-2,-1.144436928E0,1.250493041E0
6.104145500E0,1.648173679E-1,2.897336286E-1,-8.952940857E-1,9.553333661E-1
6.114172500E0,-5.592953134E-2,5.375281030E-1,-2.343458966E-1,5.890522670E-1
6.124199500E0,-1.219579350E-2,6.401771432E-1,2.254522634E-1,6.788256294E-1
6.134226500E0,-1.071008544E-1,5.983829999E-1,2.840904808E-1,6.709994105E-1
6.144253500E0,-5.204295653E-1,4.984055525E-1,-2.236910820E-1,7.545148954E-1
6.154280500E0,-7.973213562E-1,2.687251675E-1,-7.155810821E-1,1.104531958E0
6.164306500E0,-8.071543264E-1,-6.669977367E-2,-1.371173825E0,1.592502629E0
6.174333500E0,-6.427157119E-1,-4.145722675E-1,-2.248424572E0,2.374945622E0
6.184360500E0,-3.077096141E-1,-8.137301052E-1,-3.125084167E0,3.243916296E0
6.194387500E0,2.467997168E-1,-1.102114196E0,-3.646567510E0,3.817462561E0
6.204414500E0,1.191480921E0,-1.389090278E0,-3.576323154E0,4.017373008E0
6.214441500E0,1.774302653E0,-1.650429243E0,-3.134042686E0,3.961601967E0
6.224467500E0,1.541268012E0,-1.501256247E0,-2.793040085E0,3.525670195E0
6.234494500E0,8.142155702E-1,-9.691724861E-1,-2.693164964E0,2.975799023E0
6.244521500E0,-3.505354621E-2,-3.842778432E-1,-3.058934616E0,3.083176803E0
6.254548500E0,-5.935801335E-1,-1.229119813E-1,-3.718160233E0,3.767248366E0
6.264575500E0,-1.048701197E0,-3.194743216E-2,-4.438234901E0,4.560561794E0
6.274602500E0,-1.310386755E0,2.112148780E-1,-4.961929661E0,5.136386973E0
6.284628500E0,-1.397568887E0,6.539748180E-1,-4.792367424E0,5.034646699E0
6.294655500E0,-1.433134430E0,1.125866756E0,-3.897723548E0,4.302754828E0
6.304682500E0,-1.292305118E0,9.603999084E-1,-2.848500341E0,3.272059702E0
6.314709500E0,-9.344182442E-1,1.422200722E-1,-1.935155901E0,2.153646295E0
6.324736500E0,4.156712517E-3,-5.367574400E-1,-8.797030699E-1,1.030535452E0
6.334763500E0,1.406061529E0,-1.187699307E0,7.319696581E-1,1.980762037E0
6.344789500E0,2.743210114E0,-2.194577563E0,2.854004910E0,4.526225407E0
6.354816500E0,3.577851324E0,-2.951728840E0,4.206236680E0,6.261481474E0
6.364843500E0,3.559891309E0,-2.900852802E0,4.280476438E0,6.277758489E0
6.374870500E0,3.101779211E0,-2.592948366E0,3.608956465E0,5.419315664E0
6.384897500E0,2.224672744E0,-2.315495059E0,2.046834211E0,3.807914978E0
6.394924500E0,1.346422415E0,-2.118315838E0,2.017886547E-1,2.518101263E0
6.404951500E0,4.885221135E-1,-2.039743293E0,-4.311244194E-1,2.141278782E0
6.414977500E0,-5.763778809E-1,-2.045781713E0,-5.067160539E-1,2.184993235E0
6.425004500E0,-1.773774503E0,-1.842870466E0,6.097277677E-1,2.629489587E0
6.435031500E0,-2.512088682E0,-1.189941714E0,7.628653224E-1,2.882449363E0
6.445058500E0,-2.643840192E0,-5.419544452E-1,2.972946632E-1,2.715140825E0
6.455085500E0,-2.570534234E0,-3.926551491E-1,2.314441976E-1,2.610630332E0
6.465112500E0,-2.922671395E0,-2.420209336E-1,2.033705458E-1,2.939717978E0
6.475138500E0,-3.059313808E0,-2.326180261E-1,7.147917080E-1,3.150307811E0
6.485165500E0,-2.714533906E0,-2.561302650E-1,1.110470598E0,2.944051968E0
6.495192500E0,-2.191189540E0,-2.449574053E-2,1.272306179E0,2.533905021E0
6.505219500E0,-1.197378203E0,-2.873731077E-2,1.931578282E0,2.272781347E0
6.515246500E0,-5.972062112E-1,5.203495681E-2,1.946705613E0,2.036915718E0
6.525273500E0,9.438283145E-3,1.992128831E-1,1.688405447E0,1.700143466E0
6.535299500E0,7.266417483E-1,4.624633026E-1,1.752592964E0,1.952808909E0
6.545326500E0,7.958239574E-1,6.005903238E-1,1.855074774E0,2.106026335E0
6.555353500E0,9.672738221E-1,8.267009836E-1,1.994350773E0,2.365689787E0
6.565380500E0,8.491098529E-1,8.267413294E-1,2.539108666E0,2.802063808E0
6.575407500E0,5.239548151E-1,6.963542676E-1,2.836250424E0,2.967112129E0
6.585434500E0,1.357130713E-1,7.476261628E-1,2.842837020E0,2.942632366E0
6.595460500E0,-1.839123277E-1,7.914259011E-1,2.798090033E0,2.913672345E0
6.605487500E0,-3.980731060E-1,9.602905655E-1,2.659245851E0,2.855207289E0
6.615514500E0,-6.334842009E-1,1.375744593E0,2.416229429E0,2.851690739E0
6.625541500E0,-6.847549266E-1,1.800736014E0,2.000892930E0,2.777609048E0
6.635568500E0,-7.106765838E-1,2.203547777E0,1.468509792E0,2.741752181E0
6.645595500E0,-8.161451514E-1,2.673040602E0,8.198383990E-1,2.912623211E0
6.655622500E0,-6.715473821E-1,3.055830329E0,3.286851481E-1,3.145967071E0
6.665648500E0,-2.955910038E-1,3.244851515E0,4.067293972E-2,3.258541036E0
6.675675500E0,-9.235370144E-2,3.131149483E0,-3.091703582E-1,3.147731342E0
6.685702500E0,-2.463244113E-1,2.592725002E0,-1.047691237E0,2.807232726E0
6.695729500E0,-5.377858921E-1,1.733369658E0,-1.876303383E0,2.610421120E0
6.705756500E0,-6.262473945E-1,6.605862647E-1,-2.598690624E0,2.753498315E0
6.715783500E0,-5.155012031E-1,-5.543101966E-1,-3.253165087E0,3.340072509E0
6.725809500E0,-3.712039076E-1,-1.610893294E0,-3.878153210E0,4.215784846E0
6.735836500E0,-4.804721421E-1,-2.183539190E0,-5.019575021E0,5.494982281E0
6.745863500E0,-7.963103727E-1,-1.932836895E0,-6.844627851E0,7.156738021E0
6.755890500E0,-4.400424466E-2,-5.181404901E-1,-8.917077545E0,8.932226927E0
6.765917500E0,1.929916357E0,1.223684242E0,-8.261360257E0,8.571584075E0
6.775944500E0,4.324541640E0,2.936796221E0,-2.489613155E0,5.790043704E0
6.785970500E0,5.980049189E0,4.268921755E0,5.346357193E0,9.086705481E0
6.795997500E0,4.336234902E0,3.720802006E0,9.716646863E0,1.127211280E1
6.806024500E0,7.501697016E-1,2.605809317E0,1.112977621E1,1.145534440E1
6.816051500E0,-2.557697842E0,1.069123036E0,8.679627964E0,9.111574173E0
6.826078500E0,-4.244768077E0,-7.376601684E-1,6.659828939E0,7.931930411E0
6.836105500E0,-5.753487124E0,-3.199294104E0,7.324666715E-1,6.623790779E0
6.846132500E0,-6.663472924E0,-6.829578872E0,-1.093486162E1,1.451262270E1
6.856158500E0,-4.518670369E0,-7.699221223E0,-8.251421160E0,1.215657602E1
6.866185500E0,-1.169804415E0,-4.896523876E0,3.541037546E0,6.154943976E0
6.876212500E0,6.142046153E-1,-1.018831134E0,6.112999086E0,6.227681913E0
6.886239500E0,-2.639199988E-1,2.327601719E0,3.752005964E0,4.423226457E0
6.896266500E0,-9.204938310E-1,3.355991882E0,2.700353531E0,4.404758745E0
6.906293500E0,-7.449496729E-1,2.947629942E0,2.267292075E0,3.792635712E0
6.916319500E0,3.442677585E-1,1.706799910E0,1.754277255E0,2.471674515E0
6.926346500E0,1.985550129E0,-3.691125047E-1,1.725740211E0,2.656469957E0
6.936373500E0,2.566099121E0,-2.307952736E0,3.100213619E0,4.639270957E0
6.946400500E0,2.669916435E0,-3.216224132E0,3.893053962E0,5.712129252E0
6.956427500E0,2.788185727E0,-3.043421368E0,3.486874788E0,5.403210995E0
6.966454500E0,2.713035557E0,-2.292246530E0,2.340722579E0,4.253697013E0
6.976480500E0,2.125224908E0,-1.115525955E0,1.469622810E0,2.814386304E0
6.986507500E0,1.518907529E0,1.945719481E-2,1.335319429E0,2.022507513E0
6.996534500E0,9.960262625E-1,8.700364530E-1,1.525101192E0,2.018654352E0
7.006561500E0,3.910068921E-1,1.283936875E0,1.529366151E0,2.034782817E0
7.016588583E0,-3.013003714E-1,1.291321909E0,1.101767457E0,1.724002817E0
7.026615583E0,-9.747401317E-1,1.096296802E0,6.517913946E-1,1.605246717E0
7.036641583E0,-1.243151084E0,7.102104145E-1,3.700842389E-1,1.478778481E0
7.046668583E0,-1.379068443E0,2.600841522E-1,-1.171302545E-1,1.408258866E0
7.056695583E0,-1.815449655E0,6.405449331E-2,-5.948115937E-1,1.911481431E0
7.066722583E0,-1.492890927E0,-3.009737313E-2,-4.690824238E-1,1.565141365E0
7.076749583E0,-5.676740080E-2,-1.432678932E-1,-1.093567321E0,1.104372090E0
7.086776583E0,8.751967670E-1,-1.225389290E-1,-1.689351819E0,1.906539991E0
7.096803583E0,1.083531160E0,-2.743864417E-2,-1.313076475E0,1.702633984E0
7.106829583E0,1.025941714E0,7.620676160E-3,-3.558592423E-1,1.085932906E0
7.116856583E0,6.060174901E-1,8.110088110E-2,4.609266543E-1,7.656944116E-1
7.126883583E0,5.919224113E-2,2.834408551E-1,5.398079324E-1,6.125643180E-1
7.136910583E0,-1.754900714E-1,5.477636540E-1,3.056129122E-1,6.513378830E-1
7.146937583E0,-3.656672522E-1,7.057302779E-1,5.815173368E-2,7.969626017E-1
7.156964583E0,-5.472379893E-1,7.185350955E-1,-2.283004604E-1,9.316024906E-1
7.166990583E0,-6.780299708E-1,7.125194800E-1,-6.521031243E-1,1.180104714E0
7.177017583E0,-4.368041123E-1,3.301063138E-1,-1.165481057E0,1.287677796E0
7.187044583E0,2.877933763E-1,-5.685820806E-1,-1.591503342E0,1.714349293E0
7.197071583E0,1.252344662E0,-1.403294919E0,-2.198701020E0,2.893421842E0
7.207098583E0,2.099035521E0,-1.925638388E0,-2.878524624E0,4.049683609E0
7.217125583E0,2.295074244E0,-2.353140019E0,-3.567357033E0,4.850842188E0
7.227152583E0,1.827152273E0,-2.453139101E0,-4.077788554E0,5.097522572E0
7.237178583E0,1.214184782E0,-2.083885093E0,-4.103965369E0,4.760184190E0
7.247205583E0,8.385222995E-1,-1.484361886E0,-4.057330901E0,4.400952612E0
7.257232583E0,3.821201476E-1,-1.056036383E0,-4.360132472E0,4.502441984E0
7.267259583E0,-2.139752754E-1,-8.878178358E-1,-5.083165246E0,5.164549820E0
7.277286583E0,-7.569430431E-1,-6.920922321E-1,-5.911606945E0,5.999920925E0
7.287313583E0,-9.649452415E-1,-3.038581628E-1,-6.127657471E0,6.210606668E0
7.297339583E0,-1.035920426E0,1.580595946E-1,-5.913036005E0,6.005173500E0
7.307366583E0,-1.222790056E0,6.959192348E-1,-5.965761518E0,6.129423267E0
7.317393583E0,-1.124585631E0,1.257243167E0,-6.185058417E0,6.410951633E0
7.327420583E0,-5.904775643E-1,1.539466631E0,-5.159116484E0,5.416189081E0
7.337447583E0,-5.872336753E-2,8.985925001E-1,-2.730268471E0,2.874940493E0
7.347474583E0,3.882230327E-1,-1.976809126E-1,2.503965584E-1,5.024871171E-1
7.357500583E0,1.019177655E0,-1.138592051E0,3.498941102E0,3.818075927E0
7.367527583E0,2.448857916E0,-2.153434215E0,6.366414489E0,7.153000591E0
7.377554583E0,3.355968201E0,-3.293631327E0,7.032754998E0,8.459915647E0
7.387581583E0,2.641060426E0,-3.606649738E0,5.649876802E0,7.204459062E0
7.397608583E0,2.059621341E0,-3.717400095E0,4.866650451E0,6.461067261E0
7.407635583E0,1.369656765E0,-3.218579975E0,1.205628040E0,3.699831845E0
7.417661583E0,3.825681174E-1,-2.776832188E0,-1.541655975E0,3.199040249E0
7.427688583E0,-8.331250271E-1,-2.107104971E0,7.689486194E-1,2.392753780E0
7.437715583E0,-1.545564254E0,-9.824175990E-1,2.814869496E0,3.358184551E0
7.447742583E0,-1.630601919E0,-6.459302187E-2,2.338151851E0,2.851313549E0
7.457769583E0,-1.272904641E0,2.770100874E-1,1.077339836E0,1.690467964E0
7.467796583E0,-1.123953912E0,-2.635983288E-2,3.884328747E-1,1.189473554E0
7.477823583E0,-1.237665227E0,-2.916509306E-1,5.178454980E-1,1.372967384E0
7.487849583E0,-1.139165955E0,-3.120846105E-1,8.593430650E-1,1.460673263E0
7.497876583E0,-1.017218326E0,-1.707743651E-1,1.214880382E0,1.593684833E0
7.507903583E0,-7.175449426E-1,2.338886261E-3,1.587237506E0,1.741895266E0
7.517930583E0,-3.413747755E-1,2.228888440E-1,1.222817684E0,1.288991568E0
7.527957583E0,-1.721484607E-1,5.467450690E-1,9.289980215E-1,1.091605509E0
7.537984583E0,-4.913042553E-1,8.768157148E-1,1.214698241E0,1.576603148E0
7.548010583E0,-1.065326220E0,1.194528270E0,1.757339734E0,2.376985630E0
7.558037583E0,-1.731702032E0,1.468263917E0,2.309744031E0,3.238751047E0
7.568064583E0,-2.232986754E0,1.683822107E0,2.805556635E0,3.961393033E0
7.578091583E0,-2.549473440E0,1.830842158E0,2.941525742E0,4.301670782E0
7.588118583E0,-2.662718805E0,1.915222743E0,2.963381757E0,4.420382452E0
7.598145583E0,-2.557378876E0,1.933613405E0,2.712962175E0,4.199906103E0
7.608171583E0,-2.198647518E0,1.819644156E0,2.245093998E0,3.631198538E0
7.618198583E0,-1.636164960E0,1.690279772E0,1.559415285E0,2.822385075E0
7.628225583E0,-1.137449432E0,1.676400236E0,7.785781065E-1,2.170320905E0
7.638252583E0,-8.810112382E-1,1.834724709E0,-4.848335803E-2,2.035864975E0
7.648279583E0,-7.705476136E-1,2.005890838E0,-1.036098255E0,2.385548422E0
7.658306583E0,-6.800384894E-1,1.942988246E0,-2.088592979E0,2.932554570E0
7.668333583E0,-5.430774030E-1,1.405904531E0,-3.245645275E0,3.578507212E0
7.678359583E0,4.746258035E-3,4.820859736E-1,-4.172038069E0,4.199801313E0
7.688386583E0,9.025436830E-1,-3.751018077E-1,-4.825975173E0,4.923953984E0
7.698413583E0,1.760477642E0,-1.256912799E0,-5.784996600E0,6.176187900E0
7.708440583E0,2.465547185E0,-2.168246967E0,-7.284978154E0,7.990689866E0
7.718467583E0,3.367121472E0,-2.438821608E0,-8.954682158E0,9.872775213E0
7.728494583E0,4.582544475E0,-1.120397855E0,-7.317356526E0,8.706245560E0
7.738520583E0,4.909583048E0,1.252556623E0,-1.067929327E0,5.178163462E0
7.748547583E0,4.464288632E0,4.664198211E0,7.156148205E0,9.638209122E0
7.758574583E0,1.526279698E0,6.475812385E0,1.118975812E1,1.301830875E1
7.768601583E0,-2.044630396E0,5.742049971E0,1.094545911E1,1.252815735E1
7.778628583E0,-3.953429095E0,4.210080639E0,9.530912982E0,1.114417708E1
7.788655583E0,-5.633643177E0,1.589232284E0,7.708430003E0,9.679023081E0
7.798682583E0,-7.460544897E0,-2.696486183E0,1.024662709E0,7.998793756E0
7.808708583E0,-6.274899716E0,-7.175753335E0,-8.934630886E0,1.306496963E1
7.818735583E0,-3.402235172E0,-7.887015663E0,-5.117115934E0,9.998254634E0
7.828762583E0,-4.462492660E-1,-5.791815623E0,1.705877804E0,6.054278297E0
7.838789583E0,1.273739916E0,-2.747303749E0,3.264383847E0,4.452672587E0
7.848816583E0,3.644878688E-1,1.581122196E-1,2.800083934E0,2.828130286E0
7.858843583E0,-8.084912923E-1,1.221043639E0,1.681612736E0,2.229893974E0
7.868869583E0,-1.202346144E0,1.279819266E0,7.836382869E-1,1.922930724E0
7.878896583E0,-1.022171722E0,8.340053254E-1,9.687832077E-1,1.636747022E0
7.888923583E0,-1.319430790E-1,4.411139488E-3,2.487693222E0,2.491193690E0
7.898950583E0,9.335955410E-1,-7.457538843E-1,3.881463611E0,4.061220168E0
7.908977583E0,1.491747358E0,-1.102145771E0,4.372025124E0,4.749172472E0
7.919004583E0,1.715195342E0,-1.106111353E0,3.720333059E0,4.243377836E0
7.929030583E0,1.605153375E0,-9.524436021E-1,2.749994638E0,3.323572879E0
7.939057583E0,1.336724954E0,-6.339229614E-1,2.223304349E0,2.670538176E0
7.949084583E0,1.015316519E0,-1.430895531E-1,2.182742068E0,2.411577324E0
7.959111583E0,6.773841459E-1,3.699164969E-1,2.153907255E0,2.288013103E0
7.969138583E0,3.540128012E-1,8.483614093E-1,1.961256702E0,2.166003231E0
7.979165583E0,-3.428905930E-2,1.101323068E0,1.259724140E0,1.673616787E0
7.989192583E0,-3.659849752E-1,1.075272553E0,1.521749568E-1,1.145998814E0
7.999218583E0,-3.681179664E-1,7.555520636E-1,-2.439914088E-1,8.751580232E-1
8.009245583E0,-1.284366500E-1,1.898082215E-1,-1.316313859E-1,2.642914220E-1
8.019272208E0,6.671040829E-2,-1.533917624E-1,-7.631212842E-1,7.812383796E-1
8.029299208E0,5.357714898E-1,-2.728451157E-1,-8.308753109E-1,1.025597060E0
8.039326208E0,9.669805842E-1,-2.172895503E-1,-4.934231766E-1,1.107128100E0
8.049353208E0,1.099940640E0,-2.286863583E-1,-7.187900341E-1,1.333726350E0
8.059379208E0,1.053110217E0,-2.383792877E-1,-8.631180274E-1,1.382330837E0
8.069406208E0,9.644094904E-1,-1.666982710E-1,-2.144899035E-1,1.001938071E0
8.079433208E0,5.673487566E-1,-1.814233142E-1,3.772068053E-1,7.050418460E-1
8.089460208E0,1.731959894E-1,-9.247605443E-2,5.905798906E-1,6.223610516E-1
8.099487208E0,1.209490345E-1,5.615198135E-2,8.023175097E-1,8.133234905E-1
8.109514208E0,1.687840094E-1,1.432281321E-1,7.153653198E-1,7.488323447E-1
8.119541208E0,-3.416095777E-1,2.782976443E-1,2.178204044E-1,4.915205092E-1
8.129567208E0,-6.094670184E-1,4.758996195E-1,-7.409953471E-1,1.070983006E0
8.139594208E0,-6.510797884E-1,3.896935344E-1,-1.713748741E0,1.874220022E0
8.149621208E0,-4.453395123E-1,1.282797253E-1,-2.427090924E0,2.470941789E0
8.159648208E0,-1.379824488E-1,-2.499146748E-1,-2.962926843E0,2.976647775E0
8.169675208E0,1.524095763E-1,-7.170417166E-1,-3.270509682E0,3.351657961E0
8.179702208E0,4.006176681E-1,-1.016025056E0,-3.630647880E0,3.791359316E0
8.189728208E0,5.650529571E-1,-1.038201790E0,-3.771779786E0,3.952653609E0
8.199755208E0,7.379146685E-1,-9.044139880E-1,-3.897185020E0,4.068234728E0
8.209782208E0,7.314491098E-1,-7.234490955E-1,-3.916070942E0,4.048951471E0
8.219809208E0,6.201967688E-1,-5.148409063E-1,-3.949580750E0,4.030991601E0
8.229836208E0,6.042060592E-1,-3.047948867E-1,-4.119885291E0,4.175095172E0
8.239863208E0,5.580163812E-1,-2.046344215E-1,-4.411085694E0,4.450947599E0
8.249889208E0,1.775214307E-1,-9.420916915E-2,-4.591806173E0,4.596202036E0
8.259916208E0,-1.645790208E-1,-1.032969117E-2,-4.988505841E0,4.991230658E0
8.269943208E0,-2.990033292E-1,-1.737207770E-3,-5.213823618E0,5.222390519E0
8.279970208E0,-2.800197589E-1,-2.585545206E-1,-4.810542324E0,4.825616951E0
8.289997208E0,-3.210303753E-1,-7.491698277E-1,-4.336874587E0,4.412799238E0
8.300024208E0,-5.460286389E-1,-1.022952837E0,-4.183950017E0,4.341660688E0
8.310051208E0,-6.479336210E-1,-1.151852367E0,-4.320940924E0,4.518529885E0
8.320077208E0,-5.628832380E-1,-1.489188178E0,-3.659491611E0,3.990789122E0
8.330104208E0,-3.285936391E-1,-2.099133462E0,-1.151313254E0,2.416579666E0
8.340131208E0,1.499592641E-1,-2.674553277E0,1.995945894E0,3.340587227E0
8.350158208E0,3.652435483E-1,-3.551416939E0,4.054851097E0,5.402571845E0
8.360185208E0,1.766206305E-1,-3.947975689E0,4.651367666E0,6.103517678E0
8.370212208E0,-5.468060263E-2,-3.511214408E0,4.278957331E0,5.535439678E0
8.380238208E0,1.892729089E-2,-2.660998262E0,3.071589160E0,4.063979572E0
8.390265208E0,2.226223023E-1,-1.864433827E0,1.356558709E0,2.316446787E0
8.400292208E0,5.461799356E-1,-1.307920985E0,4.024826375E-1,1.473418507E0
8.410319208E0,2.834027386E-1,-1.214122875E0,6.175174284E-1,1.391308464E0
8.420346208E0,-4.754559620E-1,-9.208686376E-1,1.278999048E0,1.646176170E0
8.430373208E0,-4.276862932E-1,-8.042283797E-1,1.044405102E0,1.385814154E0
8.440400208E0,4.775245607E-2,-8.508119774E-1,6.955154845E-1,1.099955957E0
8.450426208E0,6.169579960E-1,-1.091653528E0,7.636231215E-1,1.468150151E0
8.460453208E0,9.308103660E-1,-1.423880042E0,9.990470803E-1,1.972799376E0
8.470480208E0,1.179668741E0,-1.704928801E0,1.323694726E0,2.459790293E0
8.480507208E0,9.269420674E-1,-1.538378465E0,1.434950283E0,2.298893693E0
8.490534208E0,8.541583389E-1,-1.189442362E0,1.934919673E0,2.426576548E0
8.500561208E0,5.188118235E-1,-8.718637079E-1,2.014975949E0,2.255978748E0
8.510587208E0,1.134276148E-1,-2.808084387E-1,1.902192515E0,1.926150453E0
8.520614208E0,-3.645923512E-1,3.570450211E-1,1.817950509E0,1.888214179E0
8.530641208E0,-1.101746699E0,9.188723981E-1,2.121596418E0,2.561121558E0
8.540668208E0,-1.496894516E0,1.447370061E0,2.517076357E0,3.266687416E0
8.550695208E0,-1.557660828E0,1.676520104E0,3.019027661E0,3.788344616E0
8.560722208E0,-1.669707805E0,1.827347862E0,3.239920851E0,4.077279912E0
8.570749208E0,-1.777982452E0,1.895897110E0,3.419084508E0,4.294855798E0
8.580775208E0,-2.089346977E0,1.970080735E0,3.527593336E0,4.548681527E0
8.590802208E0,-2.202719665E0,2.165043277E0,3.420945385E0,4.608931941E0
8.600829208E0,-1.664829473E0,2.286339088E0,3.109801884E0,4.203554610E0
8.610856208E0,-1.212756307E0,2.408763412E0,2.577230173E0,3.730286102E0
8.620883208E0,-1.010275562E0,2.544964945E0,2.082611570E0,3.440170669E0
8.630910208E0,-9.057523426E-1,2.693804650E0,1.650593550E0,3.286552885E0
8.640936208E0,-7.724316595E-1,2.845679644E0,9.523211029E-1,3.098622079E0
8.650963208E0,-6.428222043E-1,2.909058784E0,2.289833969E-1,2.988022221E0
8.660990208E0,-6.013724620E-1,2.810582902E0,-5.071199504E-1,2.918594821E0
8.671017208E0,-4.645610643E-1,2.299671909E0,-1.486285036E0,2.777292041E0
8.681044208E0,-2.172940088E-1,1.375435275E0,-2.332800187E0,2.716798777E0
8.691071208E0,2.109274873E-1,1.079530495E-1,-2.922167657E0,2.931758531E0
8.701097208E0,7.218258353E-1,-1.220262451E0,-3.567016141E0,3.838447230E0
8.711124208E0,8.104497441E-1,-2.377293697E0,-4.358798430E0,5.030653820E0
8.721151208E0,8.444352964E-1,-3.013931521E0,-5.457495221E0,6.291351863E0
8.731178208E0,1.130041156E0,-2.511738726E0,-7.767035476E0,8.240914059E0
8.741205208E0,1.911905471E0,-8.663901293E-1,-9.612173492E0,9.838693695E0
8.751232208E0,2.859456854E0,1.072674050E0,-8.204084440E0,8.754091879E0
8.761259208E0,3.971339701E0,3.050176072E0,-2.458700095E0,5.578558886E0
8.771285208E0,4.942913346E0,4.965774790E0,6.672353675E0,9.675309565E0
8.781312208E0,2.063639840E0,4.423117509E0,1.235115431E1,1.328057193E1
8.791339208E0,-2.409988403E0,2.692463883E0,1.393176312E1,1.439275615E1
8.801366208E0,-4.320814624E0,9.217375338E-1,1.129823684E1,1.213133112E1
8.811393208E0,-6.286918668E0,-1.356701381E0,5.684397594E0,8.583610020E0
8.821420208E0,-7.705016398E0,-4.930321367E0,-6.205038938E0,1.105340919E1
8.831447208E0,-5.371239434E0,-7.891796347E0,-1.283623114E1,1.599685883E1
8.841473208E0,-2.404550054E0,-6.140455272E0,-1.154579216E0,6.694781929E0
8.851500208E0,-1.312476258E-1,-2.506325374E0,6.359447531E0,6.836773049E0
8.861527208E0,7.285849974E-3,1.000203660E0,5.489181867E0,5.579567906E0
8.871554208E0,-1.173484287E0,2.683869646E0,4.409696395E0,5.293925193E0
8.881581208E0,-1.470683202E0,2.272367166E0,3.356197996E0,4.311684892E0
8.891608208E0,-1.287676170E0,1.182594688E0,2.242373435E0,2.843392118E0
8.901634208E0,1.088720126E-1,-4.301825792E-1,8.600647576E-1,9.677921026E-1
8.911661208E0,1.428962149E0,-2.246641172E0,1.363001902E0,2.991170935E0
8.921688208E0,1.878870164E0,-3.223592209E0,3.112537211E0,4.858969820E0
8.931715208E0,2.321259829E0,-2.964199197E0,4.117285327E0,5.579136361E0
8.941742208E0,2.514959958E0,-2.250931858E0,3.657252127E0,4.976666649E0
8.951769208E0,2.180698028E0,-1.461498104E0,2.514985685E0,3.635460575E0
8.961795208E0,1.917947253E0,-4.797301304E-1,1.619851813E0,2.555891735E0
8.971822208E0,1.521951882E0,4.490696704E-1,1.336256007E0,2.074507463E0
8.981849208E0,9.507561687E-1,1.066785319E0,1.390438646E0,1.993812388E0
8.991876208E0,2.952539118E-1,1.240356408E0,1.060524706E0,1.658424416E0
9.001903208E0,-2.786374406E-1,1.120451065E0,9.479739904E-2,1.158462757E0
9.011930208E0,-5.753388672E-1,8.474293631E-1,-5.833005457E-1,1.178724253E0
9.021956583E0,-4.811598843E-1,5.754402798E-1,-5.473580034E-1,9.285726325E-1
9.031982583E0,-2.218070360E-1,3.966289169E-1,-3.840581341E-1,5.949903439E-1
9.042009583E0,2.128718327E-1,2.890758169E-1,-2.196674667E-2,3.596689909E-1
9.052036583E0,7.156826044E-1,1.482596612E-1,-6.260777521E-1,9.623699232E-1
9.062063583E0,7.974684137E-1,8.299596369E-2,-1.505341111E0,1.705548610E0
9.072090583E0,7.383184918E-1,2.932530677E-1,-1.306232893E0,1.528841368E0
9.082117583E0,7.957617576E-1,4.296458048E-1,-5.289976366E-1,1.047697853E0
9.092143583E0,8.591365121E-1,4.230390358E-1,3.413826692E-1,1.016670890E0
9.102170583E0,9.513171360E-1,4.850855953E-1,8.778658748E-1,1.382375066E0
9.112197583E0,8.244150147E-1,5.134954619E-1,8.943409896E-1,1.320296751E0
9.122224583E0,4.001130169E-1,5.861880469E-1,4.643601394E-1,8.481374839E-1
9.132251583E0,4.238865897E-4,6.460968643E-1,-1.435374042E-2,6.462564256E-1
9.142278583E0,-2.843091301E-1,6.801750219E-1,-3.598376513E-1,8.203370509E-1
9.152305583E0,-3.480761597E-1,5.836801761E-1,-4.573218459E-1,8.191354172E-1
9.162331583E0,-7.035298976E-1,2.954071820E-1,-7.265738475E-1,1.053626725E0
9.172358583E0,-8.629521858E-1,1.262887484E-1,-1.297008911E0,1.562967510E0
9.182385583E0,-8.206797402E-1,-1.390122896E-1,-1.641578313E0,1.840548562E0
9.192412583E0,-5.153163945E-1,-5.008637220E-1,-1.816443390E0,1.953428279E0
9.202439583E0,7.297087591E-2,-7.858090657E-1,-2.053791813E0,2.200200320E0
9.212466583E0,7.447136647E-1,-1.048698712E0,-2.188891731E0,2.538821467E0
9.222492583E0,1.274982449E0,-1.192963555E0,-2.349660925E0,2.927396241E0
9.232519583E0,1.533509634E0,-1.132534336E0,-2.600772525E0,3.224640065E0
9.242546583E0,1.551118524E0,-9.277741992E-1,-2.936620220E0,3.448256365E0
9.252573583E0,1.353141742E0,-6.921600598E-1,-3.317196191E0,3.648817438E0
9.262600583E0,9.830754107E-1,-5.324053574E-1,-3.541429895E0,3.713706831E0
9.272627583E0,3.525034521E-1,-5.937233537E-1,-3.502621924E0,3.570031715E0
9.282654583E0,-6.132957387E-1,-7.707735354E-1,-3.882404428E0,4.005407301E0
9.292680583E0,-1.433019825E0,-9.462005299E-1,-4.860379313E0,5.154816032E0
9.302707583E0,-1.513832438E0,-1.087894353E0,-5.430990377E0,5.742025710E0
9.312734583E0,-1.009787758E0,-1.342163449E0,-4.876072655E0,5.157243311E0
9.322761583E0,-3.504267038E-1,-1.691164455E0,-4.166946314E0,4.510684834E0
9.332788583E0,-2.298072696E-2,-1.604246764E0,-3.812483423E0,4.136322720E0
9.342815583E0,1.982842722E-1,-1.128569339E0,-3.211898947E0,3.410173053E0
9.352841583E0,5.695474194E-1,-6.436574060E-1,-2.363097242E0,2.514539261E0
9.362868583E0,7.227678218E-1,-3.558352321E-1,-1.542245228E0,1.739980569E0
9.372895583E0,3.068639971E-1,-5.728955716E-1,-7.367374778E-1,9.824240224E-1
9.382922583E0,-1.250553513E-1,-8.918834049E-1,5.510685734E-1,1.055827363E0
9.392949583E0,-1.234850816E-1,-1.078093835E0,2.668040356E0,2.880273289E0
9.402976583E0,3.966408671E-1,-1.419796346E0,4.772318491E0,4.994814253E0
9.413003583E0,8.409370534E-1,-1.780407000E0,5.166170565E0,5.528683615E0
9.423029583E0,1.240004113E0,-2.008914433E0,3.688746400E0,4.379520225E0
9.433056583E0,1.752206756E0,-2.160264933E0,1.220145361E0,3.037388318E0
9.443083583E0,1.791234143E0,-2.248999938E0,-2.202785008E-1,2.883581643E0
9.453110583E0,8.742174315E-1,-2.034779592E0,4.576498747E-2,2.215102376E0
9.463137583E0,-1.039751887E-1,-1.560320141E0,1.315755377E0,2.043678545E0
9.473164583E0,-5.527713191E-1,-1.169813844E0,2.187793331E0,2.541743540E0
9.483190583E0,-5.654073714E-1,-9.057085615E-1,2.387271678E0,2.615159567E0
9.493217583E0,-2.900846443E-1,-9.833034521E-1,1.975134776E0,2.225352144E0
9.503244583E0,1.115938915E-1,-1.330850256E0,1.185701898E0,1.785918417E0
9.513271583E0,2.838133959E-1,-1.752432166E0,6.328622764E-1,1.884697111E0
9.523298583E0,-4.392570924E-2,-1.841993383E0,6.939849758E-1,1.968878929E0
9.533325583E0,-2.952611478E-1,-1.204745695E0,1.076123908E0,1.642143112E0
9.543352583E0,-5.748290265E-1,-4.192716748E-1,1.414598172E0,1.583447231E0
9.553378583E0,-6.764567775E-1,3.272622281E-1,1.789024918E0,1.940439253E0
9.563405583E0,-6.314380409E-1,9.482131416E-1,2.084353163E0,2.375363187E0
9.573432583E0,-8.655580705E-1,1.507319224E0,2.364697040E0,2.934790301E0
9.583459583E0,-1.165841684E0,1.896160235E0,2.497163372E0,3.345210812E0
9.593486583E0,-1.370457248E0,2.123160841E0,2.764318270E0,3.745319816E0
9.603513583E0,-1.451565146E0,2.169464942E0,2.840152564E0,3.857471464E0
9.613539583E0,-1.524991703E0,2.047633526E0,2.838130012E0,3.817510277E0
9.623566583E0,-1.760992051E0,1.930065899E0,2.869059444E0,3.880431609E0
9.633593583E0,-1.906199319E0,1.806236490E0,2.852759745E0,3.877412058E0
9.643620583E0,-2.021009983E0,1.813118663E0,2.603886752E0,3.761928609E0
9.653647583E0,-1.874239754E0,1.887416309E0,2.311347045E0,3.523838836E0
9.663674583E0,-1.430476724E0,1.846372363E0,2.087222392E0,3.132387568E0
9.673701583E0,-1.187580243E0,1.870828342E0,1.748061957E0,2.822422032E0
9.683727583E0,-1.146123704E0,1.924175999E0,1.194831741E0,2.538439621E0
9.693754583E0,-1.246965223E0,1.967253606E0,4.397354677E-1,2.370311435E0
9.703781583E0,-1.326743172E0,1.651116875E0,-5.079300821E-1,2.178170643E0
9.713808583E0,-1.378590725E0,7.381858331E-1,-1.547227933E0,2.199851129E0
9.723835583E0,-1.005263182E0,-2.915661460E-1,-2.758823641E0,2.950707164E0
9.733862583E0,-3.592565842E-1,-1.371363859E0,-3.904966494E0,4.154331168E0
9.743888583E0,4.966038061E-1,-2.482047735E0,-4.959752158E0,5.568331686E0
9.753915583E0,1.207919783E0,-3.285444056E0,-5.910857917E0,6.869603639E0
9.763942583E0,1.097968301E0,-3.402324049E0,-6.754356197E0,7.642164024E0
9.773969583E0,8.346836025E-1,-2.133829086E0,-7.610234202E0,7.947678145E0
9.783996583E0,7.433616422E-1,4.366876066E-2,-7.064773182E0,7.103908333E0
9.794023583E0,6.901926179E-1,1.979241568E0,-4.009230828E0,4.524123657E0
9.804050583E0,1.920047280E0,3.958503601E0,1.249293585E0,4.573517987E0
9.814076583E0,4.079991201E0,5.268342472E0,7.938958819E0,1.036478788E1
9.824103583E0,3.441475836E0,4.414648987E0,1.063249157E1,1.201593769E1
9.834130583E0,5.121785959E-1,3.471085551E0,1.124125338E1,1.177610035E1
9.844157583E0,-1.951779242E0,2.352935951E0,9.576028343E0,1.005216736E1
9.854184583E0,-3.459735229E0,4.852990186E-1,6.415028239E0,7.304647172E0
9.864211583E0,-4.295469868E0,-2.120322602E0,1.751712373E0,5.100522088E0
9.874238583E0,-3.672909216E0,-4.913398356E0,-6.807407985E0,9.163653692E0
9.884264583E0,-1.932718781E0,-6.112321393E0,-6.526724676E0,9.148443021E0
9.894291583E0,-8.877722275E-1,-4.898364580E0,1.245507512E0,5.131608329E0
9.904318583E0,-3.984313211E-1,-1.774258068E0,4.123101844E0,4.506296487E0
9.914345583E0,-1.604949453E0,1.199124182E0,2.898548999E0,3.523541947E0
9.924372583E0,-2.552781503E0,2.199089860E0,8.991412613E-1,3.487283272E0
9.934399583E0,-2.344558645E0,2.325513094E0,-5.176706663E-1,3.342596193E0
9.944425583E0,-1.282450952E0,1.969140503E0,-7.807901081E-1,2.476252805E0
9.954452583E0,4.052194268E-1,6.756405061E-1,8.982881525E-1,1.194828223E0
9.964479583E0,2.166113610E0,-9.640023780E-1,2.910267111E0,3.753798532E0
9.974506583E0,3.364318610E0,-2.172068707E0,3.789608531E0,5.513406841E0
9.984533583E0,4.138380034E0,-2.849337078E0,3.145306762E0,5.927720111E0
9.994560583E0,4.290745903E0,-2.658966939E0,1.695442278E0,5.324953531E0
1.000458758E1,3.720975668E0,-1.669654888E0,1.132886484E0,4.232828741E0
1.001461458E1,2.634898045E0,-6.020579749E-1,1.272677916E0,2.987452190E0
1.002464158E1,1.478310018E0,4.608073711E-1,1.323037937E0,2.036706490E0
1.003466858E1,3.127921236E-1,1.213048156E0,1.025130486E0,1.618708515E0
1.004469558E1,-3.270767252E-1,1.462509672E0,7.280789208E-1,1.666137041E0
1.005472258E1,-5.863901413E-1,1.480530206E0,5.723430097E-1,1.692158270E0
1.006474958E1,-7.687891366E-1,1.228639172E0,2.160733294E-1,1.465359559E0
1.007477558E1,-7.419822109E-1,8.488613462E-1,-4.121141712E-1,1.200392135E0
1.008480258E1,-5.988852757E-1,3.843930334E-1,-8.344129495E-1,1.096661547E0
1.009482958E1,-3.356612418E-1,-1.157163978E-2,-8.457330128E-1,9.099817037E-1
1.010485658E1,9.378970452E-2,-2.381939310E-1,-7.885085790E-1,8.290226997E-1
1.011488358E1,4.271747714E-1,-7.514420557E-1,-7.078873158E-1,1.117250151E0
1.012491058E1,7.988656059E-1,-5.920931500E-1,-4.656932680E-1,1.098012192E0
1.013493758E1,9.896058735E-1,-9.649659991E-2,-8.686386030E-2,9.980865238E-1
1.014496358E1,9.012968373E-1,5.540570122E-1,-7.948003292E-2,1.060958169E0
1.015499058E1,5.586980934E-1,6.226506990E-1,1.158218304E-2,8.366430539E-1
1.016501758E1,5.185590045E-1,2.756886166E-1,1.066029274E-1,5.968851134E-1
1.017504458E1,8.994630043E-1,4.001466018E-1,1.540729630E-1,9.964383960E-1
1.018507158E1,9.741370645E-1,5.446406561E-1,2.955176944E-1,1.154515991E0
1.019509858E1,3.529889172E-1,2.836940396E-1,1.665251935E-1,4.825081593E-1
1.020512558E1,1.563435830E-3,2.669698334E-1,-2.190799677E-1,3.453568713E-1
1.021515158E1,-2.006014872E-1,1.793294263E-1,-4.884921831E-1,5.576958066E-1
1.022517858E1,-3.357570996E-1,-1.147311419E-1,-7.293308097E-1,8.110607220E-1
1.023520558E1,-3.470538106E-1,-8.527058905E-1,-1.099043823E0,1.433684418E0
1.024523258E1,4.998839479E-2,-1.297604157E0,-1.698406232E0,2.137956762E0
1.025525958E1,5.659806544E-1,-1.298220454E0,-2.383674179E0,2.772654511E0
1.026528658E1,9.787894017E-1,-1.239493943E0,-3.002375668E0,3.392437705E0
1.027531258E1,1.236428541E0,-1.015674807E0,-3.554341716E0,3.897909169E0
1.028533958E1,8.514212573E-1,-9.475816423E-1,-4.117989331E0,4.310529580E0
1.029536658E1,3.329942902E-1,-7.663302362E-1,-4.311250334E0,4.391472039E0
1.030539358E1,-2.664585309E-1,-7.564192057E-1,-4.083237575E0,4.161249723E0
1.031542058E1,-1.229036929E0,-1.341364719E0,-3.784238448E0,4.198839330E0
1.032544758E1,-9.507555840E-1,-8.679185915E-1,-3.820356699E0,4.031419622E0
1.033547458E1,-1.204370742E0,-9.294073266E-1,-4.273490769E0,4.536191158E0
1.034550058E1,-6.766320477E-1,-3.439899427E-1,-4.993113447E0,5.050479373E0
1.035552758E1,6.158357692E-1,4.660347819E-1,-4.905728563E0,4.966146881E0
1.036555458E1,3.472806825E-1,-6.095576137E-1,-3.884677241E0,3.947515880E0
1.037558158E1,-1.159525887E-1,-7.776586318E-1,-3.292453698E0,3.385033132E0
1.038560858E1,-9.251816900E-1,-1.986601458E0,-2.675025147E0,3.458078376E0
1.039563558E1,-3.470150728E-1,-1.260784825E0,-1.915360737E0,2.319181879E0
1.040566158E1,6.315314502E-1,1.096534199E-1,-5.431719817E-2,6.432777029E-1
1.041568858E1,5.659349364E-1,-7.305476153E-1,2.026977067E0,2.227693471E0
1.042571558E1,9.254239109E-1,-1.562109389E0,3.405190355E0,3.859004601E0
1.043574258E1,1.770312951E0,-1.928325768E0,4.752916260E0,5.426109212E0
1.044576958E1,2.002263225E0,-2.292072868E0,5.415637343E0,6.212228576E0
1.045579658E1,1.353610543E0,-2.309099375E0,4.838820044E0,5.529772223E0
1.046582358E1,4.788764735E-1,-2.488953297E0,3.222848443E0,4.100117471E0
1.047584958E1,1.394073970E-1,-2.331071457E0,9.918270846E-1,2.537134117E0
1.048587658E1,-1.924234618E-2,-1.806996043E0,-3.502833009E-1,1.840734462E0
1.049590358E1,-2.054239052E-1,-1.357076772E0,5.816105542E-1,1.490680108E0
1.050593058E1,-9.697335264E-1,-8.287644660E-1,2.027506094E0,2.395415332E0
1.051595758E1,-1.305749621E0,-3.720723653E-1,2.359006530E0,2.721825073E0
1.052598458E1,-1.298247643E0,-2.016587734E-2,1.559768457E0,2.029465753E0
1.053601058E1,-1.093629960E0,1.766204113E-1,8.920316318E-1,1.422301547E0
1.054603758E1,-6.395393582E-1,-4.853013575E-2,4.622528028E-1,7.905968748E-1
1.055606458E1,-4.824793816E-1,-3.971002024E-1,3.613570502E-1,7.218405933E-1
1.056609158E1,-6.850312807E-1,-9.710634756E-1,6.863675156E-1,1.372345618E0
1.057611858E1,-7.245812626E-1,-1.326761883E0,9.845696667E-1,1.804076642E0
1.058614558E1,-4.702046141E-1,-8.260431719E-1,1.009176504E0,1.386317755E0
1.059617258E1,-1.213689377E-1,3.666075575E-1,1.027181251E0,1.097375434E0
1.060619858E1,-6.419462914E-1,1.361885523E0,1.746658917E0,2.306001863E0
1.061622558E1,-8.778618548E-1,1.964003139E0,2.045078585E0,2.968214309E0
1.062625258E1,-1.051622027E0,2.092800928E0,2.298370027E0,3.281498041E0
1.063627958E1,-1.233979142E0,2.035095341E0,2.613185287E0,3.534551586E0
1.064630658E1,-1.499075381E0,1.847379838E0,2.680034164E0,3.583660473E0
1.065633358E1,-1.608738888E0,1.434530160E0,2.677315794E0,3.437140883E0
1.066636058E1,-1.621860332E0,1.018463345E0,2.569405721E0,3.204612969E0
1.067638658E1,-1.586747802E0,7.846314365E-1,2.328943948E0,2.925302547E0
1.068641358E1,-1.309253419E0,1.118496925E0,1.847400596E0,2.525483884E0
1.069644058E1,-1.133148659E0,1.672331159E0,1.514628829E0,2.524840168E0
1.070646758E1,-9.287320463E-1,1.879196293E0,1.474282164E0,2.562699713E0
1.071649458E1,-6.850867561E-1,1.787972127E0,1.288997933E0,2.308181939E0
1.072652158E1,-5.289142773E-1,1.577334369E0,8.908443546E-1,1.887150680E0
1.073654758E1,-4.223606126E-1,1.675158287E0,3.436858875E-1,1.761437982E0
1.074657458E1,-2.850936437E-1,1.955870247E0,-1.608080783E-1,1.983069854E0
1.075660158E1,-1.788699082E-1,2.271491838E0,-4.746559167E-1,2.327438045E0
1.076662858E1,-2.312376447E-1,1.435024835E0,-3.403427419E-1,1.492849727E0
1.077665558E1,-3.355138920E-1,-2.281870061E-1,-7.802246824E-1,8.794256287E-1
1.078668258E1,-3.468734971E-1,-1.529194828E0,-1.778212247E0,2.370821976E0
1.079670958E1,-3.708494201E-1,-1.566881302E0,-2.884110177E0,3.303140599E0
1.080673558E1,1.414944327E-1,-1.225308598E0,-3.505927063E0,3.716574553E0
1.081676258E1,7.928856584E-1,-5.594557464E-1,-3.840403586E0,3.961105666E0
1.082678958E1,8.703427009E-1,-1.235013807E-1,-3.784134660E0,3.884896927E0
1.083681658E1,7.796034157E-1,2.527529132E-1,-3.205425202E0,3.308536874E0
1.084684358E1,4.365936857E-1,8.565972126E-1,-2.584980657E0,2.757988004E0
1.085687058E1,3.800864860E-1,1.479417481E0,-2.006637235E0,2.521851465E0
1.086689658E1,5.610732324E-1,1.637988707E0,-1.247347046E0,2.133936463E0
1.087692358E1,1.412145557E0,1.486078044E0,-1.680434230E-1,2.056896113E0
1.088695058E1,2.037350028E0,1.194718305E0,6.034984365E-1,2.437695085E0
1.089697758E1,1.587816088E0,7.244162250E-1,6.073690009E-1,1.847927461E0
1.090700458E1,1.256368131E0,3.417937285E-1,-5.718299165E-1,1.422066555E0
1.091703158E1,1.379718361E0,-3.311091113E-1,-1.574297326E0,2.119355579E0
1.092705858E1,1.282840523E0,-1.495610175E0,-1.117804030E0,2.265395209E0
1.093708458E1,8.299233842E-1,-2.230463680E0,1.245555752E0,2.686103159E0
1.094711158E1,-1.256566498E0,-2.103030047E0,4.890090770E0,5.469431641E0
1.095713858E1,-4.099511545E0,-9.121545321E-1,6.820522120E0,8.009840372E0
1.096716558E1,-5.916373011E0,5.565333080E-1,5.136101843E0,7.854472679E0
1.097719258E1,-8.121329382E0,1.511277205E-1,3.012321782E-1,8.128319097E0
1.098721958E1,-8.435628918E0,-1.942791195E0,-4.548948713E0,9.778916467E0
1.099724658E1,-5.016262574E0,-3.455703866E0,-3.377087467E0,6.964876106E0
1.100727258E1,-1.150573069E0,-1.858519369E0,3.276076816E0,3.938348885E0
1.101729875E1,6.617991234E-1,-1.805023777E-1,6.335600832E0,6.372628742E0
1.102732575E1,1.184747048E0,-1.253695661E-1,6.431178834E0,6.540596631E0
1.103735275E1,1.203972328E0,-3.711110830E-2,5.458585142E0,5.589908617E0
1.104737975E1,1.982708967E0,5.013923103E-1,4.460191196E0,4.906713217E0
1.105740675E1,3.542653132E0,2.371420169E-1,2.861062499E0,4.559858131E0
1.106743275E1,4.696466363E0,2.199593890E-1,2.296082596E0,5.232320108E0
1.107745975E1,3.824454136E0,-4.317028552E-1,2.776880428E0,4.745933175E0
1.108748675E1,2.059863123E0,-6.572960365E-1,3.061016517E0,3.747652103E0
1.109751375E1,-1.208531548E0,4.090816736E0,1.709632594E0,4.595451411E0
1.110754075E1,-5.772828471E-1,-1.102227048E0,4.722359295E0,4.883527134E0
1.111756775E1,3.607615113E-1,-5.519248835E0,3.648809917E0,6.626165586E0
1.112759475E1,-1.606648508E0,-2.589847003E0,2.730871904E-1,3.059935218E0
1.113762075E1,-1.879650475E0,-2.229287220E0,6.895533711E-2,2.916772576E0
1.114764775E1,-2.321963103E0,-2.083719617E0,1.556926417E-1,3.123722186E0
1.115767475E1,-1.249722039E0,-5.143082249E-1,1.011708349E0,1.688156364E0
1.116770175E1,-4.363036272E-1,-1.824068159E-1,1.084585706E0,1.183198738E0
1.117772875E1,-1.037001576E0,-2.958385311E0,3.401372123E-1,3.153269611E0
1.118775575E1,-9.062391233E-1,-5.385749885E0,1.286259097E0,5.610885281E0
1.119778275E1,-2.389735841E-1,-3.077397784E0,1.792326403E0,3.569302373E0
1.120780875E1,4.634687313E-1,-2.725182563E-1,1.214613748E0,1.328290639E0
1.121783575E1,9.452276994E-1,1.197476436E0,9.454190496E-1,1.794776420E0
1.122786275E1,4.122722653E-1,2.091139149E0,5.620637508E-1,2.204256569E0
1.123788975E1,-8.823520048E-1,2.286009890E0,-6.081689000E-2,2.451139525E0
1.124791675E1,-1.750813803E0,2.546664146E0,-7.856918290E-2,3.091443087E0
1.125794375E1,-2.437054580E0,1.734528576E0,-8.920614526E-2,2.992621283E0
1.126796975E1,-6.668843007E-1,1.366886061E-1,1.456063409E-1,6.961462864E-1
1.127799675E1,-5.914457171E-1,1.284430965E0,1.093078640E0,1.787286170E0
1.128802375E1,-3.333880636E-1,1.211137871E0,9.716246621E-1,1.588098557E0
1.129805075E1,-2.225704631E-1,1.122580621E0,8.201314907E-1,1.407956151E0
1.130807775E1,1.568271916E0,4.590760106E-1,2.971603234E-1,1.660882851E0
1.131810475E1,4.009205977E0,-9.044163269E-1,-7.568260257E-1,4.179053373E0
1.132813175E1,5.294898187E0,-2.267763069E0,-1.015996697E0,5.849012347E0
1.133815775E1,2.963702769E0,-1.264039385E0,-1.191165683E0,3.435142698E0
1.134818475E1,1.201073936E0,-1.232633990E-1,-1.612483152E0,2.014416635E0
1.135821175E1,-3.423577509E0,2.888840282E0,1.195113869E-1,4.481134243E0
1.136823875E1,-3.759703824E0,-7.594153190E-1,2.292693404E0,4.468615838E0
1.137826575E1,-5.919744515E-1,-6.408733712E0,4.610646486E-2,6.436181115E0
1.138829275E1,4.428008705E-1,-6.299460361E0,-6.969810160E-1,6.353349982E0
1.139831975E1,2.329621786E0,-5.138970487E0,-2.375675480E-1,5.647352802E0
1.140834575E1,4.455268717E0,-5.774781514E0,5.110640435E-1,7.311546166E0
1.141837275E1,4.937860183E0,-6.036004704E0,6.593648545E-1,7.826274847E0
1.142839975E1,4.355969839E0,-6.328497049E0,-9.825836599E-1,7.745309470E0
1.143842675E1,3.338191788E0,-7.851119022E0,-3.317763956E0,9.153750705E0
1.144845375E1,1.753003439E0,-9.041376486E0,-3.116127402E0,9.722641606E0
1.145848075E1,-1.006200564E-1,-8.855383573E0,-1.869548825E0,9.051141112E0
1.146850675E1,-1.498485543E0,-9.114446216E0,-5.907932774E-1,9.255680712E0
1.147853375E1,-1.510430820E0,-9.758685420E0,-2.554356158E-1,9.878187574E0
1.148856075E1,8.924821597E-1,-8.735219198E0,1.177553219E0,8.859300786E0
1.149858775E1,2.072614585E0,-7.801885466E0,2.159711201E0,8.356404760E0
1.150861475E1,1.380413302E0,-5.053525710E0,8.559668827E-1,5.308139249E0
1.151864175E1,1.727213709E0,-4.511059048E0,1.186569625E0,4.974019341E0
1.152866875E1,-1.526766479E-2,-4.040259955E0,1.539691749E0,4.323723429E0
1.153869475E1,1.708962210E0,-1.871755126E0,2.351905087E0,3.457669248E0
1.154872175E1,5.503943163E-1,-4.689106765E0,-6.324805263E-1,4.763474338E0
1.155874875E1,-4.728700309E0,-2.568748494E0,-1.078994379E0,5.488470124E0
1.156877575E1,-4.527002943E0,4.433791602E-1,-3.914093998E0,6.000872649E0
1.157880275E1,-5.403548225E0,1.191719853E0,-7.720530816E0,9.498690736E0
1.158882975E1,-3.236741427E0,2.755403897E0,-9.258099733E-1,4.350387317E0
1.159885675E1,-2.277896878E0,5.685480498E0,-1.909294397E0,6.415520850E0
1.160888275E1,5.960056974E0,5.442718722E0,-6.895296898E0,1.061558220E1
1.161890975E1,1.134633486E1,7.027336383E0,-1.170737938E1,1.775346455E1
1.162893675E1,1.007874973E1,8.713774534E0,-7.195644393E0,1.514227067E1
1.163896375E1,1.041105167E1,8.354336833E0,-2.388986959E0,1.356068580E1
1.164899075E1,9.869431100E0,7.108310380E0,-4.039724350E-2,1.216286885E1
1.165901775E1,7.915875766E0,5.849820002E0,1.109931339E0,9.905222399E0
1.166904375E1,5.442725154E0,4.688607997E0,2.530972558E0,7.616569053E0
1.167907075E1,2.762122933E0,3.016044704E0,2.865205252E0,4.993520791E0
1.168909775E1,9.460596120E-1,1.115804282E0,2.474321809E0,2.874424534E0
1.169912475E1,8.957905143E-1,-4.521388739E-1,2.887360352E0,3.056749909E0
1.170915175E1,9.051840663E-1,-1.128675758E0,4.233400505E0,4.473806768E0
1.171917875E1,6.391351694E-1,-1.268272769E0,5.511807083E0,5.691838623E0
1.172920575E1,8.433409899E-1,-1.229425915E0,6.180987001E0,6.358247590E0
1.173923175E1,7.748040211E-1,-8.975683603E-1,6.443379049E0,6.551571094E0
1.174925875E1,1.152259333E0,-1.699005572E0,5.073021496E0,5.472647312E0
1.175928575E1,1.160899179E0,-2.689120445E0,2.532171822E0,3.871814795E0
1.176931275E1,2.775410146E-1,-3.752131679E0,1.379825950E-1,3.764911732E0
1.177933975E1,-9.525915366E-1,-4.006587009E0,-1.344354985E0,4.332142706E0
1.178936675E1,-1.363462809E0,-5.038380836E0,-2.606406317E0,5.834180849E0
1.179939375E1,-2.406083633E0,-6.300605831E0,-3.340852271E0,7.526497604E0
1.180941975E1,-3.090324224E0,-7.027304808E0,-3.572582105E0,8.467376192E0
1.181944675E1,-3.460772232E0,-6.968936148E0,-3.550422912E0,8.552690707E0
1.182947375E1,-3.504554137E0,-6.514956570E0,-3.648312319E0,8.248438736E0
1.183950075E1,-3.421376325E0,-5.932956299E0,-3.954712851E0,7.908573837E0
1.184952775E1,-3.953413892E0,-5.453681082E0,-4.323880904E0,8.004252921E0
1.185955475E1,-4.639140261E0,-5.344053975E0,-4.801358687E0,8.551817379E0
1.186958175E1,-5.216709219E0,-5.124569964E0,-5.221925520E0,8.985754200E0
1.187960775E1,-4.569825612E0,-4.091318134E0,-4.886767797E0,7.842365058E0
1.188963475E1,-2.514178477E0,-3.241392595E0,-3.864445290E0,5.635748111E0
1.189966175E1,-1.381799970E0,-3.124863434E0,-3.018471884E0,4.559091483E0
1.190968875E1,-1.065851227E0,-3.370457309E0,-2.472796855E0,4.314017338E0
1.191971575E1,-6.621965879E-1,-3.568431752E0,-1.930225528E0,4.110715276E0
1.192974275E1,-2.439502224E-2,-3.699897332E0,-1.291580356E0,3.918930365E0
1.193976875E1,2.577730402E-1,-3.515034978E0,-8.345397609E-1,3.621929659E0
1.194979575E1,4.196070126E-1,-3.052282239E0,-5.909079194E-1,3.137143458E0
1.195982275E1,4.369986784E-1,-2.577004178E0,-4.819187433E-1,2.657849517E0
1.196984975E1,1.977880628E-1,-2.407099879E0,-3.873470467E-1,2.446075976E0
1.197987675E1,-1.719065322E-1,-2.564694620E0,2.641391963E-1,2.583985268E0
1.198990375E1,5.423690128E-1,-2.605100634E0,1.435720654E0,3.023575244E0
1.199993075E1,1.362056261E0,-2.507200702E0,1.976262996E0,3.470859843E0
1.200995675E1,2.258962863E0,-2.541278860E0,3.153340251E0,4.637301608E0
1.201998396E1,1.058198829E0,-2.374563047E0,-1.080781800E-1,2.601925310E0
1.203001096E1,1.053363913E0,-2.029214212E0,1.431626433E-1,2.290803656E0
1.204003796E1,-9.570167094E-2,-1.944922505E0,-9.288068175E-1,2.157443966E0
1.205006496E1,-6.904053104E-1,-1.830805905E0,-1.651102257E0,2.560204761E0
1.206009196E1,-7.862733346E-1,-1.716482314E0,-1.468893077E0,2.392108728E0
1.207011896E1,-9.468264744E-1,-1.763651218E0,-8.561487311E-1,2.177139555E0
1.208014496E1,-1.189306414E0,-1.921338930E0,-3.593774754E-1,2.288043968E0
1.209017196E1,-2.486436363E-1,-2.312514734E0,-5.576752692E-1,2.391767078E0
1.210019896E1,4.180512147E-1,-1.765723472E0,-9.494317013E-1,2.047917662E0
1.211022596E1,6.544902501E-1,-1.444902536E0,-1.054420797E0,1.904705763E0
1.212025296E1,1.268679736E0,-1.599670733E0,-5.485770017E-1,2.114102990E0
1.213027996E1,8.923747171E-1,-1.587859942E0,-1.923312950E-1,1.831563037E0
1.214030596E1,-1.319944614E-1,-1.669121622E0,-5.134989703E-1,1.751305433E0
1.215033296E1,-4.948948842E-1,-1.700163320E0,-8.381971943E-1,1.959094382E0
1.216035996E1,-4.158133391E-1,-1.630175073E0,-4.901668257E-1,1.752322749E0
1.217038696E1,3.015102133E-1,-1.224351994E0,2.470787752E-1,1.284910166E0
1.218041396E1,2.181211121E0,-6.116807377E-1,-2.156453133E-1,2.275596225E0
1.219044096E1,3.533018675E0,-2.660757941E-1,-1.129836431E0,3.718809977E0
1.220046796E1,2.514455343E0,4.158452064E-1,-1.099810978E0,2.775787653E0
1.221049396E1,9.978239889E-1,7.376677698E-1,-1.246303026E0,1.758714782E0
1.222052096E1,1.632818891E-1,5.022840106E-1,-1.378949452E0,1.476635295E0
1.223054796E1,-8.417914778E-2,-1.974049240E-1,-9.329162407E-1,9.572813302E-1
1.224057496E1,-3.840853237E-1,-3.392268008E-1,-5.571513587E-1,7.569768786E-1
1.225060196E1,-4.829183248E-1,-3.663771772E-1,-2.704997975E-1,6.637864753E-1
1.226062896E1,-2.103111908E-1,-6.061071718E-1,1.113684082E-1,6.511525344E-1
1.227065596E1,2.394113213E-2,-6.508389562E-1,2.882525289E-1,7.122176951E-1
1.228068196E1,7.990804911E-3,-5.528425455E-1,1.407389724E-1,5.705314991E-1
1.229070896E1,2.617675656E-1,-5.091088808E-1,-2.413145900E-3,5.724682822E-1
1.230073596E1,7.478466028E-1,-4.306831008E-1,-1.426510119E-1,8.747066856E-1
1.231076296E1,7.227342734E-1,-3.752158284E-1,-3.044306052E-1,8.693731887E-1
1.232078996E1,2.248040995E-1,-3.613854092E-1,-3.436227375E-1,5.470035493E-1
1.233081696E1,-1.386081009E-1,-3.252203804E-1,-1.854941458E-1,3.992349929E-1
1.234084296E1,-2.697209483E-1,-2.424992359E-1,-2.654928267E-2,3.636758636E-1
1.235086996E1,-2.594769189E-1,-1.654867280E-1,-7.886432111E-2,3.177006605E-1
1.236089696E1,-4.287383169E-1,-1.111158085E-1,4.008734107E-2,4.447136856E-1
1.237092396E1,-4.375540178E-1,-1.417131186E-2,3.929048252E-1,5.882419113E-1
1.238095096E1,-2.793125747E-1,7.821878850E-2,6.089378089E-1,6.744916221E-1
1.239097796E1,-2.247551291E-1,1.034273046E-1,4.821748513E-1,5.419452579E-1
1.240100496E1,-5.587657750E-2,1.774752742E-1,3.350396097E-1,3.832377916E-1
1.241103096E1,1.186093077E-1,1.587425494E-1,9.510613203E-2,2.198011402E-1
1.242105796E1,2.777991691E-1,7.618921995E-2,1.641512239E-1,3.315460751E-1
1.243108496E1,4.711937803E-1,-1.558867693E-3,6.584450144E-1,8.096763833E-1
1.244111196E1,4.061977391E-1,-1.521153152E-2,6.597179532E-1,7.748908128E-1
1.245113896E1,2.096114253E-1,1.261115777E-1,-1.623365990E0,1.641693704E0
1.246116596E1,1.085840518E0,3.427175885E-1,-1.570194919E0,1.939591983E0
1.247119296E1,1.508505478E0,4.457525450E-1,9.513811630E-1,1.838317227E0
1.248121896E1,1.164740507E0,9.631942928E-2,2.002778950E0,2.318840530E0
1.249124596E1,7.986498436E-1,9.584872842E-2,1.987342300E0,2.143958482E0
1.250127296E1,5.224355623E-1,1.931680316E-1,1.498090564E0,1.598289130E0
1.251129996E1,6.642246947E-2,2.467425603E-1,2.158768630E-1,3.345095746E-1
1.252132696E1,-7.509608299E-2,2.548216581E-1,-7.152863824E-1,7.630256274E-1