"Time (s)","Linear Acceleration x (m/s^2)","Linear Acceleration y (m/s^2)","Linear Acceleration z (m/s^2)","Absolute acceleration (m/s^2)"
4.384125001E-3,6.150320694E-2,-4.377494609E-1,-4.590988147E-1,6.373217058E-1
1.441012498E-2,-2.012247638E-1,-6.630689925E-1,-5.206752580E-1,8.667494556E-1
2.443712507E-2,-3.132632630E-1,-7.700508195E-1,-4.647647667E-1,9.524276481E-1
3.446412506E-2,-2.993103446E-1,-7.868329132E-1,-5.178674251E-1,9.883720886E-1
4.449112504E-2,-1.705493934E-1,-7.577938861E-1,-6.205772763E-1,9.942106544E-1
5.451812502E-2,3.066070850E-1,-6.198609924E-1,-7.135281247E-1,9.936588646E-1
6.454512500E-2,5.988095543E-1,-3.456815422E-1,-8.430340111E-1,1.090309568E0
7.457212498E-2,7.017511015E-1,-1.661433703E-1,-1.294849534E0,1.482124672E0
8.459812507E-2,6.854686524E-1,-1.895298940E-1,-1.654939785E0,1.801281362E0
9.462512506E-2,5.155672766E-1,-2.805283570E-1,-1.894487346E0,1.983327528E0
1.046521250E-1,2.382208282E-1,-4.403368539E-1,-2.098308420E0,2.157207439E0
1.146791250E-1,6.896790862E-3,-5.835965610E-1,-2.397175984E0,2.467201899E0
1.247061250E-1,-2.831373847E-1,-7.087328231E-1,-2.796367151E0,2.898644207E0
1.347331250E-1,-6.982604599E-1,-9.082526851E-1,-3.112033181E0,3.316208849E0
1.447591251E-1,-9.213712057E-1,-1.166776215E0,-3.489768575E0,3.793254057E0
1.547861251E-1,-1.065179674E0,-1.449559844E0,-3.779088805E0,4.185372585E0
1.648131250E-1,-1.235162618E0,-1.757267813E0,-3.954811669E0,4.500461332E0
1.748401250E-1,-1.322527914E0,-2.455227726E0,-3.825755433E0,4.734303318E0
1.848671250E-1,-2.146150339E0,-3.389519817E0,-4.023355654E0,5.681742390E0
1.948941250E-1,-1.702311003E0,-2.911106772E0,-4.076229102E0,5.290373246E0
2.049211250E-1,-1.219965413E0,-2.609881902E0,-3.640146098E0,4.642247598E0
2.149471251E-1,-1.795624963E0,-2.831956814E0,-3.404043131E0,4.778258892E0
2.249741250E-1,-2.736930789E0,-3.488408220E0,-3.531323567E0,5.668335575E0
2.350020000E-1,-3.581383334E0,-4.466566707E0,-3.847259154E0,6.897675531E0
2.450290000E-1,-3.687972813E0,-5.231283989E0,-3.678876300E0,7.382520333E0
2.550560000E-1,-3.808320791E0,-5.570398523E0,-3.203590053E0,7.469647661E0
2.650830001E-1,-4.177801670E0,-5.569071790E0,-3.026724644E0,7.591419463E0
2.751100000E-1,-4.202247709E0,-5.803018304E0,-3.642867392E0,8.037685617E0
2.851360000E-1,-3.770225011E0,-6.578021715E0,-4.287753298E0,8.710326897E0
2.951630000E-1,-3.435826841E0,-7.708579692E0,-3.832230055E0,9.268931661E0
3.051900000E-1,-2.590822318E0,-7.547760211E0,-2.646870804E0,8.407554314E0
3.152170000E-1,-4.828946435E-1,-5.802164025E0,-1.399535159E0,5.988070914E0
3.252440001E-1,1.181627558E0,-3.769926803E0,6.161795855E-2,3.951251518E0
3.352710000E-1,2.060835954E0,-3.016761865E0,1.249295046E0,3.861170172E0
3.452970000E-1,1.871452240E0,-3.658594648E0,2.130600838E0,4.628942451E0
3.553240000E-1,3.604773366E-1,-4.236703304E0,2.449355367E0,4.907029704E0
3.653510000E-1,-1.158847976E0,-4.579251324E0,2.266911129E0,5.239404297E0
3.753780000E-1,-1.774325895E0,-4.980353068E0,2.671638148E0,5.923664361E0
3.854050001E-1,-1.474654924E0,-5.639236039E0,3.578400962E0,6.839630377E0
3.954320000E-1,-5.775113636E-1,-6.362697998E0,4.513864250E0,7.822558128E0
4.054590000E-1,7.747607517E-1,-6.709541382E0,5.905811185E0,8.972001200E0
4.154850000E-1,2.965733507E0,-6.036486515E0,6.020099108E0,9.026424428E0
4.255120000E-1,4.835722774E0,-4.887136171E0,5.435523723E0,8.764315880E0
4.355390000E-1,6.696400350E0,-3.841274821E0,6.409577465E0,1.003393508E1
4.455660001E-1,8.519399638E0,-2.912983435E0,6.439169639E0,1.106926142E1
4.555930000E-1,9.118422908E0,-2.729370924E0,6.308506004E0,1.141894697E1
4.656200000E-1,8.329143519E0,-3.090675057E0,5.528345933E0,1.046372366E1
4.756460000E-1,7.970993375E0,-3.274239036E0,4.327160315E0,9.642701543E0
4.856730000E-1,8.320192017E0,-2.878972521E0,3.256991797E0,9.387335806E0
4.957000000E-1,9.811524954E0,-2.200793738E0,2.371121669E0,1.033110512E1
5.057270001E-1,1.097858008E1,-1.975137992E0,1.454578509E0,1.124927506E1
5.157540001E-1,1.098870863E1,-1.511423385E0,7.957966948E-1,1.112067491E1
5.257810000E-1,1.058254349E1,-1.332409124E0,5.943987072E-2,1.066625866E1
5.358080000E-1,9.797964676E0,-1.413379027E0,-8.158286709E-1,9.932941583E0
5.458340000E-1,9.690499869E0,-1.171024218E0,-1.875837360E0,9.939610215E0
5.558610000E-1,9.433878438E0,-7.959662640E-1,-2.263011621E0,9.734107369E0
5.658880001E-1,9.070560524E0,-6.315571779E-1,-3.315181533E0,9.678034991E0
5.759150001E-1,8.355843660E0,-3.726489007E-1,-5.921090544E0,1.024784386E1
5.859420000E-1,9.078741948E0,-2.598274595E-1,-1.120271672E1,1.442192524E1
5.959690000E-1,8.339065660E0,-1.036903124E0,-8.874929645E0,1.222209313E1
6.059960000E-1,6.079094591E0,-3.318528187E0,-3.762861612E-1,6.936109258E0
6.160220000E-1,5.262394100E0,-4.799194048E0,1.710882144E0,7.324764357E0
6.260490001E-1,4.869575229E0,-3.753745803E0,2.930056720E0,6.810917915E0
6.360760001E-1,4.124870335E0,-1.506345663E0,2.423790171E0,5.015814124E0
6.461030000E-1,3.116436135E0,-1.542915319E0,9.687561643E-1,3.609882321E0
6.561300000E-1,1.382353116E0,-8.194615459E-1,-1.841501048E0,2.444083360E0
6.661570000E-1,1.311226416E-1,9.470589012E-1,-2.544583999E0,2.718275452E0
6.761830000E-1,6.161526883E-1,7.356317693E-1,-1.947714843E0,2.171264918E0
6.862100001E-1,1.334659717E0,-3.490343356E-1,5.440127821E0,5.612319684E0
6.962370001E-1,-3.146960354E0,1.588865663E0,9.286881191E0,9.933479542E0
7.062640000E-1,-5.805857127E0,4.324104853E0,-2.201583112E0,7.566559849E0
7.162910000E-1,-5.154381409E0,5.021009928E0,-1.327449749E1,1.509935337E1
7.263180000E-1,-2.908277012E0,5.683257387E0,-7.417456765E0,9.786529239E0
7.363450000E-1,-8.377815742E0,3.693979658E0,6.015545297E-1,9.175791529E0
7.463710001E-1,-5.598461650E0,4.919155524E0,-2.608402849E0,7.895861533E0
7.563980001E-1,-3.572580351E0,5.468396770E0,-1.663827260E0,6.740550033E0
7.664250000E-1,-2.153144778E0,5.215731565E0,-4.594818074E-1,5.661361296E0
7.764520000E-1,-1.368419201E0,4.312042632E0,-6.472294700E-1,4.570031592E0
7.864790000E-1,-2.333073544E0,3.466346383E0,-7.564048800E-1,4.246285171E0
7.965060000E-1,-2.241602626E0,3.169094989E0,-1.598489596E0,4.197989325E0
8.065320001E-1,-3.701917838E0,3.169327708E0,-2.822786041E0,5.631780787E0
8.165590001E-1,-4.928478325E0,3.588859584E0,-2.971485997E0,6.782296127E0
8.265860000E-1,-5.212974018E0,1.472150561E0,-2.541371538E0,5.983384885E0
8.366130000E-1,-6.003495939E0,2.746855853E0,-2.820477560E0,7.179294829E0
8.466400000E-1,-4.971700358E0,4.394035213E0,-1.261527275E0,6.754021097E0
8.566670000E-1,-4.682909301E0,1.503920238E0,1.275051300E0,5.081060069E0
8.666940000E-1,-1.984178372E0,-1.153852115E0,3.120474222E0,3.873718870E0
8.767200001E-1,1.391129787E0,-1.702524426E0,4.079201242E0,4.633973918E0
8.867470000E-1,2.232604930E0,-7.396710259E-1,3.419730041E0,4.150444742E0
8.967740000E-1,1.391623292E0,-1.128947654E0,-1.329724082E0,2.231435486E0
9.068010000E-1,3.137363319E0,-2.489453233E0,-3.869431211E0,5.568924842E0
9.168280000E-1,2.386776711E0,-2.638157283E0,-3.002077460E0,4.655002255E0
9.268550000E-1,3.081118952E0,-2.113284309E0,-2.237137692E0,4.354773200E0
9.368810001E-1,3.504649154E0,-1.589263274E0,-2.141823984E0,4.404058744E0
9.469080000E-1,2.029024177E0,6.313320601E-1,-6.011989020E0,6.376482671E0
9.569350000E-1,2.430008393E0,2.679111766E0,-5.178284826E0,6.316424177E0
9.669620000E-1,3.631344576E0,2.561286278E0,3.659315609E0,5.756512968E0
9.769890000E-1,6.487506816E0,1.583693216E0,6.018217474E0,8.989703580E0
9.870160000E-1,5.873940352E0,1.154116409E0,2.627041726E0,6.537316588E0
9.970430001E-1,3.452005794E0,8.725297058E-1,9.787455475E-1,3.692640646E0
1.007069000E0,4.707514384E-1,5.671120906E-1,4.166398430E-1,8.466473876E-1
1.017096000E0,-2.286818852E0,-2.696455193E-1,-4.998819745E-1,2.356296067E0
1.027123000E0,-2.631800483E0,-1.100489840E0,-1.461264800E0,3.205112554E0
1.037150000E0,-1.386589424E0,-1.715423384E0,-1.374853477E0,2.599140185E0
1.047177000E0,4.923083684E-1,-2.014030162E0,-1.210606359E0,2.400885832E0
1.057204000E0,1.478501807E0,-4.431230521E-1,-6.401812363E-1,1.670975059E0
1.067230000E0,1.231915660E0,2.330148182E0,-6.601833916E-1,2.717176633E0
1.077257000E0,8.082895634E-1,4.127751258E0,-1.705770800E0,4.538867313E0
1.087284000E0,4.550651130E-1,6.059994076E0,-1.302250940E0,6.215019708E0
1.097311000E0,-8.935071766E-2,7.162081960E0,9.267170227E-1,7.222340756E0
1.107338000E0,-6.074613869E-1,7.188701994E0,2.393113339E0,7.600883971E0
1.117365000E0,-1.134480874E0,6.977327487E0,2.350648520E0,7.449543219E0
1.127392000E0,-1.641992295E0,6.494542186E0,1.244766378E0,6.813564430E0
1.137418000E0,-1.991418979E0,5.941459905E0,-7.256646055E-1,6.308191854E0
1.147445000E0,-2.294750600E0,5.355672977E0,-1.926242990E0,6.136735729E0
1.157472000E0,-2.660338403E0,5.267752488E0,-1.254653435E0,6.033305225E0
1.167499000E0,-3.042284962E0,5.253849564E0,3.449143875E-1,6.080904452E0
1.177526000E0,-3.285825879E0,5.193681715E0,9.583177149E-1,6.220076712E0
1.187553000E0,-3.441743931E0,5.571143458E0,5.116512867E-1,6.568487479E0
1.197580000E0,-3.201452311E0,6.049724611E0,4.601314696E-1,6.860042692E0
1.207606000E0,-2.943259733E0,6.419025396E0,6.211094461E-1,7.088895671E0
1.217633000E0,-2.571694322E0,6.629412893E0,-1.234312141E-1,7.111818491E0
1.227660000E0,-2.205520043E0,6.347880569E0,-2.494793496E0,7.168256480E0
1.237686708E0,-2.147901580E0,5.465160921E0,-3.106452599E0,6.643155337E0
1.247713708E0,-2.024468027E0,-1.553081288E0,3.327056351E0,4.192831530E0
1.257740708E0,-7.669667641E0,-4.239521838E1,2.158870225E0,4.313744387E1
1.267766708E0,-3.718971535E0,-5.898466264E1,1.495656807E0,5.912070843E1
1.277793708E0,1.113183326E1,-3.829259436E1,-9.002940398E-1,3.988798095E1
1.287820708E0,1.185198219E1,-1.796261842E1,1.101392211E0,2.154850823E1
1.297847708E0,7.081125505E0,-5.273169349E0,4.125135798E0,9.745019177E0
1.307874708E0,1.277083500E0,2.771276164E0,3.732765409E0,4.821249987E0
1.317901708E0,-3.458605839E0,8.787750583E0,-3.888801867E0,1.021319219E1
1.327927708E0,-4.803170155E0,1.152577422E1,-7.625876673E0,1.463105977E1
1.337954708E0,-5.069713726E0,1.044952167E1,-4.284792268E0,1.237957775E1
1.347981708E0,-4.879432465E0,7.913850875E0,-2.318709274E0,9.581978373E0
1.358008708E0,-3.748128383E0,5.737415468E0,-2.192938004E0,7.195511081E0
1.368035708E0,-3.062403477E0,2.694938425E0,-3.213436180E0,5.192993380E0
1.378062708E0,-1.928882131E0,-4.893002098E0,-3.351801183E0,6.236716041E0
1.388089708E0,-2.197624840E-1,-8.190791965E0,-2.325401412E0,8.517327063E0
1.398115708E0,5.038392969E-1,-4.695403047E0,-5.397944838E-1,4.753108656E0
1.408142708E0,-5.040332052E-1,-2.087385821E0,-2.379699826E-2,2.147509100E0
1.418169708E0,-1.017936803E0,-6.627842331E-1,-8.721239090E-1,1.495352262E0
1.428196708E0,-5.433560959E-1,-4.215082347E-2,-1.179738908E0,1.299537006E0
1.438223708E0,-4.197935387E-2,-4.193272233E-2,-9.324776995E-1,9.343635692E-1
1.448250708E0,7.615508683E-2,-4.215854180E-1,-4.501526479E-1,6.214268004E-1
1.458276708E0,-2.265625765E-1,-6.892341131E-1,-7.911201648E-1,1.073426932E0
1.468303708E0,-6.754006972E-1,-1.003778062E0,-9.212334307E-1,1.520660230E0
1.478330708E0,-9.576516440E-1,-1.107425222E0,-5.150110602E-2,1.464970873E0
1.488357708E0,-5.097306591E-1,-1.046339945E0,8.885230100E-1,1.464283362E0
1.498384708E0,-4.850420335E-1,-7.053268200E-1,5.184319738E-1,1.000761414E0
1.508411708E0,-1.217426844E-1,-5.834030181E-1,1.245470090E-1,6.088450708E-1
1.518438708E0,1.447161754E-1,-5.681347686E-1,-3.693614499E-1,6.929269568E-1
1.528464708E0,5.366513861E-1,-3.612099928E-1,-7.480366373E-1,9.889520614E-1
1.538491708E0,6.627410368E-1,-4.531463492E-1,-1.170435988E0,1.419326494E0
1.548518708E0,6.927410538E-1,-5.218470401E-1,-1.069066318E0,1.376632592E0
1.558545708E0,8.028801580E-1,-4.724316359E-1,-5.464981703E-1,1.080031689E0
1.568572708E0,9.172496496E-1,-4.077456433E-1,-2.851643220E-1,1.043514312E0
1.578599708E0,9.047582428E-1,-2.383465433E-1,-1.498977587E-1,9.475578561E-1
1.588625708E0,5.818081900E-1,-2.030299455E-1,8.067315727E-2,6.214741242E-1
1.598652708E0,2.876925118E-1,-2.584925401E-1,2.912009874E-1,4.841315831E-1
1.608679708E0,1.632688791E-2,-2.151091236E-1,3.705573517E-1,4.287787929E-1
1.618706708E0,-2.237109625E-1,-1.001411694E-1,4.284687603E-1,4.936196178E-1
1.628733708E0,-1.806038269E-1,9.856534481E-2,5.230112207E-1,5.620263397E-1
1.638760708E0,-3.418625794E-1,3.822395039E-1,5.694898608E-1,7.663522448E-1
1.648787708E0,-6.831685039E-1,8.467312056E-1,5.552539372E-1,1.221466280E0
1.658813708E0,-7.851876529E-1,1.439796163E0,4.910529712E-1,1.711918708E0
1.668840708E0,-1.043089917E0,1.732221850E0,7.066164234E-1,2.141946750E0
1.678867708E0,-1.049529748E0,2.023303846E0,7.269799367E-1,2.392440380E0
1.688894708E0,-1.106145121E0,2.204110279E0,6.713059652E-1,2.555838580E0
1.698921708E0,-1.154005458E0,2.118663747E0,5.095070761E-1,2.465778200E0
1.708948708E0,-1.136102307E0,1.950997762E0,3.233723679E-1,2.280721466E0
1.718974708E0,-1.100318809E0,1.647809690E0,1.852856925E-1,1.990052523E0
1.729001708E0,-9.807360859E-1,1.298181862E0,-3.046747264E-1,1.655278257E0
1.739028708E0,-9.682255295E-1,1.028464422E0,-9.128129286E-1,1.681792849E0
1.749055708E0,-7.979819454E-1,8.939901567E-1,-1.353913136E0,1.808058176E0
1.759082708E0,-6.824836488E-1,9.395019597E-1,-1.582568797E0,1.962898841E0
1.769109708E0,-1.065750508E0,9.586451590E-1,-1.823078518E0,2.319146388E0
1.779136708E0,-1.203180688E0,8.522433758E-1,-2.228564212E0,2.672164102E0
1.789162708E0,-8.314002447E-1,9.683661550E-1,-3.138645029E0,3.388222542E0
1.799189708E0,-3.310480079E-1,1.231630608E0,-3.675499825E0,3.890476282E0
1.809216708E0,3.727329545E-1,1.866065785E0,-3.200889517E0,3.723818614E0
1.819243708E0,7.736595748E-1,2.888621596E0,-1.650083965E0,3.415473752E0
1.829270708E0,7.174605234E-1,3.660438859E0,1.081632569E-1,3.731656675E0
1.839297708E0,4.071686693E-1,3.972558553E0,1.227386699E0,4.177736934E0
1.849323708E0,2.764057776E-1,3.600882044E0,1.694493275E0,3.989242925E0
1.859350708E0,2.055809395E-1,2.071797144E0,1.916362073E0,2.829673218E0
1.869377708E0,-2.831682287E-1,-5.348676199E-1,1.840582158E0,1.937526850E0
1.879404708E0,-1.049858800E0,-3.587747444E0,1.562089801E0,4.051451563E0
1.889431708E0,-1.318509415E0,-6.210945210E0,1.255085836E0,6.472213527E0
1.899458708E0,-9.401261500E-1,-7.269912803E0,8.324502584E-1,7.377563471E0
1.909484708E0,-2.335651289E-1,-6.055970607E0,3.914681643E-2,6.060599404E0
1.919511708E0,-6.794976220E-3,-2.613575004E0,-2.725865225E-1,2.627760241E0
1.929538708E0,-7.415674241E-1,9.832584286E-1,5.592008078E-1,1.352562355E0
1.939565708E0,-1.422329506E0,3.433441177E0,9.621102190E-1,3.838905523E0
1.949592708E0,-1.963244317E0,4.510949705E0,1.302782305E0,5.089227567E0
1.959619708E0,-2.366007548E0,4.334883025E0,2.145943347E0,5.384633266E0
1.969646708E0,-2.465467078E0,3.468413959E0,2.696658676E0,5.037895524E0
1.979672708E0,-1.703003605E0,2.382268508E0,2.599990168E0,3.916040525E0
1.989699708E0,-3.542607231E-1,9.341885948E-1,2.354757943E0,2.557947216E0
1.999726708E0,7.630555031E-1,-5.917931879E-1,1.822382991E0,2.062414276E0
2.009753708E0,1.181124113E0,-1.730181171E0,1.150120422E0,2.389844773E0
2.019780708E0,1.454408355E0,-2.324199809E0,6.902133755E-1,2.827296044E0
2.029807708E0,1.680026679E0,-2.257043953E0,3.500878577E-1,2.835365683E0
2.039833708E0,1.631480756E0,-1.690561607E0,1.983701532E-1,2.357769862E0
2.049860708E0,1.651303109E0,-8.600979406E-1,9.225011802E-1,2.077878450E0
2.059887708E0,2.138872017E0,-7.207921207E-2,1.699121200E0,2.732577862E0
2.069914708E0,2.497136767E0,2.892418778E-1,9.372431072E-1,2.682867410E0
2.079941708E0,2.130965266E0,1.643892056E-1,2.274917722E-2,2.137417671E0
2.089968708E0,1.569768949E0,-2.404275674E-1,-2.986710978E-1,1.615915961E0
2.099994708E0,1.277212285E0,-5.849653941E-1,-1.469954566E-1,1.412467132E0
2.110021708E0,1.187738191E0,-6.466739845E-1,3.709360320E-2,1.352880330E0
2.120048708E0,9.511940521E-1,-4.855405086E-1,-1.317903936E-1,1.076052238E0
2.130075708E0,6.259286481E-1,-2.381348741E-1,-2.204458773E-1,7.050470024E-1
2.140102708E0,3.206349939E-1,1.168425715E-1,-1.236382055E-1,3.629674802E-1
2.150129708E0,1.169822469E-1,4.990124935E-1,-2.040023375E-1,5.516477757E-1
2.160156708E0,1.642607130E-2,6.965402091E-1,-3.008708203E-1,7.589211614E-1
2.170182708E0,1.684198010E-1,7.147958010E-1,-3.307840061E-1,8.054292801E-1
2.180209708E0,2.844990002E-1,6.218864679E-1,-4.296031201E-1,8.076145745E-1
2.190236708E0,2.375031738E-1,6.144078791E-1,-4.755803615E-1,8.124539862E-1
2.200263708E0,3.953538584E-1,6.916495979E-1,-6.186833632E-1,1.008688725E0
2.210290708E0,5.923069388E-1,8.569012678E-1,-4.410666229E-1,1.131214860E0
2.220317708E0,7.302779125E-1,8.557376719E-1,-1.085300966E-1,1.130208642E0
2.230343708E0,8.972055405E-1,7.229222614E-1,-2.245599052E-1,1.173891617E0
2.240370583E0,8.846503260E-1,6.358005023E-1,7.555764757E-2,1.092042781E0
2.250397583E0,9.062342993E-1,4.606144130E-1,2.575095501E-1,1.048683656E0
2.260424583E0,9.100009295E-1,1.755006695E-1,-5.033941045E-3,9.267834252E-1
2.270451583E0,7.467836521E-1,-9.022078335E-2,-3.986030100E-1,8.512989911E-1
2.280478583E0,5.157447396E-1,-3.093054289E-1,-8.906976626E-1,1.074711501E0
2.290505583E0,2.605520757E-1,-5.547884989E-1,-1.484161327E0,1.605743599E0
2.300531583E0,-7.864446580E-2,-9.356328571E-1,-2.019148815E0,2.226781474E0
2.310558583E0,-2.879010382E-1,-1.346466415E0,-2.498766679E0,2.853014849E0
2.320585583E0,-3.538552918E-1,-1.688710379E0,-3.154888594E0,3.595869624E0
2.330612583E0,-1.550332220E-1,-1.832986917E0,-4.124128323E0,4.515784623E0
2.340639583E0,2.482262912E-1,-1.822439709E0,-5.246655734E0,5.559703156E0
2.350666583E0,5.055148166E-1,-1.894124234E0,-5.967933174E0,6.281677977E0
2.360692583E0,4.775347202E-1,-1.833959894E0,-5.880452980E0,6.178282573E0
2.370719583E0,2.795208087E-1,-1.421469235E0,-5.510530052E0,5.697775717E0
2.380746583E0,5.988279730E-2,-1.276566460E0,-5.118029269E0,5.275171227E0
2.390773583E0,-1.516956861E-1,-1.352014838E0,-4.738004106E0,4.929466361E0
2.400800583E0,-3.083626384E-1,-1.409452037E0,-3.700318040E0,3.971649048E0
2.410827583E0,-4.966451751E-1,-1.347031256E0,-2.445300323E0,2.835602812E0
2.420854583E0,-8.994725791E-1,-1.212775676E0,-1.976765272E0,2.487463910E0
2.430880583E0,-1.380197394E0,-1.161065825E0,-2.588770530E0,3.155115141E0
2.440907583E0,-1.590576266E0,-1.210195885E0,-3.559156898E0,4.081924150E0
2.450934583E0,-1.344189948E0,-1.486915365E0,-3.769925049E0,4.269671977E0
2.460961583E0,-6.395362884E-1,-1.851968148E0,-2.169012952E0,2.922911198E0
2.470988583E0,-2.587199603E-1,-2.240346059E0,7.384939814E-1,2.373069709E0
2.481015583E0,3.097292424E-1,-2.222673435E0,3.481328119E0,4.141962684E0
2.491041583E0,9.274270208E-1,-2.338695642E0,4.469737945E0,5.129149586E0
2.501068583E0,4.016334026E-1,-2.425646077E0,4.291791970E0,4.946164837E0
2.511095583E0,1.654445915E-1,-2.639246619E0,3.438478553E0,4.337756262E0
2.521122583E0,4.187952363E-1,-2.637203017E0,2.069647708E0,3.378412473E0
2.531149583E0,1.350490286E-1,-2.118602936E0,1.231381516E0,2.454183587E0
2.541176583E0,-8.298240546E-1,-1.382750727E0,2.289991844E0,2.800833836E0
2.551202583E0,-9.976545659E-1,-7.807798755E-1,4.072176397E0,4.264686677E0
2.561229583E0,-1.037679049E0,2.631451696E-1,2.728145932E0,2.930666036E0
2.571256583E0,-1.089934008E0,1.045442398E0,2.011984952E0,2.515748278E0
2.581283583E0,-5.027557348E-1,1.383407369E0,1.163051978E0,1.875971530E0
2.591310583E0,-2.427113071E-1,1.024323424E0,5.507783322E-1,1.188067350E0
2.601337583E0,-1.579267897E-1,6.160328203E-1,1.090356177E0,1.262265384E0
2.611364583E0,1.467503487E-1,1.829038292E-1,1.737470895E0,1.753224055E0
2.621390583E0,4.170233107E-1,-1.821483690E-1,2.326995363E0,2.371074417E0
2.631417583E0,2.338733502E-1,-3.349676889E-1,2.411330632E0,2.445693258E0
2.641444583E0,-2.731952177E-1,-2.475325191E-1,2.192657630E0,2.223433259E0
2.651471583E0,-7.322212346E-1,1.867945665E-1,2.065449407E0,2.199345675E0
2.661498583E0,-1.225222790E0,6.748663348E-1,2.031859784E0,2.466793392E0
2.671525583E0,-1.815958071E0,1.035427287E0,2.264109436E0,3.081558846E0
2.681551583E0,-2.196889260E0,1.260029365E0,2.523191960E0,3.574981691E0
2.691578583E0,-2.238963631E0,1.436123527E0,2.446513621E0,3.613978116E0
2.701605583E0,-2.136748308E0,1.473536936E0,2.212060446E0,3.410310228E0
2.711632583E0,-1.993323125E0,1.388053567E0,2.006113909E0,3.150321063E0
2.721659583E0,-1.714676256E0,1.308857124E0,1.705727531E0,2.750041462E0
2.731686583E0,-1.335297648E0,1.283112418E0,1.314695569E0,2.271083822E0
2.741712583E0,-1.046796686E0,1.333592600E0,1.061962244E0,2.000504019E0
2.751739583E0,-9.165546349E-1,1.509660450E0,3.949668458E-1,1.809736412E0
2.761766583E0,-7.393171231E-1,1.678371917E0,-2.430254853E-1,1.850022564E0
2.771793583E0,2.183315972E-1,1.390874264E0,1.445925799E-1,1.415311597E0
2.781820583E0,2.591548835E-1,1.239253623E0,1.384863326E-1,1.273612680E0
2.791847583E0,1.258124927E-1,1.373955930E0,-1.386617491E-1,1.386654521E0
2.801874583E0,-2.219177677E-1,1.422845085E0,-4.066115758E-1,1.496351765E0
2.811900583E0,-5.006397736E-1,1.182604628E0,-7.561978886E-1,1.490311758E0
2.821927583E0,-5.303822207E-1,7.690281415E-1,-1.080558436E0,1.428396344E0
2.831954583E0,-1.873639391E-1,4.506700534E-1,-1.203709861E0,1.298894211E0
2.841981583E0,3.450264347E-1,1.844469094E-1,-1.850237665E0,1.891148677E0
2.852008583E0,7.604808278E-1,-2.381389672E-1,-3.785155292E0,3.868131569E0
2.862035583E0,1.365364177E0,-5.787410331E-1,-6.301519750E0,6.473662926E0
2.872061583E0,2.430414043E0,-2.436610776E-1,-8.341491669E0,8.691764287E0
2.882088583E0,3.190551347E0,8.114210397E-1,-7.269743818E0,7.980425877E0
2.892115583E0,3.016501372E0,2.172420709E0,-2.464054975E0,4.459849682E0
2.902142583E0,2.011178036E0,3.753597284E0,4.344451409E0,6.083468395E0
2.912169583E0,-8.335307508E-1,3.614367478E0,9.153439543E0,9.876430593E0
2.922196583E0,-3.387820031E0,1.510944498E0,9.631537131E0,1.032118139E1
2.932222583E0,-4.223036315E0,-7.324491298E-1,8.275504671E0,9.319575903E0
2.942249583E0,-4.481322741E0,-3.549313111E0,4.966157198E0,7.572489312E0
2.952276583E0,-3.472554372E0,-5.718241278E0,9.770182800E-1,6.761026690E0
2.962303583E0,-2.281678419E0,-5.252398285E0,-6.820047618E-1,5.767050775E0
2.972330583E0,-8.088276534E-1,-2.519651763E0,5.581241892E-1,2.704505462E0
2.982357583E0,3.938457518E-1,-7.674587488E-2,2.418182107E0,2.451246439E0
2.992384583E0,2.030745305E-1,1.171365695E0,3.033196342E0,3.257854648E0
3.002410583E0,-9.667132933E-1,1.424202223E0,2.293020848E0,2.867199186E0
3.012437583E0,-1.685725522E0,1.182108200E0,1.680163650E0,2.657442421E0
3.022464583E0,-1.892889302E0,6.077303588E-1,1.167025892E0,2.305279925E0
3.032491583E0,-1.250423267E0,-1.538729882E-1,6.958325498E-1,1.439242224E0
3.042518583E0,5.112001374E-3,-8.618509358E-1,4.978833961E-1,9.953396628E-1
3.052545583E0,1.073949620E0,-1.291542349E0,1.030446775E0,1.970601426E0
3.062571583E0,1.782475306E0,-1.245901907E0,1.735634723E0,2.782430174E0
3.072598583E0,1.801463700E0,-8.301315451E-1,2.186788487E0,2.952360705E0
3.082625583E0,1.651998636E0,-5.332093495E-1,1.913309534E0,2.583440550E0
3.092652583E0,1.288424321E0,-3.079617387E-1,1.482175612E0,1.987893913E0
3.102679583E0,1.043393533E0,7.290308475E-3,1.012312074E0,1.453787793E0
3.112706583E0,9.297029033E-1,2.907405192E-1,9.040064371E-1,1.328948899E0
3.122732583E0,9.041594148E-1,6.186827785E-1,1.028833966E0,1.502921142E0
3.132759583E0,1.020838484E0,8.962904513E-1,1.045855211E0,1.714427282E0
3.142786583E0,1.115350027E0,9.334875137E-1,4.367472116E-1,1.518602235E0
3.152813583E0,8.462332421E-1,6.583964825E-1,-2.081001027E-1,1.092200660E0
3.162840583E0,5.123606636E-1,2.361374652E-1,-1.195872545E-1,5.766935612E-1
3.172867583E0,4.821152097E-1,-1.061906987E-1,-1.098212715E-1,5.057393119E-1
3.182894583E0,3.254349001E-1,-2.510958123E-1,-5.583517921E-1,6.933352039E-1
3.192920583E0,2.328854449E-1,-1.514674437E-1,-8.757784188E-1,9.187849889E-1
3.202947583E0,2.679523849E-1,1.438976383E-1,-7.121522748E-1,7.743809614E-1
3.212974583E0,2.443713133E-1,3.137095517E-1,-4.026603198E-1,5.659208025E-1
3.223001583E0,1.108476588E-1,3.812565869E-1,-4.372618032E-1,5.906282020E-1
3.233028875E0,1.784843026E-1,3.635547262E-1,-5.846379501E-1,7.112174196E-1
3.243055875E0,4.443011199E-1,3.486419874E-1,-5.067243862E-1,7.587649993E-1
3.253081875E0,7.142758374E-1,3.153578818E-1,-6.899480581E-2,7.838372591E-1
3.263108875E0,7.702378573E-1,2.372098446E-1,5.361002495E-1,9.679557556E-1
3.273135875E0,6.426553394E-1,1.259180349E-1,8.206432682E-1,1.049912668E0
3.283162875E0,5.387134432E-1,4.527265191E-2,7.579663789E-1,9.310074213E-1
3.293189875E0,3.979541517E-1,-8.116812408E-2,4.087016630E-1,5.761881816E-1
3.303216875E0,2.585072678E-1,-2.349545735E-1,-2.428845674E-1,4.254674749E-1
3.313242875E0,2.522491391E-1,-4.385113531E-1,-1.114530759E0,1.223969218E0
3.323269875E0,2.921316631E-1,-7.065102965E-1,-2.257894723E0,2.383817587E0
3.333296875E0,7.508772878E-1,-1.039586411E0,-3.251585754E0,3.495334965E0
3.343323875E0,1.098981112E0,-1.395868371E0,-3.765143781E0,4.163233801E0
3.353350875E0,1.241540907E0,-1.369912580E0,-3.932978750E0,4.345849302E0
3.363377875E0,1.137846312E0,-9.003682995E-1,-3.649208112E0,3.927095256E0
3.373403875E0,4.137413051E-1,-4.115065724E-1,-3.216814116E0,3.269313779E0
3.383430875E0,-6.129340884E-1,-1.035576975E-1,-3.058565657E0,3.121095364E0
3.393457875E0,-1.612145768E0,2.277888107E-1,-3.376850654E0,3.748869438E0
3.403484875E0,-2.525342858E0,4.551232928E-1,-3.944334043E0,4.705556801E0
3.413511875E0,-3.109219501E0,4.321302867E-1,-4.676951573E0,5.632748752E0
3.423538875E0,-3.109653072E0,2.872772133E-1,-4.795893295E0,5.723029174E0
3.433565875E0,-2.126701622E0,-1.700077951E-2,-4.329474936E0,4.823639915E0
3.443591875E0,-8.414364056E-1,-6.455536580E-1,-3.819003654E0,3.963526669E0
3.453618875E0,2.305792665E-1,-1.575888938E0,-4.606692014E0,4.874238818E0
3.463645875E0,1.170224976E0,-2.406347927E0,-4.564028975E0,5.290585726E0
3.473672875E0,1.921233096E0,-3.023773554E0,-2.119032707E0,4.162288160E0
3.483699875E0,2.497216874E0,-3.327418293E0,1.351779195E0,4.374369853E0
3.493726875E0,2.832747357E0,-3.030052879E0,4.442139087E0,6.077686871E0
3.503752875E0,2.640366361E0,-2.387250921E0,6.056756473E0,7.025297179E0
3.513779875E0,2.049012007E0,-1.421453447E0,5.016647905E0,5.602297414E0
3.523806875E0,8.935690109E-1,-1.225167096E-1,2.217999755E0,2.394368149E0
3.533833875E0,-2.012788140E-1,5.055490959E-1,1.204082036E-1,5.573070830E-1
3.543860875E0,-1.915721802E-1,3.729529560E-2,-5.334870923E-1,5.680662962E-1
3.553887875E0,-1.791281724E-2,-7.224433744E-1,3.658802370E-1,8.100084234E-1
3.563913875E0,-3.804825617E-1,-1.454810643E0,7.510584784E-1,1.680871746E0
3.573940875E0,-6.204206441E-1,-1.625169856E0,3.839140002E-1,1.781428864E0
3.583967875E0,1.478246466E-1,-1.798749130E0,4.921765868E-1,1.870718673E0
3.593994875E0,-1.990576761E-1,-1.676384448E0,6.997845367E-2,1.689611127E0
3.604021875E0,-1.144658391E0,-1.318130223E0,-2.730203860E-1,1.766989035E0
3.614048875E0,-2.123772752E0,-9.770650578E-1,3.505274221E-2,2.338011019E0
3.624074875E0,-2.739053913E0,-6.783828503E-1,5.897468086E-1,2.882780069E0
3.634101875E0,-2.791386200E0,-5.166447723E-1,1.357837788E0,3.146820967E0
3.644128875E0,-1.694885623E0,-2.950598574E-1,1.498061328E0,2.281202608E0
3.654155875E0,-9.531644176E-1,1.198620737E-1,1.134963415E0,1.486953691E0
3.664182875E0,-3.763026796E-1,4.345586354E-1,9.901967347E-1,1.144960474E0
3.674209875E0,2.581222286E-1,6.230541569E-1,1.110506997E0,1.299249537E0
3.684236875E0,7.112018099E-1,6.583608145E-1,1.189858976E0,1.534604627E0
3.694262875E0,8.081607053E-1,6.146797746E-1,1.507555160E0,1.817602132E0
3.704289875E0,6.921450032E-1,4.394498312E-1,1.742912022E0,1.926116085E0
3.714316875E0,6.652022029E-1,1.785020453E-1,1.996671241E0,2.112120497E0
3.724343875E0,4.816035052E-1,1.234440780E-1,2.352944137E0,2.404896357E0
3.734370875E0,4.495135472E-1,2.898342007E-1,2.678975818E0,2.731845114E0
3.744397875E0,4.849551293E-1,6.882681531E-1,2.688806450E0,2.817547631E0
3.754423875E0,3.521419846E-1,1.244558802E0,2.601948985E0,2.905695977E0
3.764450875E0,-2.259391902E-1,1.802959126E0,2.440890061E0,3.042968027E0
3.774477875E0,-7.046994869E-1,2.163338229E0,2.113409732E0,3.105339652E0
3.784504875E0,-1.121896423E0,2.552648771E0,1.751723191E0,3.292901679E0
3.794531875E0,-1.450468208E0,2.897950829E0,1.195705607E0,3.454227689E0
3.804558875E0,-1.573056108E0,3.006362885E0,3.177491006E-1,3.407886120E0
3.814584875E0,-1.758200883E0,2.558514113E0,-6.483226070E-1,3.171369895E0
3.824611875E0,-1.830654609E0,1.487425827E0,-1.779281118E0,2.954585112E0
3.834638875E0,-1.222751465E0,3.627940035E-1,-3.057514912E0,3.312874593E0
3.844665875E0,-2.940270929E-1,-7.952067107E-1,-4.486768253E0,4.566168525E0
3.854692875E0,6.913050507E-1,-1.746991916E0,-7.143173819E0,7.386123180E0
3.864719875E0,1.528886387E0,-2.478478010E0,-9.660004885E0,1.008940242E1
3.874745875E0,2.072971704E0,-1.779558569E0,-8.493166105E0,8.921766129E0
3.884772875E0,1.511394441E0,6.378949749E-1,-2.750692796E0,3.202738518E0
3.894799875E0,7.244233878E-1,3.916780794E0,5.392903368E0,6.704428967E0
3.904826875E0,5.092785962E-1,7.134655010E0,1.137633225E1,1.343813984E1
3.914853875E0,-6.713336664E-1,7.431684794E0,1.015552016E1,1.260219098E1
3.924880875E0,-2.282605641E0,5.537453556E0,8.855332117E0,1.069067759E1
3.934906875E0,-3.149788653E0,2.641459790E0,7.615278010E0,8.653955024E0
3.944933875E0,-2.462823844E0,-1.296179191E0,3.234528548E0,4.267054805E0
3.954960875E0,-7.852140384E-1,-6.084981567E0,-4.327290416E0,7.507929415E0
3.964987875E0,-3.617054712E-2,-8.943071342E0,-5.742875597E0,1.062828554E1
3.975014875E0,1.157043452E0,-7.509836925E0,-5.095813358E-1,7.615515302E0
3.985041875E0,2.606760074E0,-4.092684921E0,2.629027148E0,5.518790782E0
3.995068875E0,2.263402215E0,-1.082983276E0,2.062222621E0,3.247861528E0
4.005094875E0,-5.253745191E-1,9.182216030E-1,3.687186947E-1,1.120313694E0
4.015121875E0,-2.652549035E0,1.808278338E0,-7.393454821E-1,3.294316116E0
4.025148875E0,-3.372939160E0,2.325187404E0,-4.536704059E-1,4.121775331E0
4.035175875E0,-2.840059008E0,2.484744471E0,5.325756575E-1,3.810974559E0
4.045202875E0,-1.521549739E0,1.865019134E0,1.428747118E0,2.799058468E0
4.055229875E0,4.670598719E-1,4.641385299E-1,1.965872494E0,2.073215898E0
4.065255875E0,1.865129646E0,-7.564846945E-1,2.507487216E0,3.215349099E0
4.075282875E0,2.203529797E0,-1.590654327E0,2.656708159E0,3.800502993E0
4.085309875E0,2.406422917E0,-1.933770111E0,2.180744805E0,3.779680675E0
4.095336875E0,2.409538314E0,-1.665489331E0,1.446447955E0,3.266793732E0
4.105363875E0,2.235854520E0,-1.050846979E0,1.246329339E0,2.767067334E0
4.115390875E0,1.554884277E0,-3.470649934E-1,1.217882634E0,2.005332226E0
4.125416875E0,4.143278174E-1,3.593435615E-1,1.169740169E0,1.291931654E0
4.135443875E0,-2.541725258E-2,6.841669160E-1,1.227405410E0,1.405437457E0
4.145470875E0,1.880814473E-2,1.040813742E0,1.006178344E0,1.447771340E0
4.155497875E0,-1.412822884E-1,1.227768522E0,2.834578121E-1,1.267960788E0
4.165524875E0,-4.961450920E-1,1.062798103E0,-3.633670306E-1,1.227898758E0
4.175551875E0,-5.769962970E-1,7.245056874E-1,-1.030492237E0,1.385549518E0
4.185577875E0,-2.670648506E-1,2.290822148E-1,-8.523158813E-1,9.220871201E-1
4.195604875E0,3.299154022E-1,-1.307530975E-1,-2.946587384E-1,4.612638261E-1
4.205631875E0,7.886031577E-1,-2.702296561E-1,-2.223807210E-1,8.627700693E-1
4.215658875E0,9.716658119E-1,-2.065628332E-1,-6.498367435E-1,1.187051156E0
4.225685875E0,6.652317314E-1,5.473812461E-2,-1.234198120E0,1.403130257E0
4.235712375E0,4.449147121E-1,4.897551817E-1,-1.133499126E0,1.312489813E0
4.245738375E0,2.891684221E-1,7.462117213E-1,-2.780883139E-1,8.472209982E-1
4.255765375E0,1.033700841E-1,6.032022750E-1,5.570478265E-1,8.275509893E-1
4.265792375E0,3.670808896E-2,3.502452940E-1,8.128951228E-1,8.858993907E-1
4.275819375E0,1.133916910E-1,2.000162905E-1,4.841044325E-1,5.359303067E-1
4.285846375E0,5.992687983E-2,-1.022642934E-1,-1.282131401E-1,1.746076343E-1
4.295873375E0,-2.345199792E-1,-7.209663677E-1,-1.091830771E0,1.329242851E0
4.305900375E0,-4.734223004E-1,-1.303464237E0,-2.331693016E0,2.712920938E0
4.315926375E0,-5.627809118E-1,-1.575877243E0,-3.335024936E0,3.731287012E0
4.325953375E0,-4.764967664E-1,-1.619904438E0,-3.949479008E0,4.295290909E0
4.335980375E0,-1.627054267E-1,-1.448385138E0,-4.357011813E0,4.594327426E0
4.346007375E0,9.831568697E-2,-1.258137791E0,-4.609355421E0,4.778988813E0
4.356034375E0,2.219810455E-1,-1.298180108E0,-4.805575114E0,4.982780284E0
4.366061375E0,3.630330084E-1,-1.450139887E0,-4.716986874E0,4.948198038E0
4.376087375E0,6.735294420E-1,-1.453970398E0,-4.408922224E0,4.691083777E0
4.386114375E0,1.156688745E0,-1.237752643E0,-4.081448911E0,4.419070680E0
4.396141375E0,1.297253471E0,-1.057637935E0,-3.872964683E0,4.219161055E0
4.406168375E0,1.064597438E0,-7.582061148E-1,-3.888331751E0,4.102117504E0
4.416195375E0,7.404393500E-1,-2.914497864E-1,-3.808452353E0,3.890694377E0
4.426222375E0,4.468123894E-1,1.892006958E-1,-3.211187925E0,3.247640083E0
4.436248375E0,-1.130697287E-1,4.563400984E-1,-3.240695899E0,3.274620735E0
4.446275375E0,-1.064080544E0,4.181016469E-1,-4.650174834E0,4.788653503E0
4.456302375E0,-1.334306545E0,-8.656218052E-3,-3.870325250E0,4.093881584E0
4.466329375E0,-3.282547199E-1,-7.751636249E-1,2.765288798E-1,8.860575759E-1
4.476356375E0,7.193214729E-1,-1.671295617E0,3.669104433E0,4.095482848E0
4.486383375E0,1.347775460E0,-2.429279537E0,4.863068447E0,5.600654648E0
4.496409375E0,1.588497727E0,-2.965526515E0,4.778834628E0,5.844222185E0
4.506436375E0,1.375040004E0,-3.343140287E0,3.687902062E0,5.164101433E0
4.516463375E0,8.612509384E-1,-3.271344080E0,1.933911613E0,3.896595873E0
4.526490375E0,4.994126623E-1,-2.426167064E0,1.087796046E0,2.705365016E0
4.536517375E0,2.534454063E-1,-1.632573600E0,1.141433798E0,2.008084224E0
4.546544375E0,-4.593745840E-1,-1.197917901E0,9.349054635E-1,1.587476152E0
4.556570375E0,-5.014317059E-1,-1.138318986E0,1.484255906E0,1.936548338E0
4.566597375E0,-1.718021411E-1,-1.423612239E0,1.510895966E0,2.083025301E0
4.576624375E0,-5.836363220E-1,-1.047042196E0,2.199628973E-1,1.218733930E0
4.586651375E0,-7.016431472E-1,-4.529025203E-1,-8.654346943E-2,8.395913119E-1
4.596678375E0,-8.816719736E-1,-1.605803293E-1,3.773350056E-1,9.723750396E-1
4.606705375E0,-9.362817518E-1,-2.486405665E-1,9.289319479E-1,1.342147613E0
4.616731375E0,-9.319788589E-1,-2.360649598E-1,1.433102563E0,1.725715566E0
4.626758375E0,-1.191642304E0,-1.006972396E-1,1.661378739E0,2.047029709E0
4.636785375E0,-1.600663590E0,1.539121646E-1,1.510581678E0,2.206279649E0
4.646812375E0,-1.556069508E0,3.642563921E-1,1.808665716E0,2.413567216E0
4.656839375E0,-1.546792316E0,2.932612538E-1,2.050201915E0,2.584936464E0
4.666866375E0,-1.738183963E0,1.860145479E-1,2.186693763E0,2.799556128E0
4.676893375E0,-1.791859502E0,6.749207139E-2,2.367735254E0,2.970098633E0
4.686919375E0,-1.882022691E0,8.094066739E-2,2.444934580E0,3.086464952E0
4.696946375E0,-1.794559308E0,2.039064431E-1,2.382543620E0,2.989738291E0
4.706973375E0,-1.399668330E0,3.945075470E-1,2.469081827E0,2.865496938E0
4.717000375E0,-1.134315544E0,7.147677344E-1,2.596933828E0,2.922606709E0
4.727027375E0,-1.049502119E0,1.533375002E0,2.521250685E0,3.131995947E0
4.737054375E0,-8.153980234E-1,2.245452433E0,2.192657338E0,3.242634232E0
4.747080375E0,-7.967079833E-1,2.828891119E0,1.910768626E0,3.505482180E0
4.757107375E0,-8.865916747E-1,3.221939201E0,1.505896012E0,3.665332156E0
4.767134375E0,-9.352382431E-1,3.500605220E0,9.900938237E-1,3.756220608E0
4.777161375E0,-9.150706116E-1,3.664766968E0,5.166190445E-1,3.812448871E0
4.787188375E0,-6.878830408E-1,3.444449730E0,-7.780012786E-3,3.512474562E0
4.797215375E0,-4.871484198E-1,2.452312889E0,-3.588135114E-1,2.525846239E0
4.807241375E0,-1.942684776E-1,9.412777591E-1,-6.941267708E-1,1.185561485E0
4.817268375E0,1.512201065E-1,-5.069781554E-1,-1.281921340E0,1.386800884E0
4.827295375E0,3.405550689E-1,-1.724510542E0,-1.973535562E0,2.642869081E0
4.837322375E0,1.334613086E-1,-2.558481953E0,-3.112232864E0,4.031083629E0
4.847349375E0,2.577174917E-2,-2.623408266E0,-5.238110029E0,5.858389863E0
4.857376375E0,4.994381708E-1,-1.917240617E0,-7.671432331E0,7.923138524E0
4.867402375E0,1.707434333E0,-4.976822519E-1,-7.505908180E0,7.713733029E0
4.877429375E0,2.524311994E0,1.600944257E0,-2.625310073E0,3.978369834E0
4.887456375E0,2.881711941E0,4.479000519E0,4.230080163E0,6.801418054E0
4.897483375E0,2.514085506E0,6.786269715E0,9.093091600E0,1.162146279E1
4.907510375E0,4.827103832E-1,6.349920663E0,9.341599435E0,1.130574994E1
4.917537375E0,-1.877266419E0,4.454463848E0,8.697980036E0,9.950941366E0
4.927563375E0,-3.359644638E0,1.715239781E0,6.868789716E0,7.836423403E0
4.937590375E0,-3.614778245E0,-2.317718171E0,2.412266186E0,4.925187045E0
4.947617375E0,-2.785261534E0,-7.088577197E0,-3.376322943E0,8.330976240E0
4.957644375E0,-1.910266204E0,-1.000721840E1,-4.242104670E0,1.103580487E1
4.967671375E0,-1.063878230E0,-9.009760591E0,-8.956133437E-1,9.116454687E0
4.977698375E0,1.096543554E0,-4.407855107E0,1.652218491E0,4.833365324E0
4.987724375E0,1.683491154E0,5.248782367E-1,2.101240506E0,2.743146240E0
4.997751375E0,-3.129706829E-1,3.217362585E0,1.174560760E0,3.439326334E0
5.007778375E0,-1.818689159E0,3.783901064E0,5.116220140E-1,4.229337372E0
5.017805375E0,-2.263306906E0,3.188995988E0,8.490332544E-1,4.001638543E0
5.027832375E0,-2.148925720E0,2.129015658E0,1.192056652E0,3.251397927E0
5.037859375E0,-7.732224224E-1,4.565178537E-1,1.045405122E0,1.378097723E0
5.047885375E0,9.721270110E-1,-1.342903706E0,1.315289061E0,2.116224611E0
5.057912375E0,2.047428435E0,-2.348880322E0,1.924382698E0,3.662301289E0
5.067939375E0,2.498012680E0,-2.360853665E0,2.174754918E0,4.067340204E0
5.077966375E0,2.379712982E0,-1.857990780E0,2.128381820E0,3.693937302E0
5.087993375E0,1.873876204E0,-1.199725276E0,2.019196762E0,3.004647787E0
5.098020375E0,1.361451659E0,-3.996764857E-1,1.766516354E0,2.265804922E0
5.108046375E0,1.111327727E0,2.544474363E-1,1.578747057E0,1.947366192E0
5.118073375E0,8.974411102E-1,7.897951126E-1,1.575721707E0,1.977896803E0
5.128100375E0,6.834743864E-1,1.093066800E0,1.508539538E0,1.984344679E0
5.138127375E0,4.969117716E-1,1.159959531E0,1.185758032E0,1.731603168E0
5.148154375E0,3.721608775E-1,1.078740537E0,7.448803103E-1,1.362729445E0
5.158181375E0,3.019174719E-1,9.029621243E-1,1.724519312E-1,9.675920765E-1
5.168207375E0,4.356975268E-1,6.023772329E-1,-5.348413074E-1,9.158307102E-1
5.178234375E0,4.891325628E-1,9.553999543E-2,-1.136556051E0,1.241023050E0
5.188261375E0,5.295118627E-1,-2.410462028E-1,-1.539659590E0,1.645915471E0
5.198288375E0,6.680142751E-1,-3.436777014E-1,-1.901798705E0,2.044797239E0
5.208315375E0,6.850477991E-1,-1.286451763E-1,-1.995889760E0,2.114099336E0
5.218342375E0,6.483690923E-1,2.866439599E-1,-1.759452918E0,1.896897944E0
5.228369375E0,4.721934349E-1,3.972843897E-1,-1.201602817E0,1.350796378E0
5.238395333E0,3.337005973E-1,2.205949813E-1,-4.946411151E-1,6.361509782E-1
5.248422333E0,4.237250969E-1,3.112648308E-2,4.505162716E-2,4.272487154E-1
5.258449333E0,5.449014419E-1,1.255455673E-2,3.238392681E-1,6.339929573E-1
5.268476333E0,5.341726783E-1,1.753825557E-1,2.102044426E-1,6.002377852E-1
5.278503333E0,4.439909251E-1,4.911134899E-1,-7.560815290E-4,6.620581343E-1
5.288530333E0,3.523241984E-1,7.472303063E-1,-1.118391091E-1,8.336626762E-1
5.298556333E0,3.179370521E-1,6.848340833E-1,-2.471927959E-1,7.944721324E-1
5.308583333E0,2.757597517E-1,2.780906528E-1,-5.942039218E-1,7.116573280E-1
5.318610333E0,1.147658963E-1,-2.259270573E-1,-1.132928438E0,1.160922518E0
5.328637333E0,-6.073665524E-2,-6.176981074E-1,-1.644643423E0,1.757865718E0
5.338664333E0,-9.343260409E-2,-8.007522100E-1,-2.077463681E0,2.228405057E0
5.348691333E0,1.059502137E-1,-9.559180176E-1,-2.251342918E0,2.448172714E0
5.358717333E0,5.516275672E-1,-1.212886189E0,-2.346167214E0,2.698126475E0
5.368744333E0,1.046578512E0,-1.517566470E0,-2.568357900E0,3.161454867E0
5.378771333E0,1.318540990E0,-1.581439115E0,-2.963361291E0,3.608463684E0
5.388798333E0,1.377209467E0,-1.210972395E0,-3.470030714E0,3.924827794E0
5.398825333E0,1.205691336E0,-7.617237997E-1,-3.857651995E0,4.112832802E0
5.408852333E0,6.013423854E-1,-6.576708430E-1,-3.945693521E0,4.045076138E0
5.418878333E0,-5.745539881E-2,-5.261459130E-1,-3.981777858E0,4.016800413E0
5.428905333E0,-6.376012985E-1,-4.505256271E-1,-4.358851932E0,4.428216223E0
5.438932333E0,-1.188523253E0,-2.422542375E-1,-4.916185139E0,5.063610467E0
5.448959333E0,-1.420063418E0,-2.047051728E-2,-4.452034330E0,4.673072739E0
5.458986333E0,-1.227881812E0,-1.590735018E-1,-3.243264581E0,3.471564959E0
5.469013333E0,-8.879586806E-1,-5.678120023E-1,-2.556005073E0,2.764786252E0
5.479039333E0,-9.302926681E-1,-9.798261130E-1,-2.450231865E0,2.798060016E0
5.489066333E0,-7.074569607E-1,-1.379148257E0,-2.201808815E0,2.692676610E0
5.499093333E0,3.593576314E-1,-1.672267424E0,-1.157825882E0,2.065472590E0
5.509120333E0,1.204016766E0,-2.119508670E0,-1.974601071E-2,2.437696306E0
5.519147333E0,1.292016120E0,-2.649002114E0,1.167849180E0,3.170234937E0
5.529174333E0,1.199009065E0,-2.959141356E0,3.044757457E0,4.411880356E0
5.539200333E0,1.265669589E0,-2.769865816E0,4.515581285E0,5.446517280E0
5.549227333E0,1.074299357E0,-2.430165975E0,4.390187745E0,5.131624910E0
5.559254333E0,6.980832893E-1,-2.142303455E0,2.740729140E0,3.548010794E0
5.569281333E0,5.624941789E-1,-1.879961109E0,5.644482453E-1,2.041875435E0
5.579308333E0,4.554234011E-1,-1.610550063E0,1.347084466E-1,1.679115346E0
5.589335333E0,-1.803045591E-1,-1.210148522E0,1.083989582E0,1.634626133E0
5.599361333E0,-1.585325247E-1,-1.045737682E0,2.136309475E0,2.383803271E0
5.609388333E0,7.685306896E-1,-1.225675803E0,2.171485155E0,2.609265869E0
5.619415333E0,5.598764536E-1,-1.228473111E0,1.029173397E0,1.697588204E0
5.629442333E0,4.177277175E-1,-9.249985260E-1,6.924585602E-1,1.228664957E0
5.639469333E0,5.481794641E-1,-6.717895299E-1,1.060010151E0,1.369460995E0
5.649496333E0,4.471950531E-1,-6.995871931E-1,1.216770786E0,1.473070536E0
5.659522333E0,-3.137159105E-2,-7.287156826E-1,1.294251949E0,1.485630785E0
5.669549333E0,-4.700671680E-1,-4.489217359E-1,1.870118198E0,1.979857556E0
5.679576333E0,-1.041182482E0,2.033690840E-1,2.287516717E0,2.521537760E0
5.689603333E0,-1.735643933E0,7.879310203E-1,1.922408971E0,2.707203613E0
5.699630333E0,-1.864363222E0,1.333790236E0,1.982910403E0,3.030970189E0
5.709657333E0,-1.779732377E0,1.667725891E0,2.217960286E0,3.296680879E0
5.719683333E0,-1.532206144E0,1.672821740E0,2.491259731E0,3.369326830E0
5.729710333E0,-1.228338041E0,1.585291260E0,2.546085564E0,3.241066864E0
5.739737333E0,-1.216134682E0,1.492219375E0,2.623886569E0,3.254302222E0
5.749764333E0,-1.328284498E0,1.321438578E0,2.930265758E0,3.478073754E0
5.759791333E0,-1.641728001E0,1.223321130E0,3.032074846E0,3.658587608E0
5.769818333E0,-1.752279261E0,1.195503586E0,3.051522101E0,3.716382456E0
5.779844333E0,-1.681307219E0,1.257143179E0,2.878450072E0,3.562678453E0
5.789871333E0,-1.373538439E0,1.326951333E0,2.408616062E0,3.073896390E0
5.799898333E0,-9.840746999E-1,1.366839868E0,1.831895826E0,2.488472736E0
5.809925333E0,-6.824027380E-1,1.404860219E0,1.112335129E0,1.917444959E0
5.819952333E0,-5.691998389E-1,1.520976566E0,5.303676027E-1,1.708405094E0
5.829979333E0,-5.308929750E-1,1.732805986E0,1.602008450E-1,1.819375785E0
5.840005333E0,-3.428826262E-1,1.881644522E0,-1.928540361E-1,1.922328609E0
5.850032333E0,-3.169285901E-1,1.884225483E0,-6.256245929E-1,2.010511262E0
5.860059333E0,-2.522798735E-1,1.504962797E0,-9.582914025E-1,1.801910255E0
5.870086333E0,-1.524500683E-2,7.921445239E-1,-1.379888807E0,1.591168903E0
5.880113333E0,1.423479800E-1,4.789512813E-2,-1.875156744E0,1.881161797E0
5.890140333E0,2.482226367E-1,-6.673649418E-1,-2.505934488E0,2.605129191E0
5.900166333E0,1.421909823E-1,-1.296086220E0,-3.098238430E0,3.361419214E0
5.910193333E0,3.994554609E-2,-1.607096112E0,-3.774570369E0,4.102649758E0
5.920220333E0,2.314671479E-1,-1.230274639E0,-4.611917963E0,4.778801108E0
5.930247333E0,6.936546081E-1,-4.241283721E-1,-4.937868369E0,5.004356664E0
5.940274333E0,1.251344057E0,5.983759832E-1,-5.053694694E0,5.240586401E0
5.950301333E0,1.798105790E0,1.417060434E0,-4.569305502E0,5.110753123E0
5.960327333E0,3.152986787E0,1.827636715E0,-2.437583461E0,4.384449198E0
5.970354333E0,4.749252394E0,2.306406732E0,2.697537805E0,5.928880209E0
5.980381333E0,4.461726090E0,2.775428857E0,8.885840549E0,1.032318591E1
5.990408333E0,5.991459154E-1,2.086307595E0,1.017602868E1,1.040496107E1
6.000435333E0,-2.486024134E0,1.090733176E0,8.372397712E0,8.801537270E0
6.010462333E0,-3.785327200E0,-3.496348447E-1,5.862789127E0,6.987363085E0
6.020488333E0,-4.364303583E0,-2.492360469E0,1.663311536E0,5.293922151E0
6.030515333E0,-3.851471488E0,-4.749175796E0,-4.225100382E0,7.432360096E0
6.040542333E0,-2.689768317E0,-6.416148566E0,-6.394769976E0,9.449597826E0
6.050569333E0,-9.120671893E-1,-5.436060498E0,-2.808532576E0,6.186313565E0
6.060596333E0,4.959791773E-1,-1.618700497E0,1.225388413E0,2.089919473E0
6.070623333E0,4.289665776E-1,1.761046869E0,3.105230823E0,3.595518997E0
6.080649333E0,-4.498292238E-1,3.166244472E0,3.653576567E0,4.855519758E0
6.090676333E0,-1.649492227E0,3.464323246E0,2.875031790E0,4.794597789E0
6.100703333E0,-2.677892622E0,2.857916697E0,1.809344431E0,4.314223454E0
6.110730333E0,-2.761655155E0,1.595678254E0,1.765151614E0,3.645365346E0
6.120757333E0,-1.401505379E0,-1.086827821E-1,2.345013851E0,2.734066428E0
6.130784333E0,5.553042964E-1,-1.720278912E0,2.988873278E0,3.493005277E0
6.140810333E0,1.564864305E0,-2.719446445E0,3.288840119E0,4.545399717E0
6.150837333E0,1.944494781E0,-2.778079984E0,2.936086954E0,4.485464854E0
6.160864333E0,2.316859507E0,-2.112369220E0,2.257138824E0,3.863239232E0
6.170891333E0,2.179978966E0,-1.047932142E0,1.491295076E0,2.841554341E0
6.180918333E0,1.385578002E0,-7.036597788E-2,1.197668956E0,1.832808964E0
6.190945333E0,6.759314782E-1,5.607298547E-1,1.369259008E0,1.626705740E0
6.200971333E0,5.008836025E-1,1.012190452E0,1.487222929E0,1.867416915E0
6.210998333E0,4.249796536E-1,1.096733589E0,1.438741325E0,1.858334973E0
6.221025333E0,2.338582206E-1,1.286767513E0,6.382305320E-1,1.455265787E0
6.231052333E0,3.324098975E-1,1.151053637E0,-4.564021520E-1,1.282077899E0
6.241079458E0,1.352993808E-1,7.246577150E-1,-9.188525176E-1,1.178017264E0
6.251106458E0,-1.527184464E-1,3.629548019E-1,-1.380949785E0,1.435994923E0
6.261132458E0,-8.959030733E-2,2.292283952E-2,-1.609750164E0,1.612404251E0
6.271159458E0,-1.562324128E-1,-1.876120073E-1,-1.641113459E0,1.659174559E0
6.281186458E0,-2.279323599E-1,1.353870159E-1,-1.628937217E0,1.650369432E0
6.291213458E0,-8.743486832E-2,5.041440099E-1,-1.085619786E0,1.200156806E0
6.301240458E0,1.648099858E-1,5.515093803E-1,-4.587397957E-1,7.360483192E-1
6.311267458E0,2.642382335E-1,4.722380930E-1,-2.694864750E-1,6.045276013E-1
6.321294458E0,5.361172429E-1,3.867412752E-1,-3.803151852E-1,7.626468070E-1
6.331320458E0,9.322083621E-1,4.453923565E-1,-3.130844843E-1,1.079540956E0
6.341347458E0,1.241418554E0,4.981336570E-1,3.899449646E-2,1.338199439E0
6.351374458E0,1.407025004E0,4.397801989E-1,2.909767101E-1,1.502595565E0
6.361401458E0,1.362596105E0,1.387509191E-1,1.350917133E-1,1.376288391E0
6.371428458E0,1.068327230E0,-3.880452043E-1,-6.030771446E-1,1.286702838E0
6.381454458E0,5.857158843E-1,-8.077916729E-1,-1.766487703E0,2.028809821E0
6.391481458E0,2.485661606E-1,-7.053081089E-1,-2.493641594E0,2.603361877E0
6.401508458E0,1.610752230E-1,-3.211980808E-1,-2.571175674E0,2.596162125E0
6.411535458E0,1.713353323E-1,-1.738997018E-1,-2.564722686E0,2.576315074E0
6.421562458E0,9.936283194E-2,-2.671353096E-1,-2.525404839E0,2.541437358E0
6.431589458E0,3.541044563E-2,-5.391179609E-1,-2.403030801E0,2.463018292E0
6.441616458E0,8.631395708E-2,-1.007377024E0,-1.871313077E0,2.126986412E0
6.451642458E0,2.290107326E-1,-1.647513236E0,-1.168106457E0,2.032539907E0
6.461669458E0,2.563289241E-1,-2.260766875E0,-1.383467596E0,2.662846967E0
6.471696458E0,1.211215091E-1,-2.403827777E0,-2.660116501E0,3.587377622E0
6.481723458E0,-1.987088897E-1,-2.193611603E0,-4.066304038E0,4.624526529E0
6.491750458E0,-5.322359343E-1,-2.051058825E0,-4.889127148E0,5.328572198E0
6.501776458E0,-7.214733944E-1,-1.888833089E0,-5.124522017E0,5.508987221E0
6.511803458E0,-7.462861271E-1,-1.604801665E0,-5.010819401E0,5.314192548E0
6.521830458E0,-6.086066372E-1,-1.200008866E0,-4.389959704E0,4.591532371E0
6.531857458E0,-2.257938869E-1,-7.100075161E-1,-3.489633504E0,3.568281876E0
6.541884458E0,-1.214768005E-1,-4.216070527E-1,-2.966179065E0,2.998454162E0
6.551911458E0,-2.052769574E-1,-5.434074783E-1,-2.560211560E0,2.625283517E0
6.561937458E0,3.367578505E-1,-5.870002252E-1,1.845743787E-1,7.014576363E-1
6.571964458E0,1.182197443E0,-6.701254123E-1,3.774537917E0,4.011707286E0
6.581991458E0,1.416439606E0,-1.101166947E0,5.344199570E0,5.637316636E0
6.592018458E0,8.830877307E-1,-1.263326025E0,4.780994589E0,5.023320202E0
6.602045458E0,2.225133614E-1,-1.204334636E0,3.376706228E0,3.591946417E0
6.612072458E0,-6.308084054E-2,-1.328324259E0,1.911881790E0,2.328887397E0
6.622098458E0,3.035124827E-1,-1.313131438E0,1.003510991E0,1.680317920E0
6.632125458E0,8.195081775E-1,-1.226509616E0,1.132804477E0,1.859883189E0
6.642152458E0,5.452214308E-1,-1.101790261E0,1.801600817E0,2.181048760E0
6.652179458E0,8.290800878E-2,-8.332598054E-1,2.042378633E0,2.207375392E0
6.662206458E0,-4.365406039E-2,-7.022517693E-1,1.708903738E0,1.848084200E0
6.672233458E0,-1.181450388E-1,-6.296504009E-1,9.668148887E-1,1.159805547E0
6.682259458E0,-3.182007249E-1,-3.484040058E-1,5.902004063E-1,7.556279324E-1
6.692286458E0,-2.950180863E-1,-1.410436124E-1,6.490736818E-1,7.267913155E-1
6.702313458E0,-3.871912915E-2,-2.395867378E-1,1.177756994E0,1.202502604E0
6.712340458E0,-3.035711010E-1,-5.798122430E-1,1.631718153E0,1.758079003E0
6.722367458E0,-9.077240237E-1,-5.074506104E-1,1.653170125E0,1.953059264E0
6.732394458E0,-1.104701443E0,-6.759264350E-2,1.633088155E0,1.972792682E0
6.742420458E0,-1.152996667E0,3.756660640E-1,1.535715935E0,1.956770231E0
6.752447458E0,-9.777442119E-1,8.324651688E-1,1.574980573E0,2.032128393E0
6.762474458E0,-9.045124405E-1,1.265824540E0,1.611223662E0,2.239753605E0
6.772501458E0,-1.091306203E0,1.516437957E0,1.814550354E0,2.604443567E0
6.782528458E0,-1.186201104E0,1.557103003E0,2.102068472E0,2.872339584E0
6.792555458E0,-1.152055923E0,1.435752228E0,2.275731362E0,2.927041261E0
6.802581458E0,-1.154209818E0,1.224387077E0,2.292340378E0,2.843615380E0
6.812608458E0,-1.137734849E0,1.049698001E0,2.188271341E0,2.680454802E0
6.822635458E0,-9.754218440E-1,9.474050564E-1,1.986694429E0,2.407483929E0
6.832662458E0,-8.240632316E-1,1.144673740E0,1.703917525E0,2.211943289E0
6.842689458E0,-6.327242821E-1,1.305359904E0,1.498819712E0,2.085848754E0
6.852716458E0,-5.099206936E-1,1.416138328E0,1.269489283E0,1.969027658E0
6.862742458E0,-3.498661751E-1,1.645029339E0,8.608487231E-1,1.889335436E0
6.872769458E0,-1.867534898E-1,1.844690119E0,5.262143254E-1,1.927345329E0
6.882796458E0,-1.886082997E-1,1.991904883E0,3.672674158E-1,2.034242736E0
6.892823458E0,-2.416968517E-1,2.109570742E0,2.319882810E-1,2.136006706E0
6.902850458E0,-3.859533629E-1,2.059937822E0,-9.579815000E-2,2.097970713E0
6.912877458E0,-4.093982857E-1,1.531836015E0,-5.077929649E-1,1.664927094E0
6.922903458E0,-3.212748986E-1,7.626190084E-1,-1.055049665E0,1.340871026E0
6.932930458E0,1.981197461E-2,-6.796803474E-3,-1.783702198E0,1.783825171E0
6.942957458E0,5.044375402E-1,-7.663050932E-1,-2.879090342E0,3.021728301E0
6.952984458E0,6.515479311E-1,-1.512285849E0,-3.894566052E0,4.228376512E0
6.963011458E0,3.806217255E-1,-1.922937559E0,-5.043909963E0,5.411431370E0
6.973038458E0,2.946050902E-1,-1.567880591E0,-5.866896211E0,6.079927044E0
6.983064458E0,3.634715496E-1,-4.060534590E-1,-5.381949195E0,5.409470225E0
6.993091458E0,3.108642966E-2,7.539733154E-1,-4.350512340E0,4.415472766E0
7.003118458E0,-1.141769721E-1,1.387115673E0,-3.441958816E0,3.712708818E0
7.013145458E0,8.501513882E-1,1.716003428E0,-1.113736999E0,2.215363458E0
7.023172458E0,2.402061333E0,1.602889041E0,2.967918026E0,4.140976858E0
7.033199458E0,2.515148823E0,6.944276100E-1,7.735671011E0,8.163872200E0
7.043225458E0,4.199017122E-1,-4.090630209E-1,9.593827268E0,9.611720535E0
7.053252458E0,-1.806493914E0,-4.988522798E-1,8.516795872E0,8.720555360E0
7.063279458E0,-3.089382822E0,-5.465088415E-1,6.758306576E0,7.451017777E0
7.073306458E0,-4.021668733E0,-9.198360193E-1,3.779163065E0,5.594818243E0
7.083333458E0,-4.415725167E0,-1.797199033E0,-1.723149017E0,5.069299326E0
7.093360458E0,-3.388658522E0,-3.115901699E0,-5.966273149E0,7.535798914E0
7.103386458E0,-1.827650456E0,-3.222499949E0,-3.875486295E0,5.361362339E0
7.113413458E0,-1.087688969E0,-1.201825595E0,-3.740697742E-1,1.663544484E0
7.123440458E0,-5.794549050E-1,1.345813281E0,1.940395883E0,2.431484640E0
7.133467458E0,-7.469330484E-1,2.586073210E0,3.194421327E0,4.177321060E0
7.143494458E0,-1.246977064E0,2.911375451E0,4.078002563E0,5.163444946E0
7.153521458E0,-9.196740514E-1,2.597933702E0,3.886125011E0,4.764139742E0
7.163547458E0,5.784409247E-2,1.448165867E0,2.397338245E0,2.801385546E0
7.173574458E0,1.027854631E0,-3.612936080E-1,1.403025216E0,1.776372137E0
7.183601458E0,2.191280318E0,-2.119705721E0,1.108328179E0,3.243956401E0
7.193628458E0,3.291903767E0,-2.907878816E0,1.174908084E0,4.546734942E0
7.203655458E0,3.737061066E0,-2.680564215E0,1.194637613E0,4.751653285E0
7.213682458E0,3.697000622E0,-1.973924695E0,1.184649400E0,4.355179273E0
7.223708458E0,2.708539926E0,-9.122182667E-1,1.106059313E0,3.064587721E0
7.233735458E0,1.024878617E0,-7.320129275E-2,8.184662037E-1,1.313629147E0
7.243762083E0,-6.842841161E-2,3.995262122E-1,3.682332297E-1,5.476306723E-1
7.253789083E0,-7.370758123E-1,5.690592134E-1,1.395110571E-1,9.415797770E-1
7.263816083E0,-1.070879394E0,5.904056436E-1,5.774252634E-1,1.352324456E0
7.273843083E0,-1.199430137E0,5.794970781E-1,1.124789114E0,1.743444886E0
7.283869083E0,-1.133241410E0,6.361530894E-1,1.330564473E0,1.859927059E0
7.293896083E0,-5.952699057E-1,6.277424544E-1,1.057974004E0,1.366644007E0
7.303923083E0,-1.015307968E-1,4.873578233E-1,3.599977919E-1,6.143488917E-1
7.313950083E0,6.100602916E-1,2.439002287E-1,-1.438133653E-1,6.725646177E-1
7.323977083E0,1.196451858E0,-7.910113335E-2,-6.750720106E-2,1.200962639E0
7.334003083E0,1.218501708E0,-1.468604225E-1,1.460868724E-1,1.235983726E0
7.344030083E0,1.173305947E0,5.118418694E-2,3.161936682E-2,1.174847416E0
7.354057083E0,1.009953526E0,1.354823256E-1,-3.352057071E-1,1.072718254E0
7.364084083E0,8.303358322E-1,1.500658661E-1,-7.337425339E-1,1.118192946E0
7.374111083E0,8.462536342E-1,1.831388873E-1,-9.228438270E-1,1.265435022E0
7.384138083E0,7.097987705E-1,1.557645625E-1,-9.508180761E-1,1.196717138E0
7.394164083E0,2.218798339E-1,2.515203202E-1,-1.129328892E0,1.178081864E0
7.404191083E0,-1.357955901E-1,4.943353057E-1,-1.133473399E0,1.244013578E0
7.414218083E0,-3.111549032E-1,7.498516130E-1,-8.698423254E-1,1.189840530E0
7.424245083E0,-4.216773655E-1,8.174635524E-1,-4.877291214E-1,1.041123507E0
7.434272083E0,-3.579511202E-1,6.330511415E-1,-2.173807669E-1,7.590369886E-1
7.444299083E0,-2.277476609E-1,3.229475677E-1,-1.680203265E-1,4.294123411E-1
7.454325083E0,2.399695477E-2,1.519048154E-2,-3.101871890E-1,3.114846654E-1
7.464352083E0,4.417981461E-1,-2.019715995E-1,-5.036908507E-1,6.997732504E-1
7.474379083E0,1.015523438E0,-3.859647650E-1,-7.114599645E-1,1.298626942E0
7.484406083E0,1.503938218E0,-6.541929191E-1,-8.204789615E-1,1.833844123E0
7.494433083E0,1.832826118E0,-1.026813753E0,-1.047580724E0,2.347556908E0
7.504460083E0,1.854649828E0,-1.459437545E0,-1.570720584E0,2.834933347E0
7.514486083E0,1.601074357E0,-1.458088592E0,-2.382760844E0,3.219784260E0
7.524513083E0,1.393847573E0,-1.176757997E0,-2.769120296E0,3.315961045E0
7.534540083E0,9.111789241E-1,-1.191694125E0,-2.818439221E0,3.192801522E0
7.544567083E0,2.112195009E-1,-1.376588346E0,-2.900354034E0,3.217399987E0
7.554594083E0,-7.902344578E-1,-1.453399710E0,-3.488371090E0,3.860773767E0
7.564621083E0,-1.982092378E0,-1.129701945E0,-4.364562907E0,4.924868125E0
7.574647083E0,-3.019810019E0,-4.279770094E-1,-5.169292978E0,6.002000230E0
7.584674083E0,-3.485362698E0,1.903853416E-3,-5.944589919E0,6.891001819E0
7.594701083E0,-3.318558007E0,5.816576242E-2,-6.840279277E0,7.603001453E0
7.604728083E0,-2.659645508E0,3.780868113E-2,-6.646754565E0,7.159224118E0
7.614755083E0,-1.653226405E0,-3.569228142E-1,-5.244012208E0,5.510010479E0
7.624782083E0,-2.997284205E-1,-1.316694732E0,-3.846825875E0,4.076958604E0
7.634808083E0,1.405938007E0,-2.573650800E0,-2.497035903E0,3.851691631E0
7.644835083E0,3.423671064E0,-3.186725514E0,2.157306826E-1,4.682230535E0
7.654862083E0,4.487019390E0,-3.448395431E0,3.279999129E0,6.540884370E0
7.664889083E0,4.501697364E0,-3.145551760E0,5.345045078E0,7.663503240E0
7.674916083E0,4.065390411E0,-2.216331545E0,6.047342455E0,7.616421435E0
7.684943083E0,2.827457674E0,-1.014930457E0,5.789769098E0,6.522731555E0
7.694969083E0,1.682918127E0,-3.787294203E-1,4.827130290E0,5.126093662E0
7.704996083E0,8.434380537E-1,-5.565882719E-1,3.511621374E0,3.654129572E0
7.715023083E0,-1.412772452E-1,-7.139321673E-1,1.802416065E0,1.943800934E0
7.725050083E0,-1.019714210E0,-5.368287760E-1,6.876430857E-1,1.341959470E0
7.735077083E0,-1.489063048E0,-5.423467934E-2,1.465247777E0,2.089784967E0
7.745104083E0,-1.845778871E0,2.296078795E-1,2.058864565E0,2.774624788E0
7.755130083E0,-1.743248675E0,2.726837325E-1,1.680892944E0,2.436939361E0
7.765157083E0,-1.404794438E0,-6.800838053E-2,1.069366865E0,1.766810132E0
7.775184083E0,-1.118734761E0,-9.412958854E-1,7.170946339E-1,1.628444080E0
7.785211083E0,-1.255356562E0,-1.552595969E0,7.839116442E-1,2.144992263E0
7.795238083E0,-1.462867814E0,-1.668340434E0,8.703130263E-1,2.383440121E0
7.805264083E0,-1.330177388E0,-1.387798628E0,9.627396718E-1,2.149935950E0
7.815291083E0,-6.689597699E-1,-9.352241367E-1,7.945009518E-1,1.397634831E0
7.825318083E0,-2.228403852E-1,-3.425000721E-1,9.222675839E-1,1.008732687E0
7.835345083E0,2.208979402E-2,2.866708571E-1,1.316220230E0,1.347257894E0
7.845372083E0,-2.003899276E-1,7.344599873E-1,1.242351185E0,1.457060076E0
7.855399083E0,-8.926388651E-1,8.485912049E-1,1.083654244E0,1.640493126E0
7.865426083E0,-1.470269220E0,9.221170181E-1,1.192670318E0,2.105814298E0
7.875452083E0,-1.652802774E0,1.046991910E0,1.464059769E0,2.443648926E0
7.885479083E0,-1.488237859E0,1.070531046E0,1.772066239E0,2.549726927E0
7.895506083E0,-1.232269709E0,1.070111216E0,2.051339199E0,2.621377340E0
7.905533083E0,-8.704010269E-1,1.190797747E0,2.116119331E0,2.579449214E0
7.915560083E0,-4.477228374E-1,1.303594630E0,2.030952881E0,2.454502863E0
7.925586083E0,-2.476643738E-1,1.432218756E0,1.848914148E0,2.351823066E0
7.935613083E0,-3.419627861E-1,1.597289747E0,1.671732111E0,2.337297870E0
7.945640083E0,-5.547600668E-1,1.730486981E0,1.370523030E0,2.276110124E0
7.955667083E0,-6.749173518E-1,1.747249779E0,1.058386379E0,2.151412779E0
7.965694083E0,-7.143584293E-1,1.630149345E0,8.004785603E-1,1.951527806E0
7.975721083E0,-5.747555709E-1,1.581238555E0,5.425999779E-1,1.767787903E0
7.985747083E0,-4.705396231E-1,1.602500786E0,4.264295438E-1,1.723733872E0
7.995774083E0,-4.365203762E-1,1.488611643E0,2.736803904E-1,1.575250970E0
8.005801083E0,-5.647620946E-1,1.149884194E0,-2.737792084E-1,1.310017152E0
8.015828083E0,-4.966418861E-1,5.236614311E-1,-8.785289490E-1,1.136964191E0
8.025855083E0,-7.828237697E-2,-1.196375406E-1,-1.428803105E0,1.435938573E0
8.035882083E0,6.835196292E-1,-6.585420781E-1,-2.197949945E0,2.394130471E0
8.045908083E0,1.146312422E0,-1.142174640E0,-3.184086958E0,3.571694953E0
8.055935083E0,1.249348548E0,-1.302175511E0,-4.121845278E0,4.499571241E0
8.065962083E0,1.206813124E0,-9.606349665E-1,-4.906288726E0,5.143042535E0
8.075989083E0,1.159286955E0,-8.364675879E-2,-4.734841347E0,4.875414403E0
8.086016083E0,8.028653938E-1,8.461651951E-1,-3.684417121E0,3.864649777E0
8.096043083E0,5.023623633E-1,1.450094279E0,-2.801707706E0,3.194480776E0
8.106069083E0,1.060596188E0,1.899320655E0,-1.088282608E0,2.432414903E0
8.116096083E0,2.270033835E0,2.243909937E0,2.191970582E0,3.872069273E0
8.126123083E0,2.801690749E0,2.312931055E0,5.626244695E0,6.697294266E0
8.136150083E0,1.816670700E0,1.740207392E0,7.319073268E0,7.739344139E0
8.146177083E0,-2.329285864E-1,8.199065191E-1,6.972239825E0,7.024146254E0
8.156203083E0,-2.378548509E0,-6.532450855E-2,5.816126007E0,6.284033898E0
8.166230083E0,-3.515095205E0,-9.381857514E-1,3.892356974E0,5.327901051E0
8.176257083E0,-3.753180377E0,-1.796392118E0,1.542376791E0,4.437602252E0
8.186284083E0,-3.639986469E0,-2.742668077E0,-2.316171290E0,5.112375095E0
8.196311083E0,-2.631285051E0,-3.604029016E0,-5.937241724E0,7.427215188E0
8.206338083E0,-1.203985484E0,-3.310067266E0,-4.136035886E0,5.432579424E0
8.216364083E0,-4.514000782E-1,-1.353668430E0,-6.587730432E-1,1.571674958E0
8.226391083E0,-5.552383690E-1,8.170519084E-1,1.384260186E0,1.700599814E0
8.236418833E0,-1.023354175E0,2.115229678E0,2.321990439E0,3.303496626E0
8.246445833E0,-1.320915398E0,2.603456397E0,2.661004694E0,3.950158058E0
8.256472833E0,-1.126055548E0,2.557450504E0,2.617354352E0,3.828720149E0
8.266499833E0,-3.743065133E-1,1.779684284E0,1.756798574E0,2.528581172E0
8.276525833E0,1.073301895E0,1.947192979E-1,1.410657295E0,1.783212429E0
8.286552833E0,2.297758700E0,-1.520190700E0,2.098686150E0,3.463402715E0
8.296579833E0,2.802977721E0,-2.495715017E0,2.639572017E0,4.588313196E0
8.306606833E0,3.059822223E0,-2.624301136E0,2.338570365E0,4.660298257E0
8.316633833E0,2.983014660E0,-1.909925750E0,1.565274926E0,3.872502863E0
8.326660833E0,2.348335800E0,-8.276593423E-1,1.186892538E0,2.758335533E0
8.336686833E0,9.868005987E-1,1.964313626E-2,1.175866005E0,1.535194494E0
8.346713833E0,-2.716592821E-1,4.133578008E-1,1.207629834E0,1.305003162E0
8.356740833E0,-9.303338179E-1,5.064998531E-1,1.182831939E0,1.587814381E0
8.366767833E0,-1.314325001E0,4.419278812E-1,1.388787392E0,1.962519015E0
8.376794833E0,-1.605210678E0,5.324720156E-1,1.532232602E0,2.282096517E0
8.386821833E0,-9.644854311E-1,8.111152303E-1,1.044534983E0,1.636824179E0
8.396847833E0,5.016213749E-1,7.457199705E-1,-5.228726417E-3,8.987489181E-1
8.406874833E0,1.415177631E0,2.721984136E-1,-5.825231583E-1,1.554397933E0
8.416901833E0,1.632774014E0,-4.981418431E-2,-8.869010655E-1,1.858770005E0
8.426928833E0,1.713283010E0,-1.390222299E-1,-8.901672471E-1,1.935733345E0
8.436955833E0,1.621077390E0,-9.205037713E-2,-6.972488185E-1,1.767065672E0
8.446982833E0,1.301645460E0,1.171641684E-1,-4.872753775E-1,1.394792329E0
8.457008833E0,9.422910815E-1,3.791147518E-1,-2.143156564E-1,1.038061500E0
8.467035833E0,1.675840511E-1,5.504820246E-1,-1.856222363E-1,6.046242537E-1
8.477062833E0,-5.288283963E-1,6.532585341E-1,-5.951658618E-1,1.029868238E0
8.487089833E0,-7.860862237E-1,6.519475883E-1,-8.001014149E-1,1.297354802E0
8.497116833E0,-7.146007964E-1,5.123956007E-1,-8.121443403E-1,1.196988713E0
8.507143833E0,-3.684231180E-1,4.880337614E-1,-4.404064357E-1,7.535717449E-1
8.517169833E0,-2.337431766E-2,5.222902590E-1,4.200288892E-2,5.244975844E-1
8.527196833E0,2.279889317E-1,4.883600360E-1,2.929361486E-1,6.134216046E-1
8.537223833E0,2.707252807E-1,8.966178954E-2,1.869331455E-1,3.409918108E-1
8.547250833E0,3.381922091E-1,-4.010926813E-1,-4.222356284E-1,6.734480196E-1
8.557277833E0,8.045354316E-1,-8.211204010E-1,-8.324634147E-1,1.419334813E0
8.567304833E0,1.157429149E0,-1.246842724E0,-9.427740616E-1,1.945014639E0
8.577330833E0,1.267651064E0,-1.456779401E0,-1.028521725E0,2.187921932E0
8.587357833E0,1.195288555E0,-1.476305593E0,-1.148498404E0,2.219739065E0
8.597384833E0,9.076799503E-1,-1.278274432E0,-1.150108727E0,1.944381264E0
8.607411833E0,4.228060973E-1,-1.122105827E0,-1.450609419E0,1.882061149E0
8.617438833E0,-4.781989639E-1,-1.131911607E0,-2.518833738E0,2.802574091E0
8.627464833E0,-1.443372028E0,-1.104075353E0,-4.117347892E0,4.500539841E0
8.637491833E0,-2.001144361E0,-9.908182937E-1,-4.559666952E0,5.077091919E0
8.647518833E0,-2.170091617E0,-7.815961468E-1,-4.153739793E0,4.751183477E0
8.657545833E0,-2.325725056E0,-7.513888460E-1,-4.687842597E0,5.286723980E0
8.667572833E0,-2.325777681E0,-1.102839836E0,-5.702682422E0,6.256683173E0
8.677599833E0,-1.399463531E0,-1.637214535E0,-5.433684774E0,5.844989293E0
8.687625833E0,1.104566628E-1,-2.102189802E0,-3.881522083E0,4.415610526E0
8.697652833E0,1.383594773E0,-2.104529858E0,-1.778038877E0,3.082985998E0
8.707679833E0,1.849006680E0,-1.843939337E0,-4.207656384E-3,2.611313019E0
8.717706833E0,1.764315901E0,-1.539642633E0,1.192092905E0,2.627621649E0
8.727733833E0,1.706071932E0,-1.003778062E0,1.858187832E0,2.714979531E0
8.737760833E0,1.686710047E0,-1.248836625E-1,2.079059386E0,2.680125863E0
8.747786833E0,1.213272105E0,4.318478662E-1,1.972127845E0,2.355378954E0
8.757813833E0,7.055785426E-1,5.370995021E-1,2.307420055E0,2.471943418E0
8.767840833E0,4.512858748E-1,4.227186084E-1,2.233083233E0,2.317112575E0
8.777867833E0,3.513546204E-1,2.330056965E-2,1.571660231E0,1.610623751E0
8.787894833E0,2.456599117E-1,-7.412240463E-1,4.170630352E-1,8.852702720E-1
8.797921833E0,2.931466667E-1,-1.157219526E0,1.750188589E-1,1.206533713E0
8.807947833E0,7.923848444E-1,-1.082748218E0,1.154453208E0,1.770022502E0
8.817974833E0,8.213526817E-1,-1.116176165E0,1.662976198E0,2.164707670E0
8.828001833E0,-9.937430710E-2,-7.466216111E-1,1.397565233E0,1.587610677E0
8.838028833E0,-6.651075511E-1,-4.035432494E-1,1.019420095E0,1.282354296E0
8.848055833E0,-1.072912544E0,-1.352613008E-1,4.932126403E-1,1.188568742E0
8.858082833E0,-1.179212951E0,-2.391669077E-1,1.782579240E-1,1.216355162E0
8.868108833E0,-1.257901417E0,-6.407706356E-1,3.400810790E-1,1.452087505E0
8.878135833E0,-1.409342110E0,-8.895111895E-1,7.762300108E-1,1.838479907E0
8.888162833E0,-1.482898474E0,-8.394508374E-1,1.110098569E0,2.033711983E0
8.898189833E0,-1.355088719E0,-6.008534485E-1,1.332718441E0,1.993346118E0
8.908216833E0,-7.971801460E-1,-2.530060977E-1,1.394100465E0,1.625738102E0
8.918242833E0,-3.874539777E-1,-7.780948341E-2,1.473124707E0,1.525211888E0
8.928269833E0,-2.407799352E-1,2.751430714E-1,1.315757715E0,1.365612336E0
8.938296833E0,-1.022931641E-1,6.374944407E-1,9.481064299E-1,1.147069682E0
8.948323833E0,1.092668824E-1,7.727662665E-1,9.959977573E-1,1.265353108E0
8.958350833E0,-1.308036759E-2,8.897041476E-1,1.266342896E0,1.547697934E0
8.968377833E0,-1.541244916E-1,1.219088330E0,1.565315710E0,1.990011052E0
8.978403833E0,-1.017118777E-1,1.528921178E0,1.859378617E0,2.409405345E0
8.988430833E0,-9.765551805E-2,1.848189093E0,1.999918199E0,2.724887581E0
8.998457833E0,-3.379193634E-1,2.161350760E0,2.061423014E0,3.005842885E0
9.008484833E0,-6.701842500E-1,2.182158662E0,2.083411761E0,3.090561102E0
9.018511833E0,-7.907878236E-1,2.091008756E0,2.010894593E0,3.006885442E0
9.028538833E0,-8.660392233E-1,1.909085505E0,1.898491520E0,2.828232920E0
9.038564833E0,-7.694940915E-1,1.644090861E0,1.658493430E0,2.458811984E0
9.048591833E0,-6.494926348E-1,1.258430151E0,1.170148305E0,1.837044960E0
9.058618833E0,-8.131291576E-1,5.925118107E-1,4.829016602E-1,1.115994304E0
9.068645833E0,-1.292639579E0,-1.805813152E-1,-4.024083048E-1,1.365818120E0
9.078672833E0,-1.322490638E0,-7.612080753E-1,-1.576041258E0,2.193701271E0
9.088699833E0,-8.846525918E-1,-1.243500456E0,-2.933729064E0,3.306912429E0
9.098725833E0,-1.681612444E-1,-1.845105271E0,-4.746987183E0,5.095741259E0
9.108752833E0,8.931352937E-1,-2.527485863E0,-7.238090501E0,7.718538044E0
9.118779833E0,1.675850159E0,-3.048539436E0,-9.988555255E0,1.057701766E1
9.128806833E0,2.340439428E0,-2.026784694E0,-8.936004982E0,9.457150625E0
9.138833833E0,2.070853989E0,3.502786231E-1,-2.661701682E0,3.390543791E0
9.148859833E0,8.981560054E-1,3.054381389E0,4.601220190E0,5.595279896E0
9.158886833E0,5.890752558E-1,5.891802426E0,9.477692794E0,1.117528551E1
9.168913833E0,-9.605893582E-2,7.059069808E0,9.340193764E0,1.170807044E1
9.178940833E0,-1.531434311E0,5.881659261E0,7.076353008E0,9.328128355E0
9.188967833E0,-1.062324698E0,4.177471302E0,6.335459329E0,7.662757020E0
9.198994833E0,6.758108063E-1,1.795959424E0,4.420592097E0,4.819110394E0
9.209020833E0,2.357815452E0,-1.192315099E0,6.248121223E-1,2.715013663E0
9.219047833E0,2.616114450E0,-4.600928414E0,-1.777746224E0,5.583276701E0
9.229074833E0,1.946582676E0,-7.141430179E0,-1.822088584E0,7.622940110E0
9.239101958E0,1.406483698E0,-7.169015588E0,-1.618501984E0,7.482815618E0
9.249128958E0,-6.538619667E-2,-5.053384207E0,-1.255915264E0,5.207522486E0
9.259155958E0,-2.359389230E0,-1.978851559E0,5.009631246E-2,3.079785816E0
9.269181958E0,-4.528038193E0,9.617418444E-1,1.373895996E0,4.828629978E0
9.279208958E0,-5.920691764E0,2.961020651E0,1.694659921E0,6.833308606E0
9.289235958E0,-6.390151260E0,4.054929450E0,1.336636076E0,7.685250938E0
9.299262958E0,-5.866282253E0,4.473475485E0,5.708334048E-1,7.399398703E0
9.309289958E0,-4.428098752E0,3.958848002E0,3.838460264E-1,5.952131873E0
9.319316958E0,-1.893245252E0,2.073755962E0,9.987083803E-1,2.980312031E0
9.329342958E0,9.396401732E-1,-4.436346835E-1,2.082406479E0,2.327262798E0
9.339369958E0,3.114832243E0,-2.587055542E0,3.172695412E0,5.144028816E0
9.349396958E0,4.205941103E0,-3.976908882E0,3.218585823E0,6.623068738E0
9.359423958E0,4.271729880E0,-4.405719704E0,2.105087682E0,6.487637199E0
9.369450958E0,3.890501360E0,-3.806329229E0,6.945615113E-1,5.486944389E0
9.379477958E0,3.573103385E0,-2.610406982E0,3.406223850E-1,4.438165840E0
9.389503958E0,3.033517062E0,-1.063687465E0,8.875721066E-1,3.334882461E0
9.399530958E0,2.244022204E0,2.033269840E-1,1.892223158E0,2.942360616E0
9.409557958E0,1.580355626E0,1.147172840E0,2.545050899E0,3.207929785E0
9.419584958E0,1.135293345E0,1.523435905E0,2.370145476E0,3.037653290E0
9.429611958E0,4.247688615E-1,1.247217531E0,1.458544675E0,1.965536243E0
9.439638958E0,-3.163316990E-1,8.003610313E-1,4.868825177E-1,9.887861803E-1
9.449664958E0,-7.058581126E-1,5.165342599E-1,1.211379727E-1,8.830162656E-1
9.459691958E0,-7.347678432E-1,2.852564156E-1,-4.473705427E-1,9.063086717E-1
9.469718958E0,-2.630494580E-1,7.221545219E-2,-7.301056389E-1,7.793999826E-1
9.479745958E0,3.032441320E-1,3.824429870E-2,-2.716324031E-1,4.089056033E-1
9.489772958E0,6.268111391E-1,1.964921737E-1,1.641543668E-2,6.570927218E-1
9.499798958E0,4.763222270E-1,2.553672034E-1,-6.415529931E-1,8.388596518E-1
9.509825958E0,2.532499083E-1,5.446646297E-1,-1.212195632E0,1.352853771E0
9.519852958E0,1.224740066E-1,8.662901419E-1,-1.077248912E0,1.387776535E0
9.529879958E0,5.317097945E-2,9.269877487E-1,-5.993723488E-1,1.105160917E0
9.539906958E0,-2.810948791E-1,9.762429392E-1,-1.032612437E-1,1.021140290E0
9.549933958E0,-3.462297917E-1,1.127523272E0,1.952238943E-1,1.195531751E0
9.559959958E0,-4.068182018E-1,1.126301204E0,6.754524451E-2,1.199423950E0
9.569986958E0,-6.082224751E-1,8.479404098E-1,-1.969354292E-1,1.061942127E0
9.580013958E0,-7.908916117E-1,3.128763235E-1,-3.539454486E-1,9.212374916E-1
9.590040958E0,-7.619204123E-1,-2.651139271E-1,-7.275368840E-1,1.086332374E0
9.600067958E0,-5.468361029E-1,-6.492871052E-1,-1.310931131E0,1.561775880E0
9.610094958E0,-1.222343987E-2,-8.289363742E-1,-1.687072574E0,1.879760302E0
9.620120958E0,8.241269662E-1,-1.122443796E0,-1.909906454E0,2.363642950E0
9.630147958E0,1.591762374E0,-1.676193244E0,-2.352723112E0,3.298277928E0
9.640174958E0,1.924436639E0,-2.123488870E0,-2.756633567E0,3.976391577E0
9.650201958E0,1.861883272E0,-2.068475926E0,-2.977918519E0,4.075929426E0
9.660228958E0,1.524091378E0,-1.662292074E0,-2.866858259E0,3.647594515E0
9.670254958E0,1.195519520E0,-1.343327630E0,-2.580115482E0,3.144962947E0
9.680281958E0,8.052259878E-1,-1.332451808E0,-2.877753376E0,3.271892603E0
9.690308958E0,1.844270289E-1,-1.533405992E0,-3.560444455E0,3.880993685E0
9.700335958E0,-5.621640305E-1,-1.818539032E0,-4.136476473E0,4.553410834E0
9.710362958E0,-1.286147123E0,-1.869907991E0,-4.112167844E0,4.696877121E0
9.720389958E0,-1.737652159E0,-1.316106502E0,-3.967968489E0,4.527288955E0
9.730415958E0,-1.854523674E0,-5.051912463E-1,-4.257620841E0,4.671382181E0
9.740442958E0,-1.390437477E0,1.385351568E-1,-4.376222840E0,4.593891021E0
9.750469958E0,-5.921078411E-1,4.675585663E-1,-3.524151957E0,3.604004679E0
9.760496958E0,4.581810577E-1,2.885285175E-1,-1.628605095E0,1.716255559E0
9.770523958E0,1.424784898E0,-2.586732191E-1,7.094812667E-1,1.612540700E0
9.780550958E0,2.464025447E0,-1.009656853E0,2.615144981E0,3.732266287E0
9.790576958E0,3.110680720E0,-1.861948176E0,3.320445489E0,4.916151320E0
9.800603958E0,2.335726133E0,-2.031208112E0,2.729196092E0,4.126734093E0
9.810630958E0,1.378674779E0,-1.568716158E0,1.913143473E0,2.832266315E0
9.820657958E0,4.428811236E-1,-1.517243704E0,1.265124629E0,2.024527716E0
9.830684958E0,-1.183002275E-1,-1.687183086E0,8.230623344E-1,1.880960743E0
9.840710958E0,-2.426044858E-1,-1.673757879E0,7.822627294E-1,1.863399408E0
9.850737958E0,-4.447295381E-1,-1.166928828E0,1.072920803E0,1.646410125E0
9.860764958E0,-4.639365086E-1,-9.376659340E-1,1.412652218E0,1.757851182E0
9.870791958E0,-1.213043479E0,-7.218908125E-1,1.013006869E0,1.737464746E0
9.880818958E0,-1.911279965E0,-4.644338143E-1,8.738849442E-1,2.152292909E0
9.890845958E0,-1.859683842E0,-4.231670898E-1,9.632223594E-1,2.136654322E0
9.900871958E0,-1.703908462E0,-3.810449177E-1,7.581222072E-1,1.903483269E0
9.910898958E0,-1.614073741E0,-3.980047667E-1,7.594740835E-1,1.827687807E0
9.920925958E0,-1.495161986E0,-4.026304990E-1,8.683046539E-1,1.775267207E0
9.930952958E0,-1.145702485E0,-4.033818662E-1,1.071541152E0,1.619738113E0
9.940979958E0,-7.593603551E-1,-2.912889880E-1,1.168540613E0,1.423715065E0
9.951006958E0,-3.662476614E-2,-4.190155667E-1,1.871755418E0,1.918432632E0
9.961032958E0,1.712792721E-1,-4.264660889E-1,1.618271896E0,1.682264498E0
9.971059958E0,-4.732129700E-2,-9.937869251E-2,1.233836178E0,1.238736107E0
9.981086958E0,-1.024421219E-1,2.917550111E-1,1.430053824E0,1.463102633E0
9.991113958E0,-2.394602917E-1,5.942829323E-1,1.757616600E0,1.870756410E0
1.000114096E1,-5.725347253E-1,8.195849222E-1,2.310921075E0,2.517910179E0
1.001116696E1,-8.894700397E-1,1.035390449E0,2.898564202E0,3.203882764E0
1.002119396E1,-1.289951906E0,1.268056422E0,3.086402788E0,3.577404811E0
1.003122096E1,-1.588094416E0,1.502697001E0,2.772542379E0,3.530882806E0
1.004124796E1,-1.651527058E0,1.792664518E0,2.206952026E0,3.288133960E0
1.005127496E1,-1.609914470E0,2.100956039E0,1.627498510E0,3.107183979E0
1.006130196E1,-1.295620489E0,2.216357272E0,1.365770705E0,2.907954888E0
1.007132796E1,-7.618995085E-1,2.205679672E0,9.699153748E-1,2.527102988E0
1.008135496E1,-3.373235321E-1,1.960067963E0,3.479107931E-1,2.019082838E0
1.009138196E1,-3.159944974E-2,1.601431915E0,6.653458983E-2,1.603124934E0
1.010140896E1,9.733319029E-2,1.347139429E0,7.003502548E-3,1.350669257E0
1.011143596E1,1.275279196E-1,1.067232047E0,-4.772096881E-1,1.176000297E0
1.012146296E1,-4.478791773E-2,5.163032949E-1,-1.132109828E0,1.245089440E0
1.013148896E1,-2.319666463E-1,-1.556002557E-2,-1.797867078E0,1.812836636E0
1.014151596E1,-3.818860397E-2,-3.931293583E-1,-2.651453851E0,2.680711955E0
1.015154296E1,4.868573016E-1,-7.209891719E-1,-3.515448084E0,3.621495637E0
1.016156996E1,1.482436837E0,-8.952420455E-1,-3.942776637E0,4.306340083E0
1.017159696E1,2.557396710E0,-5.463515514E-1,-3.636710566E0,4.479334961E0
1.018162396E1,2.754669487E0,7.140227991E-1,-2.611677582E0,3.862498198E0
1.019164996E1,1.920306458E0,1.956049172E0,-1.381511410E0,3.069573102E0
1.020167696E1,4.028466998E-1,2.771892461E0,-5.071962565E-2,2.801472070E0
1.021170396E1,-5.977194871E-1,3.262154011E0,9.691201535E-1,3.455157196E0
1.022173096E1,-6.970832692E-1,3.209063047E0,1.513788876E0,3.616015416E0
1.023175796E1,-3.276482905E-1,2.621250644E0,1.865197474E0,3.233770239E0
1.024178296E1,2.820248057E-1,1.645745038E0,2.155690071E0,2.726722282E0
1.025180996E1,5.620894785E-1,-3.691815019E-2,2.402258092E0,2.467417977E0
1.026183696E1,3.280064325E-1,-2.304091235E0,2.609813490E0,3.496791542E0
1.027186396E1,-3.837938400E-1,-4.447845969E0,2.504491980E0,5.118897494E0
1.028189096E1,-1.171031088E0,-5.646121135E0,1.968511927E0,6.093031831E0
1.029191796E1,-2.086202199E0,-5.550862391E0,3.269961798E-1,5.938959454E0
1.030194396E1,-3.240894997E0,-4.155561785E0,-1.294574423E0,5.426602719E0
1.031197096E1,-3.941893123E0,-1.476950541E0,-6.800501838E-1,4.264079332E0
1.032199796E1,-3.885853701E0,1.514631752E0,1.094065796E0,4.311722196E0
1.033202496E1,-3.022647380E0,3.517622956E0,2.163069842E0,5.117513028E0
1.034205196E1,-2.206488049E0,4.117232117E0,2.600719900E0,5.346394469E0
1.035207896E1,-1.673323870E0,4.083663252E0,2.874493554E0,5.266785691E0
1.036210496E1,-9.666715588E-1,3.378156338E0,2.925353512E0,4.572098787E0
1.037213196E1,1.076833467E-1,1.680768691E0,2.684034537E0,3.168693815E0
1.038215896E1,1.066581836E0,-4.781309170E-1,2.097347138E0,2.401056227E0
1.039218596E1,2.067345659E0,-2.311140638E0,1.245171444E0,3.341517776E0
1.040221296E1,3.063432002E0,-3.516685647E0,3.982116120E-1,4.680840316E0
1.041223896E1,3.781596091E0,-3.660544694E0,5.619909529E-1,5.293003900E0
1.042226596E1,3.726226760E0,-2.602451845E0,9.670006840E-1,4.646785103E0
1.043229296E1,2.784841120E0,-1.130205975E0,9.366878410E-1,3.148029498E0
1.044231996E1,1.369537335E0,2.532610363E-1,9.885102515E-1,1.707901104E0
1.045234696E1,2.157624220E-1,1.174767605E0,8.150599082E-1,1.446013486E0
1.046237396E1,-3.969315834E-1,1.448831280E0,2.890559363E-1,1.529777793E0
1.047239996E1,-8.201773913E-1,1.332450639E0,-2.270391977E-1,1.581032086E0
1.048242696E1,-1.062394207E0,9.190577549E-1,1.193675454E-1,1.409821697E0
1.049245396E1,-1.001959359E0,5.126745129E-1,8.010288564E-1,1.381450304E0
1.050248096E1,-6.727391908E-1,4.023621118E-1,7.741339302E-1,1.101706236E0
1.051250796E1,-5.307101034E-2,3.743907863E-1,3.576496232E-1,5.204788621E-1
1.052253496E1,6.093395857E-1,2.001899529E-1,-1.141200348E-1,6.514553939E-1
1.053256096E1,9.492166699E-1,-7.276216686E-2,-3.510633194E-1,1.014668455E0
1.054258796E1,1.121372147E0,-1.938650197E-1,-1.531398205E-1,1.148264318E0
1.055261496E1,1.241022844E0,-2.156891674E-1,1.424639010E-1,1.267657477E0
1.056264196E1,9.183079956E-1,-1.513493299E-1,2.993544180E-2,9.311779235E-1
1.057266896E1,5.000405071E-1,1.386965400E-1,-6.840517259E-1,8.586058482E-1
1.058269496E1,6.615690355E-1,5.140971404E-1,-8.571737480E-1,1.198631008E0
1.059272196E1,1.010188804E0,7.826708651E-1,-3.941257238E-1,1.337307066E0
1.060274896E1,8.201747601E-1,8.959513128E-1,3.435005307E-2,1.215152385E0
1.061277596E1,4.733795426E-1,8.321079040E-1,1.386398220E-1,9.673224671E-1
1.062280296E1,3.728121842E-1,5.618659687E-1,3.766541521E-2,6.753524821E-1
1.063282996E1,3.907287108E-1,1.824378061E-1,-1.341936175E-1,4.516197577E-1
1.064285596E1,4.254974976E-1,-1.872143966E-1,-3.280293463E-1,5.689469244E-1
1.065288296E1,3.578167804E-1,-5.975170273E-1,-6.230366153E-1,9.344699408E-1
1.066290996E1,3.120782516E-1,-1.016398108E0,-1.107887152E0,1.535536353E0
1.067293696E1,4.980121080E-1,-1.436207142E0,-1.588938169E0,2.198961464E0
1.068296396E1,8.521672889E-1,-1.625793754E0,-1.877861958E0,2.625977904E0
1.069299096E1,1.064532095E0,-1.469951423E0,-1.841659507E0,2.585671191E0
1.070301696E1,9.002549366E-1,-1.074056917E0,-1.467200893E0,2.028974044E0
1.071304396E1,4.731675810E-1,-7.713623500E-1,-1.200944420E0,1.503713714E0
1.072307096E1,-6.940863336E-2,-8.964635289E-1,-1.729097098E0,1.948907691E0
1.073309796E1,-7.934849980E-1,-1.214611702E0,-2.630841832E0,3.004368282E0
1.074312496E1,-1.654106849E0,-1.343971408E0,-3.229265177E0,3.869170738E0
1.075315196E1,-2.013686931E0,-1.192331471E0,-3.418752971E0,4.143001481E0
1.076317796E1,-1.952504151E0,-6.408466494E-1,-3.684559209E0,4.218878222E0
1.077320496E1,-1.502932059E0,2.370221490E-1,-4.352367954E0,4.610649746E0
1.078323196E1,-4.901300247E-1,6.467371345E-1,-4.246446812E0,4.323286584E0
1.079325896E1,7.637059327E-1,5.047655690E-1,-3.083600510E0,3.216617344E0
1.080328596E1,1.802879750E0,3.830861807E-2,-1.896411080E0,2.616909996E0
1.081331196E1,2.156848989E0,-4.870549375E-1,-1.332704993E0,2.581728621E0
1.082333896E1,2.013580804E0,-8.463195616E-1,-9.869673175E-1,2.396845623E0
1.083336596E1,1.895394688E0,-1.064172783E0,-3.671010625E-1,2.204483596E0
1.084339296E1,1.722262580E0,-9.418589723E-1,6.863346616E-2,1.964178523E0
1.085341996E1,9.907662535E-1,-4.330102926E-1,-2.800909853E-1,1.116945228E0
1.086344696E1,2.305839260E-1,1.079302454E-1,-8.393631291E-1,8.771250466E-1
1.087347296E1,-2.532475146E-1,1.910758978E-1,-1.069689631E0,1.115742000E0
1.088349996E1,-5.509748352E-1,-2.951990211E-1,-6.752727163E-1,9.201679045E-1
1.089352696E1,-7.577664772E-1,-1.047242171E0,4.194827592E-1,1.359004041E0
1.090355396E1,-6.750813662E-1,-1.744233785E0,1.614601014E0,2.470834430E0
1.091358096E1,-3.327870429E-1,-2.110835495E0,2.220217019E0,3.081515425E0
1.092360796E1,1.302492320E-1,-2.096089987E0,1.888221470E0,2.824170394E0
1.093363396E1,4.380190176E-1,-1.694764001E0,8.183951600E-1,1.932318897E0
1.094366096E1,4.431184840E-1,-1.162662115E0,-2.871263552E-1,1.276941160E0
1.095368796E1,1.913013445E-1,-7.680738759E-1,-1.177466972E-1,8.002486913E-1
1.096371496E1,-5.460110607E-1,-8.223044622E-1,6.047753222E-1,1.157612153E0
1.097374196E1,-1.602047480E0,-9.395165777E-1,9.767903848E-1,2.098420116E0
1.098376796E1,-2.242773677E0,-6.258619899E-1,1.011576494E0,2.538705182E0
1.099379496E1,-1.658402798E0,-3.815945560E-1,1.496628468E0,2.266232781E0
1.100382196E1,-9.765629281E-1,-6.315080613E-1,2.123658731E0,2.421240176E0
1.101384896E1,-1.221867804E0,-7.063056439E-1,1.746790480E0,2.245685992E0
1.102387596E1,-1.301221683E0,-5.891642797E-1,1.385372911E0,1.989861935E0
1.103390296E1,-1.330126517E0,-2.536925608E-1,6.980289102E-1,1.523430611E0
1.104392896E1,-8.995308320E-1,4.925577521E-2,6.953476694E-1,1.138020312E0
1.105395596E1,-5.475171939E-2,3.227417457E-1,1.429626685E0,1.466626212E0
1.106398296E1,3.428417688E-1,6.197370315E-1,1.876206319E0,2.005433773E0
1.107400996E1,3.659767891E-1,7.641217428E-1,2.215544802E0,2.372015981E0
1.108403696E1,1.044482285E-1,8.544150317E-1,2.512741232E0,2.656087908E0
1.109406396E1,-3.589173726E-1,8.431474471E-1,2.536285923E0,2.696750930E0
1.110408996E1,-9.848543530E-1,9.138011080E-1,2.328541075E0,2.688321800E0
1.111411696E1,-6.466464295E-1,8.802047610E-1,2.688645651E0,2.902021272E0
1.112414396E1,-9.723175572E-1,1.003027280E0,2.845140531E0,3.169588269E0
1.113417096E1,-8.939761964E-1,1.359186448E0,2.834968422E0,3.268581832E0
1.114419796E1,-6.342550832E-1,1.764286811E0,2.729866475E0,3.311670037E0
1.115422396E1,-7.193795065E-1,2.037430134E0,2.504084136E0,3.307425855E0
1.116425096E1,-7.649996292E-1,2.104331052E0,2.039116179E0,3.028436627E0
1.117427796E1,-6.827979366E-1,2.127181971E0,1.423551721E0,2.649078266E0
1.118430496E1,-3.728494602E-1,2.083336625E0,6.382314822E-1,2.210576313E0
1.119433196E1,-3.764187469E-1,1.666659944E0,-3.132552230E-1,1.737116944E0
1.120435896E1,-9.023291633E-1,7.269615179E-1,-2.025554439E0,2.333568459E0
1.121438496E1,-1.300527619E0,-3.970282817E-1,-4.006785522E0,4.231233126E0
1.122441196E1,-8.730518621E-1,-1.389725286E0,-5.309902727E0,5.557753404E0
1.123443896E1,2.812775315E-1,-2.357138345E0,-5.864911666E0,6.327116806E0
1.124446621E1,1.548295635E0,-3.033091677E0,-6.746683481E0,7.557420359E0
1.125449321E1,1.648196191E0,-3.159658168E0,-9.074750054E0,9.749414288E0
1.126452021E1,1.342353045E0,-1.681065729E0,-1.012043219E1,1.034654731E1
1.127454621E1,1.464024247E0,6.277822155E-1,-5.555376441E0,5.779246051E0
1.128457321E1,1.867128224E0,3.302402151E0,3.176478853E0,4.947933475E0
1.129460021E1,3.093543116E0,6.810356151E0,1.108688104E1,1.337422488E1
1.130462721E1,2.085267521E0,7.874430701E0,1.229645010E1,1.474983677E1
1.131465421E1,-3.240855820E-1,5.874055542E0,1.037263312E1,1.192480934E1
1.132468021E1,-9.296078861E-1,3.108062337E0,8.960565627E0,9.529740745E0
1.133470721E1,-4.556419408E-1,-3.533805710E-1,5.438634442E0,5.469116199E0
1.134473421E1,4.476973289E-1,-4.345395150E0,-1.314309945E0,4.561831051E0
1.135476121E1,5.064489093E-1,-8.303895242E0,-4.885944217E0,9.647985156E0
1.136478821E1,2.754009336E-1,-9.033591503E0,-3.246026806E0,9.603036558E0
1.137481521E1,9.868866990E-1,-5.683401228E0,-2.236945611E0,6.186996084E0
1.138484121E1,-3.340765002E-1,-1.148383799E0,-1.231147335E0,1.716425419E0
1.139486821E1,-2.503262018E0,1.627521021E0,8.551778010E-1,3.105877409E0
1.140489521E1,-3.823208679E0,2.856359584E0,2.139220511E0,5.229911956E0
1.141492221E1,-5.011158539E0,3.081553985E0,1.288983315E0,6.022388467E0
1.142494921E1,-5.778443041E0,2.986664785E0,-5.075888970E-1,6.524432312E0
1.143497521E1,-5.312767278E0,2.887605935E0,-6.821103041E-1,6.085149025E0
1.144500221E1,-3.211268325E0,2.252786595E0,5.512696445E-1,3.961210663E0
1.145502921E1,-5.336820969E-1,8.445601344E-1,1.852413999E0,2.104646294E0
1.146505621E1,1.487481522E0,-8.405922139E-1,3.069839673E0,3.513276557E0
1.147508321E1,2.652125112E0,-2.124122708E0,3.613671659E0,4.960270935E0
1.148511021E1,3.394867388E0,-2.852607425E0,2.770236529E0,5.228451409E0
1.149513621E1,3.561000525E0,-2.834940648E0,1.296971050E0,4.732837112E0
1.150516321E1,3.383804456E0,-2.067929211E0,3.259110097E-1,3.979030259E0
1.151519021E1,2.961546316E0,-9.001098526E-1,6.848234122E-1,3.170163629E0
1.152521721E1,2.451678028E0,2.539895993E-1,1.894161072E0,3.108549828E0
1.153524421E1,1.997919329E0,1.066960736E0,2.877550478E0,3.662019062E0
1.154527121E1,1.485301534E0,1.494364718E0,2.914380920E0,3.596228956E0
1.155529721E1,1.120616322E0,1.269305388E0,2.265665088E0,2.828454595E0
1.156532421E1,6.946597445E-1,5.995126820E-1,1.322465934E0,1.609622242E0
1.157535121E1,1.288144166E-1,4.058376968E-2,4.882027459E-1,5.065393543E-1
1.158537821E1,5.396769913E-2,-3.822471052E-1,5.985747155E-1,7.122619266E-1
1.159540521E1,7.232181670E-2,-5.185819548E-1,1.262389740E-1,5.386037204E-1
1.160543121E1,1.442236571E-1,-3.867629099E-1,-5.826142287E-1,7.140205538E-1
1.161545821E1,2.475393896E-1,-8.584121883E-2,-6.090459824E-1,6.630094063E-1
1.162548521E1,3.974691617E-1,2.570395070E-1,-5.212758036E-1,7.041161170E-1
1.163551221E1,1.949646799E-1,5.072137982E-1,-8.978937578E-1,1.049519063E0
1.164553921E1,-7.591072803E-2,7.314457476E-1,-1.125422952E0,1.344377976E0
1.165556621E1,-1.974841721E-1,7.703437650E-1,-8.007212198E-1,1.128531783E0
1.166559221E1,-1.232345101E-1,5.334777367E-1,-2.140443456E-1,5.878777270E-1
1.167561921E1,-5.462299293E-1,1.510055137E-1,-1.268758088E-1,5.807471668E-1
1.168564621E1,-6.422323664E-1,-2.572663790E-1,-5.388068891E-1,8.769043653E-1
1.169567321E1,-1.137484260E-1,-3.816056657E-1,-8.917682147E-1,9.766330617E-1
1.170570021E1,2.987749224E-1,-2.594941682E-1,-9.433693081E-1,1.023009936E0
1.171572721E1,4.822268915E-1,7.383688509E-2,-1.144186667E0,1.243847977E0
1.172575321E1,5.691201706E-1,1.792522430E-1,-1.960365002E0,2.049160822E0
1.173578021E1,8.652260218E-1,-5.955663961E-1,-2.966758524E0,3.147216475E0
1.174580721E1,1.388303097E0,-1.406203324E0,-3.193690717E0,3.755589657E0
1.175583421E1,1.950257797E0,-1.073938803E0,-3.121379955E0,3.834040017E0
1.176586121E1,1.629736678E0,-8.919839770E-1,-2.907200539E0,3.450143769E0
1.177588721E1,1.321547921E0,-6.125005174E-1,-2.876341859E0,3.224125971E0
1.178591421E1,8.260677302E-1,-2.466004729E-2,-3.223969939E0,3.328209455E0
1.179594121E1,-1.690554298E-2,1.090458941E-1,-3.339448940E0,3.341271618E0
1.180596821E1,-4.429185823E-1,8.199667454E-2,-3.452856272E0,3.482113835E0
1.181599521E1,-9.130645050E-1,1.643038362E-1,-3.896655262E0,4.005571716E0
1.182602221E1,-1.780829315E0,-8.541741264E-1,-4.412056332E0,4.833963959E0
1.183604821E1,-1.752458332E0,-8.358208859E-1,-4.185521164E0,4.613923945E0
1.184607521E1,-1.528310144E0,-2.955235416E-1,-3.750932708E0,4.061103574E0
1.185610221E1,-1.450225549E0,-6.265548849E-1,-3.062735306E0,3.446167831E0
1.186612921E1,-1.278732854E0,-1.051892461E0,-2.371174586E0,2.892076136E0
1.187615621E1,-6.720975320E-1,-1.816947420E0,-1.442311635E0,2.415217562E0
1.188618321E1,4.737266114E-1,-2.619882980E0,2.267387239E-1,2.672005647E0
1.189620921E1,1.487332710E0,-3.051771777E0,2.099869627E0,3.991856964E0
1.190623621E1,2.046943847E0,-3.297731395E0,3.623112574E0,5.309609796E0
1.191626321E1,1.968813205E0,-3.673235491E0,4.181071433E0,5.903409416E0
1.192629021E1,1.686635495E0,-2.800167841E0,3.420165074E0,4.731089554E0
1.193631721E1,1.070432082E0,-2.526837407E0,2.479462681E0,3.698441200E0
1.194634321E1,1.083157889E0,-2.188523356E0,1.531376424E0,2.882356544E0
1.195637021E1,9.943313009E-1,-1.877339802E0,1.114037985E0,2.398787214E0
1.196639721E1,6.778748003E-1,-2.024265713E0,1.064730169E0,2.385543178E0
1.197642421E1,5.004211243E-1,-1.476966913E0,9.744982763E-1,1.838885383E0
1.198645121E1,6.456883632E-1,-7.025938314E-1,1.099989903E0,1.456203743E0
1.199647821E1,-7.010212685E-2,-8.645067412E-1,1.565138539E0,1.789397905E0
1.200650421E1,-5.446797594E-1,-4.473038113E-1,1.662780316E0,1.805988682E0
1.201653121E1,-5.454820339E-1,2.025323474E-1,1.388466965E0,1.505460233E0
1.202655821E1,-8.920766553E-1,2.940079433E-1,1.330918376E0,1.628982859E0
1.203658521E1,-1.226133494E0,1.833259982E-1,1.350206586E0,1.833049261E0
1.204661221E1,-1.531097804E0,1.995900285E-1,1.402514608E0,2.085939570E0
1.205663821E1,-2.117857270E0,-3.871049720E-1,1.765794515E0,2.784456849E0
1.206666521E1,-2.322160008E0,-6.551056695E-1,1.712605026E0,2.958818432E0
1.207669221E1,-2.108686643E0,3.369785464E-1,1.367292735E0,2.535666249E0
1.208671921E1,-1.587541269E0,7.752349609E-1,2.199547697E0,2.821220763E0
1.209674621E1,-1.149907583E0,1.019943860E0,2.304644089E0,2.770190842E0
1.210677321E1,-9.350862155E-1,1.232787772E0,1.984458454E0,2.516391717E0
1.211679921E1,-9.416138278E-1,1.166658686E0,2.101326461E0,2.581337247E0
1.212682621E1,-9.726640047E-1,8.390391934E-1,2.265879388E0,2.604663402E0
1.213685321E1,-8.905321133E-1,-1.825383782E-2,2.526249469E0,2.678678224E0
1.214688021E1,-7.857579026E-1,-3.379287189E-1,2.470652681E0,2.614524043E0
1.215690721E1,-1.158459209E0,5.425520307E-1,1.873945493E0,2.268934145E0
1.216693321E1,-8.766873685E-1,9.144980961E-1,1.974672554E0,2.346107245E0
1.217696021E1,-6.930386040E-1,1.040419639E0,2.251336486E0,2.575129415E0
1.218698721E1,-5.809897260E-1,1.364194588E0,2.265599014E0,2.707677017E0
1.219701421E1,-5.941986593E-1,1.624265876E0,2.245997393E0,2.834751484E0
1.220704121E1,-6.901248633E-1,2.024206071E0,2.298276179E0,3.139387829E0
1.221706821E1,-4.177877976E-1,2.470510594E0,2.203902703E0,3.336938172E0
1.222709421E1,-9.391044952E-2,2.743432308E0,1.962167698E0,3.374217254E0
1.223712121E1,1.399717446E-1,2.910401305E0,1.726690384E0,3.386958448E0
1.224714812E1,1.344010292E-1,2.740716861E0,1.622643859E0,3.187877921E0
1.225717513E1,1.650279408E-1,2.390278609E0,1.352143477E0,2.751173937E0
1.226720213E1,2.285363773E-1,1.898053563E0,8.864656672E-1,2.107286783E0
1.227722913E1,1.208277413E-1,1.376360890E0,1.507742563E-1,1.389856654E0
1.228725513E1,-1.825399862E-1,3.691417408E-1,-9.592389438E-1,1.043899335E0
1.229728212E1,-3.028656710E-1,-1.434805564E0,-2.295397302E0,2.723828812E0
1.230730912E1,3.968951114E-2,-2.707859017E0,-3.451490655E0,4.387124737E0
1.231733613E1,3.113143860E-1,-4.082725359E0,-4.664695517E0,6.206846805E0
1.232736313E1,6.523585014E-1,-5.056967965E0,-6.673768702E0,8.398671639E0
1.233738913E1,1.619155410E0,-4.979343254E0,-1.104175223E1,1.222030342E1
1.234741613E1,3.278840795E0,-3.966561064E0,-1.557959270E1,1.640756265E1
1.235744312E1,5.177856810E0,-2.342695722E0,-8.152971590E0,9.938278026E0
1.236747012E1,5.665006472E0,1.499238957E0,8.418349811E0,1.025712578E1
1.237749713E1,1.646994296E0,4.745620689E0,1.794568839E1,1.863548330E1
1.238752413E1,-3.329615969E0,5.078109158E0,1.476546966E1,1.596535716E1
1.239755013E1,-5.098593709E0,4.713555143E0,9.888746792E0,1.208306968E1
1.240757713E1,-6.213046700E0,2.333188734E0,5.570604930E0,8.664719167E0
1.241760412E1,-7.077047657E0,-1.584269752E0,-4.203890777E-1,7.264381678E0
1.242763112E1,-5.970414147E0,-4.500944535E0,-5.228526442E0,9.123696375E0
1.243765813E1,-2.478806038E0,-4.108284123E0,-3.853787570E0,6.154198278E0
1.244768413E1,-1.208819743E-1,-1.643217287E0,1.905443859E-1,1.658638799E0
1.245771113E1,1.268489701E0,8.773279309E-2,4.121616359E0,4.313291618E0
1.246773813E1,2.484902346E0,1.008869233E0,4.918566125E0,5.602218268E0
1.247776512E1,2.204005175E0,5.771424043E-1,2.583524116E0,3.444608690E0
1.248779212E1,1.208576791E0,-3.116039693E-1,1.155574704E0,1.700913810E0
1.249781913E1,1.048057492E0,-1.106574453E0,4.774988329E-1,1.597165195E0
1.250784513E1,8.754337985E-1,-1.299232607E0,-3.051053739E-1,1.596082389E0
1.251787213E1,1.488065220E0,3.206811869E-1,1.538200709E-1,1.529978803E0
1.252789913E1,2.001193039E0,1.019767274E0,1.410047576E0,2.651967767E0
1.253792612E1,1.277095779E0,-7.838660359E-1,2.160971569E0,2.629680154E0
1.254795312E1,5.711465963E-1,-1.513354136E0,2.839123746E0,3.267579046E0
1.255798013E1,-6.673710814E-1,-9.860592449E-1,3.096062096E0,3.317121870E0
1.256800613E1,-8.109161326E-1,-4.212755156E-1,2.446328556E0,2.611432833E0
1.257803313E1,1.373493781E-1,-2.368985388E0,1.136689075E0,2.631162989E0
1.258806013E1,6.083253861E-1,-2.717347294E0,4.527215490E-1,2.821168710E0
1.259808712E1,6.295527524E-1,1.871693730E-1,4.454692474E-1,7.936068880E-1
1.260811412E1,2.346523821E-1,1.906532026E0,6.063017379E-1,2.014330634E0
1.261814013E1,-4.711217134E-1,2.727216809E0,1.390501504E0,3.097282942E0
1.262816713E1,-3.373998383E-1,3.272421722E0,2.338207984E0,4.036062333E0
1.263819413E1,1.448815968E-1,6.799218374E-1,2.580625651E0,2.672622894E0
1.264822113E1,7.004191788E-1,9.353790879E-2,2.344975551E0,2.449131826E0
1.265824812E1,1.041448603E0,-7.936846805E-1,1.479353454E0,1.975610591E0
1.266827512E1,1.215149792E0,-1.742670824E0,1.134386149E-1,2.127524133E0
1.267830113E1,1.345860059E0,-1.074525279E0,-4.407777339E-2,1.722755561E0
1.268832813E1,1.193868266E0,-9.192244005E-1,8.808581874E-1,1.745338386E0
1.269835513E1,6.149713314E-1,-1.128073495E0,1.635967763E0,2.080175490E0
1.270838213E1,-2.173161551E-1,-1.040806725E0,1.617116632E0,1.935347812E0
1.271840912E1,-7.485984086E-1,-6.334417355E-1,6.689341883E-1,1.187064007E0
1.272843512E1,-1.038125119E0,-6.961741734E-1,-4.116262941E-1,1.315978134E0
1.273846213E1,-1.356234920E0,-1.122302878E0,-8.186992152E-1,1.941444130E0
1.274848913E1,-1.615012073E0,-1.679096972E0,-1.132061881E0,2.590211331E0
1.275851613E1,-1.001054576E0,-1.773182180E0,-7.885074095E-1,2.183581746E0
1.276854313E1,-8.785615472E-1,-1.738208814E0,-1.639265446E-1,1.954510728E0
1.277857012E1,-1.101587728E0,-1.729098852E0,-4.192077939E-1,2.092609265E0
1.278859612E1,-1.268017246E0,-1.320368537E0,-9.137117918E-1,2.045998546E0
1.279862313E1,-1.254528451E0,-4.609020960E-1,-7.985858166E-1,1.556923788E0
1.280865013E1,-5.527073286E-1,9.323718649E-1,3.876926903E-1,1.151133488E0
1.281867713E1,5.524734400E-2,2.546291093E0,1.823525537E0,3.132394609E0
1.282870413E1,7.133442298E-1,2.399881491E0,2.817282057E0,3.769001108E0
1.283873112E1,1.074230652E0,2.035386533E-1,2.016069671E0,2.293455122E0
1.284875712E1,1.723195210E0,-9.106401032E-1,2.126584386E0,2.884619261E0
1.285878413E1,1.670437245E0,-1.122101734E0,1.851157140E0,2.734274245E0
1.286881113E1,1.570518709E0,-5.083931816E-1,1.398486754E0,2.163505914E0
1.287883813E1,1.221195594E0,4.087537032E-1,5.899607436E-1,1.416492833E0
1.288886513E1,-3.240212627E-2,1.634799635E-1,-2.926425453E-1,3.367718153E-1
1.289889112E1,-1.280145541E0,-9.347546053E-1,-5.571892925E-1,1.680178171E0
1.290891812E1,-2.005317372E0,-1.252994580E0,-6.345737565E-1,2.448260001E0
1.291894513E1,-1.632519221E0,-1.363277160E0,-6.419541851E-1,2.221654518E0
1.292897213E1,-5.209104623E-1,-1.312307566E0,-6.443655038E-1,1.552000567E0
1.293899913E1,3.333749074E-1,-7.473864269E-1,-1.672969894E-1,8.352925132E-1
1.294902613E1,3.559246945E-1,-7.256277680E-1,-3.032985111E-1,8.632543268E-1
1.295905212E1,-2.274201438E-2,-1.151845935E0,-7.806348646E-1,1.391638261E0
1.296907912E1,7.323489963E-1,-1.480712639E0,-3.466965823E-1,1.687910985E0
1.297910613E1,6.059355560E-1,-1.248641328E0,-1.920143394E-1,1.401118328E0
1.298913313E1,4.812713103E-1,-2.425619180E0,-4.240307236E-1,2.508994328E0
1.299916013E1,1.365288164E0,-4.440138170E0,-4.621580780E-1,4.668236158E0
1.300918613E1,2.037868529E0,-5.950244177E0,5.768166779E-2,6.289804535E0
1.301921312E1,1.404372122E0,-6.179788322E0,9.952382040E-1,6.415024851E0
1.302924012E1,3.980035973E-1,-7.322019680E0,9.075755775E-1,7.388780176E0
1.303926713E1,5.369375342E-1,-1.077103433E1,-9.025644223E-2,1.078478691E1
1.304929413E1,2.830514306E-1,-1.215133741E1,-2.954340792E-1,1.215822357E1
1.305932113E1,-1.668789500E-1,-9.773615116E0,-2.717785835E-1,9.778817138E0
1.306934713E1,4.401196298E-1,-6.499181952E0,-2.579124963E-1,6.519170974E0
1.307937412E1,2.255936198E0,-6.887964490E0,1.984299409E-1,7.250701855E0
1.308940112E1,2.566879432E0,-5.663799607E0,6.177255893E-1,6.248926381E0
1.309942813E1,5.117328188E-1,-3.238758132E0,-4.371050978E-1,3.307942802E0
1.310945513E1,-4.018247527E-1,-4.411268127E0,-2.046776909E-1,4.434257838E0
1.311948113E1,-7.770528603E-1,-4.157363897E0,-1.555745645E-1,4.232220359E0
1.312950813E1,-1.765739259E-1,-3.004474234E0,-1.041272163E-1,3.011459156E0
1.313953512E1,1.162584347E-1,-3.736555574E0,3.391005009E-1,3.753711860E0
1.314956212E1,-2.026034203E0,-4.813904473E0,-9.022475946E-1,5.300239767E0
1.315958913E1,-3.834099410E0,-4.046894791E0,3.329088843E-1,5.584666871E0
1.316961613E1,-7.148794162E0,-3.352437944E0,-5.479895904E0,9.611105934E0
1.317964213E1,-3.566734890E0,1.113288810E0,-7.132586850E0,8.052006267E0
1.318966913E1,9.820930785E-1,2.473583890E0,3.397933960E-1,2.683017635E0
1.319969612E1,4.194352214E0,6.334820228E0,-7.202635324E0,1.046902543E1
1.320972312E1,1.055089602E1,9.333086473E0,-1.171101635E1,1.831872850E1
1.321975013E1,1.200604346E1,9.183491893E0,-1.177229283E1,1.915903133E1
1.322977713E1,1.009168494E1,7.832036049E0,-4.068917744E0,1.340667689E1
1.323980313E1,8.852856406E0,6.641078088E0,-2.714217864E0,1.139490954E1
1.324983046E1,8.171786175E0,6.041827946E0,-3.377989107E0,1.070946239E1
1.325985746E1,6.157605740E0,5.877079137E0,-3.657997062E0,9.264831900E0
1.326988446E1,4.881718726E0,5.104768953E0,-3.461730591E0,7.865966086E0
1.327991146E1,4.950279084E0,5.240316183E0,-1.816156876E0,7.434016579E0
1.328993746E1,4.464283662E0,4.711886348E0,7.440774876E-1,6.533402856E0
1.329996446E1,3.527054515E0,3.197802479E0,3.824401218E0,6.106725712E0
1.330999146E1,2.952913486E0,1.634010846E0,6.846427040E0,7.633036926E0
1.332001846E1,2.771383753E0,8.706264371E-1,9.458768865E0,9.894789879E0
1.333004546E1,2.002842100E0,-1.294690490E0,1.070592675E1,1.096833933E1
1.334007246E1,9.963696402E-1,-3.851960315E0,1.107829499E1,1.177110745E1
1.335009846E1,-5.056976151E-1,-6.906415379E0,9.964934843E0,1.213483539E1
1.336012546E1,-3.208881783E0,-9.232505593E0,7.184829383E0,1.213086374E1
1.337015246E1,-5.607883853E0,-8.875309714E0,3.342149184E0,1.101768782E1
1.338017946E1,-6.515252439E0,-6.706350557E0,-2.925490630E-1,9.354637197E0
1.339020646E1,-5.498677745E0,-5.728160495E0,-2.702794159E0,8.387632316E0
1.340023246E1,-3.851597203E0,-5.568731482E0,-2.893128630E0,7.363135514E0
1.341025946E1,-3.585247175E0,-4.758914626E0,-2.274865682E0,6.377795825E0
1.342028646E1,-3.816996889E0,-4.138707771E0,-1.252662458E0,5.767801184E0
1.343031346E1,-3.607168386E0,-4.015177739E0,-2.966766125E-1,5.405676003E0
1.344034046E1,-3.448819647E0,-4.352358599E0,-2.385757542E-1,5.558264182E0
1.345036746E1,-3.486123713E0,-4.699137079E0,-6.446373993E-1,5.886467973E0
1.346039346E1,-3.339783985E0,-4.534604031E0,-8.940199775E-1,5.702285727E0
1.347042046E1,-3.316729583E0,-4.123032263E0,-1.126733313E0,5.410140306E0
1.348044746E1,-3.355869091E0,-3.874840470E0,-1.829149389E0,5.442612747E0
1.349047446E1,-3.123346374E0,-3.852729516E0,-2.901823440E0,5.746250653E0
1.350050146E1,-1.217912748E0,-4.768831211E0,-3.152158529E0,5.844755425E0
1.351052746E1,3.180055010E-1,-4.852085330E0,-2.637117648E0,5.531568406E0
1.352055446E1,1.208537614E-1,-3.787133405E0,-2.470280798E0,4.523192708E0
1.353058146E1,-2.009994999E-1,-2.786450566E0,-3.084609155E0,4.161672884E0
1.354060846E1,-1.772220898E-1,-2.072499395E0,-3.534973984E0,4.101548790E0
1.355063546E1,-2.871281093E-1,-1.592029884E0,-3.435899346E0,3.797684297E0
1.356066246E1,-6.546434471E-1,-1.379787943E0,-2.741531378E0,3.138210813E0
1.357068846E1,-1.100180522E0,-1.514210460E0,-1.748023950E0,2.561018983E0
1.358071546E1,-1.365197386E0,-1.805903783E0,-6.959934944E-1,2.368429716E0
1.359074246E1,-1.208732911E0,-2.053673699E0,3.304495454E-2,2.383212723E0
1.360076946E1,-2.314383504E-1,-2.547991171E0,-5.706297755E-2,2.559116821E0
1.361079646E1,8.892673606E-1,-3.016617731E0,-3.631600392E-1,3.165859155E0
1.362082346E1,1.269589416E0,-2.989730187E0,-5.356441301E-1,3.291999167E0
1.363084946E1,9.958252645E-1,-2.550854260E0,-7.732603562E-1,2.845427383E0
1.364087646E1,3.685386005E-1,-2.055997383E0,-7.650976431E-1,2.224482039E0
1.365090346E1,1.526013942E0,-1.840363472E0,7.837373972E-1,2.515929365E0
1.366093046E1,2.173956480E0,-1.706820375E0,1.532309639E0,3.160268249E0
1.367095746E1,7.593628402E-1,-1.656579344E0,1.190917615E0,2.176963898E0
1.368098346E1,1.175700675E0,-1.915374770E0,1.292228227E0,2.592447951E0
1.369101046E1,7.712668942E-1,-1.866080403E0,2.942313069E-1,2.040509925E0
1.370103746E1,4.423586749E-1,-1.753558339E0,-5.666139078E-1,1.895177925E0
1.371106446E1,1.130975761E-1,-1.730617374E0,-1.046103133E0,2.025378809E0
1.372109146E1,1.453508176E-1,-2.169249764E0,-9.169083184E-1,2.359553403E0
1.373111846E1,3.463282442E-1,-2.440022042E0,-7.665933609E-1,2.580952576E0
1.374114446E1,3.156036110E-1,-1.885352826E0,-1.012010357E0,2.162943800E0
1.375117146E1,6.765094024E-1,-1.206924952E0,-1.488490021E0,2.032224238E0
1.376119846E1,9.530334400E-1,-6.038665187E-1,-1.912547057E0,2.220532313E0
1.377122546E1,1.293493565E0,-2.596046805E-1,-2.097865786E0,2.478217313E0
1.378125246E1,1.668097921E0,-1.765578461E-1,-1.795333187E0,2.457019454E0
1.379127846E1,1.897579208E0,-1.326692301E-1,-1.036306123E0,2.166180592E0
1.380130546E1,2.134180796E0,-4.759341180E-2,-5.686545861E-1,2.209153874E0
1.381133246E1,1.847937955E0,-6.296866536E-2,-4.058616704E-1,1.893030225E0
1.382135946E1,1.343365344E0,-2.124293447E-3,-4.922127664E-1,1.430702054E0
1.383138646E1,7.423439343E-1,6.936844289E-2,-7.850033194E-1,1.082643390E0
1.384141346E1,3.642258404E-1,-2.119270688E-1,-9.909106797E-1,1.076790379E0
1.385143946E1,1.818282339E-1,-3.811297023E-1,-8.009323043E-1,9.054357584E-1
1.386146646E1,-2.445013225E-2,-2.845477331E-1,-6.418167025E-1,7.024912106E-1
1.387149346E1,-2.151716888E-1,-3.371709198E-1,-6.683367491E-1,7.788819519E-1
1.388152046E1,-2.556885079E-1,-5.138866407E-1,-6.056002182E-1,8.343906260E-1
1.389154746E1,-1.158890368E-1,-5.358294868E-1,-4.860790372E-1,7.326775131E-1
1.390157346E1,2.230483268E-1,-4.324717641E-1,-3.138522238E-1,5.790385144E-1
1.391160046E1,3.698208949E-1,-3.132178009E-1,-2.363245761E-1,5.391866007E-1
1.392162746E1,2.408166996E-1,-2.936074090E-1,-2.618804169E-1,4.612801168E-1
1.393165446E1,3.084587520E-1,-3.424679124E-1,-2.019499648E-1,5.032045916E-1
1.394168146E1,4.559723085E-1,-3.955688167E-1,-2.552409035E-1,6.553879413E-1
1.395170846E1,2.956575890E-1,-3.959366065E-1,-2.441779715E-1,5.511824454E-1
1.396173446E1,1.324191155E-1,-3.481075519E-1,-1.648856342E-2,3.728076750E-1
1.397176146E1,1.171606600E-2,-3.343280035E-1,8.940217316E-2,3.462733439E-1
1.398178846E1,4.987411827E-2,-3.041095930E-1,-6.741839647E-3,3.082458834E-1
1.399181546E1,1.022183928E-1,-2.853955793E-1,-1.813782907E-1,3.532666427E-1
1.400184246E1,2.823790008E-1,-2.173445141E-1,-9.708716869E-2,3.693270315E-1
1.401186846E1,4.157719700E-1,-2.320526004E-2,1.096937656E-3,4.164204827E-1
1.402189546E1,4.656203605E-1,-7.264580727E-3,1.564890325E-2,4.659398914E-1
1.403192246E1,3.683307320E-1,5.304418623E-2,-3.571011543E-2,3.738401078E-1
1.404194946E1,-4.645422801E-2,2.928683209E-1,-1.052001804E-1,3.146377706E-1
1.405197646E1,-2.105599898E-1,1.257864726E-1,-8.627976000E-2,2.600037365E-1
1.406200346E1,-1.621697487E-1,-5.006152153E-2,-3.777418256E-2,1.738737249E-1
1.407202946E1,1.160618220E-1,-3.799813092E-2,-5.639931858E-2,1.345179825E-1
1.408205646E1,4.461583418E-1,3.306366563E-2,-5.720097184E-2,4.510237500E-1
1.409208346E1,5.198016840E-1,1.469954932E-1,-1.586665356E-1,5.630066920E-1
1.410211046E1,3.477444398E-1,1.501354480E-1,-2.479593658E-1,4.527148057E-1
1.411213746E1,2.503255878E-1,7.617226303E-2,-1.155433202E-1,2.860338659E-1
1.412216346E1,2.861339365E-1,6.055084169E-2,4.239933014E-2,2.955278959E-1
1.413219046E1,2.493280528E-1,6.894335032E-2,1.209864932E-1,2.855790522E-1
1.414221746E1,8.938083082E-2,4.064925849E-2,1.881926358E-1,2.122681401E-1
1.415224446E1,7.725633681E-2,4.386581182E-3,1.766391224E-1,1.928449201E-1
1.416227146E1,8.614322752E-2,-3.168430746E-2,-2.495240808E-2,9.511663185E-2
1.417229846E1,6.194774151E-2,2.799237549E-2,-2.277268302E-1,2.376564852E-1
1.418232446E1,2.793416646E-1,1.078109622E-1,-1.311296582E-1,3.268791159E-1
1.419235146E1,4.162200129E-1,1.208666253E-1,5.573565960E-2,4.369831850E-1
1.420237846E1,2.668536200E-1,7.331180513E-2,7.355329514E-2,2.863486729E-1
1.421240546E1,8.674242094E-2,2.306551158E-2,2.623780149E-1,2.773057665E-1
1.422243246E1,-8.767461330E-2,1.074425876E-2,5.114886975E-1,5.190596927E-1
1.423245946E1,-1.812775724E-1,4.584977210E-2,6.441813165E-1,6.707706973E-1
1.424248508E1,-1.712412652E-1,1.061632168E-1,5.220996398E-1,5.596268698E-1
1.425251208E1,-1.428056708E-1,1.668818736E-1,2.046461159E-1,3.002050168E-1
1.426253908E1,-3.983327955E-2,1.854444444E-1,-6.695529699E-2,2.011450818E-1
1.427256608E1,-5.331900537E-2,1.743066680E-1,-7.480927706E-2,1.970333951E-1
1.428259308E1,-2.568437715E-1,1.538098383E-1,6.822823584E-2,3.070525712E-1
1.429261908E1,-3.555266453E-1,9.851155043E-2,2.191437024E-1,4.291010177E-1
1.430264608E1,-1.663931926E-1,1.016824955E-1,2.513051426E-1,3.180885083E-1
1.431267308E1,5.258327946E-2,1.546594387E-1,1.989795792E-1,2.574440060E-1
1.432270008E1,8.334679663E-2,1.930189276E-1,1.413599467E-1,2.533488296E-1
1.433272708E1,-4.296402499E-2,1.676420116E-1,3.539436579E-2,1.766423297E-1
1.434275408E1,-9.701612502E-2,1.310109597E-1,-2.998803020E-2,1.657566953E-1
1.435278008E1,1.143170129E-1,1.116087288E-1,-6.852235079E-2,1.738395822E-1
1.436280708E1,2.195173395E-1,8.086523831E-2,-2.453164244E-1,3.389796412E-1
1.437283408E1,1.452619399E-1,7.096531749E-2,-1.865501529E-1,2.468563692E-1
1.438286108E1,1.305164315E-1,6.333762467E-2,1.618690556E-1,2.173655556E-1
1.439288808E1,-3.865345761E-2,3.297361851E-2,3.075085795E-1,3.116775189E-1
1.440291408E1,-1.429816720E-1,8.936299682E-3,3.397694224E-1,3.687368660E-1
1.441294108E1,-3.395331949E-2,2.365140259E-2,3.614877355E-1,3.638483196E-1
1.442296808E1,-7.657952160E-2,7.336969256E-2,4.393428272E-1,4.519620058E-1
1.443299508E1,-1.014097229E-1,8.251707673E-2,5.031704485E-1,5.198783513E-1
1.444302208E1,-1.083793116E-1,3.483186364E-2,3.946519732E-1,4.107426370E-1
1.445304908E1,-1.239364135E-1,9.029270411E-3,9.756254733E-2,1.579880153E-1
1.446307508E1,-2.269362867E-2,6.931874156E-3,-9.303615922E-1,9.306641413E-1
1.447310208E1,2.510624832E-1,1.701346797E-1,-1.214709935E0,1.251997766E0
1.448312908E1,3.564679009E-1,1.905654359E-1,6.804872632E-2,4.098965465E-1
1.449315608E1,2.304972410E-1,9.323034525E-2,7.232350874E-1,7.647809275E-1
1.450318308E1,-3.752114430E-2,8.992023647E-2,8.456138027E-1,8.512086633E-1
1.451320908E1,-1.479971212E-1,6.118584931E-2,6.412115157E-1,6.609077575E-1
1.452323608E1,-1.760801286E-2,7.659209311E-2,5.355558372E-1,5.412914608E-1
1.453326308E1,2.661243260E-2,2.032889771E-1,1.895456815E-1,2.792171112E-1