"Time (s)","Linear Acceleration x (m/s^2)","Linear Acceleration y (m/s^2)","Linear Acceleration z (m/s^2)","Absolute acceleration (m/s^2)"
-1.816374948E-3,-1.375920010E0,3.415937537E-1,-1.456499319E0,2.032543341E0
8.210625034E-3,-1.060373263E0,1.904052222E-1,-1.431785477E0,1.791830142E0
1.823662501E-2,-1.543059745E-1,-2.662751842E-1,-1.195724026E0,1.234693789E0
2.826362499E-2,9.143083540E-1,-3.762200877E-1,-1.574507241E0,1.859186481E0
3.829062497E-2,1.343641917E0,-8.393678069E-2,-1.736832964E0,2.197500337E0
4.831662506E-2,1.001428359E0,2.016909331E-2,-1.298787049E0,1.640156501E0
5.834362505E-2,4.686791852E-1,1.116101906E-1,-8.324710160E-1,9.618341883E-1
6.837062503E-2,1.728042260E-1,2.632480806E-1,-5.862769246E-1,6.654934145E-1
7.839762501E-2,2.402249613E-1,1.720616296E-1,-5.156355429E-1,5.943006390E-1
8.842362498E-2,2.712929723E-1,-3.549637046E-1,-8.634121424E-1,9.721520643E-1
9.845062497E-2,1.658337602E-1,-1.074513000E0,-1.478094256E0,1.834895542E0
1.084776251E-1,-6.069585264E-2,-1.442517749E0,-2.105844896E0,2.553257561E0
1.185036250E-1,-3.002039453E-1,-1.296510143E0,-2.288245280E0,2.647097925E0
1.285306250E-1,-3.460186341E-1,-9.549596590E-1,-2.323629706E0,2.535928204E0
1.385576250E-1,-1.071435025E-1,-9.311477503E-1,-2.302168670E0,2.485658152E0
1.485836250E-1,-5.970650375E-2,-1.258050667E0,-2.383497008E0,2.695795678E0
1.586106251E-1,-3.492138451E-1,-1.621454535E0,-2.131360976E0,2.700697082E0
1.686376251E-1,-1.216423169E0,-1.930602382E0,-1.754018515E0,2.878105598E0
1.786636250E-1,-1.525104408E0,-2.158966558E0,-1.562400581E0,3.070533444E0
1.886906250E-1,-2.277812678E0,-2.069702379E0,-1.995652948E0,3.668068869E0
1.987176250E-1,-2.112270402E0,-1.704556333E0,-2.559327461E0,3.730597217E0
2.087446250E-1,-1.288828656E0,-1.730470024E0,-2.983686798E0,3.682117966E0
2.187706251E-1,-1.180076877E0,-2.492292641E0,-2.987895623E0,4.065910021E0
2.287976251E-1,-2.743377929E0,-2.890547669E0,-2.366548269E0,4.634861270E0
2.388246250E-1,-3.549169854E0,-2.404190012E0,-1.692246775E0,4.608734687E0
2.488506250E-1,-2.772256157E0,-2.240821730E0,-1.778025429E0,3.983473441E0
2.588776250E-1,-2.471551398E0,-2.813820505E0,-1.326868887E0,3.973252218E0
2.689046250E-1,-3.045607057E0,-3.464489307E0,-6.527463180E-1,4.658807386E0
2.789306251E-1,-3.645132603E0,-4.215004579E0,-7.772423100E-1,5.626487440E0
2.889576250E-1,-4.516739033E0,-4.978425826E0,-1.174782223E0,6.823911523E0
2.989846250E-1,-5.516578996E0,-6.022740880E0,-1.872979533E0,8.379385650E0
3.090116250E-1,-5.763653094E0,-5.523011518E0,-1.342463411E0,8.094786052E0
3.190376250E-1,-5.901404724E0,-5.369004044E0,-1.387592221E0,8.098036448E0
3.290646250E-1,-6.756473474E0,-5.862658149E0,-2.356901532E0,9.250712362E0
3.390916251E-1,-7.153613437E0,-6.948821141E0,-3.154292178E0,1.045991681E1
3.491176250E-1,-6.270124880E0,-7.463845065E0,-3.412269286E0,1.032797322E1
3.591446250E-1,-4.027809479E0,-7.369369848E0,-2.751154433E0,8.837404136E0
3.691716250E-1,-1.783070991E0,-7.213758482E0,-1.059154703E0,7.505961783E0
3.791976250E-1,3.229358733E-2,-7.112433836E0,9.253686547E-1,7.172451819E0
3.892246251E-1,1.356427732E0,-7.079045650E0,2.261938072E0,7.554412443E0
3.992516251E-1,2.088792077E0,-7.000991753E0,2.901845074E0,7.861147671E0
4.092786250E-1,1.989566581E0,-6.582006007E0,3.343815055E0,7.646062868E0
4.193046250E-1,1.901972367E0,-5.954248935E0,3.961931531E0,7.400505437E0
4.293316250E-1,3.056895107E0,-5.241396164E0,4.244468991E0,7.404887471E0
4.393586250E-1,5.815899720E0,-4.977684399E0,3.778719846E0,8.537022619E0
4.493846251E-1,8.962404576E0,-4.779999686E0,3.685509381E0,1.080537238E1
4.594116251E-1,1.091313804E1,-3.666776657E0,4.754595872E0,1.245584260E1
4.694386250E-1,1.140846972E1,-2.582857241E0,6.140289211E0,1.321088507E1
4.794646250E-1,1.090527354E1,-2.643898079E0,6.303843434E0,1.287064995E1
4.894916250E-1,1.082341252E1,-2.967712789E0,5.774727135E0,1.262145203E1
4.995186250E-1,1.158204431E1,-3.431844302E0,4.755054002E0,1.298198153E1
5.095456251E-1,1.241869550E1,-3.593007599E0,3.856688081E0,1.349102459E1
5.195716250E-1,1.305048949E1,-3.968989998E0,3.558608429E0,1.409722851E1
5.295986250E-1,1.330646188E1,-4.150175330E0,4.493006355E0,1.464489635E1
5.396256250E-1,1.280150803E1,-3.434019467E0,3.514474523E0,1.371213436E1
5.496516250E-1,1.342840673E1,-1.904752718E0,-3.778849654E0,1.407941387E1
5.596786250E-1,1.906116172E1,2.216987017E0,-2.241798157E1,2.950946992E1
5.697056251E-1,1.470957612E1,4.696215225E0,-1.657358661E1,2.265192796E1
5.797316250E-1,1.078215924E1,1.957849529E0,-6.492985073E0,1.273762097E1
5.897586250E-1,8.369725535E0,-3.775785713E0,-3.235359730E0,9.735317964E0
5.997856250E-1,6.555988237E0,-6.122218391E0,6.964571786E-1,8.997087995E0
6.098126250E-1,7.491858491E0,-6.244314685E0,1.087395936E1,1.460692992E1
6.198386251E-1,4.131683511E0,-3.406319452E0,8.499402745E0,1.004557952E1
6.298656251E-1,3.025138879E0,-2.021973605E0,3.429160430E0,4.999898374E0
6.398926250E-1,2.319765281E0,-1.713772130E-1,-4.402193248E-1,2.367377064E0
6.499186250E-1,2.177234137E-1,1.100642452E0,-1.478018827E0,1.855628450E0
6.599456250E-1,-2.987727224E0,2.454411455E0,-2.726042688E0,4.730957439E0
6.699726250E-1,-3.311705071E0,2.083276983E0,-2.340517049E0,4.559106658E0
6.799986251E-1,-1.245469213E0,6.202211809E-1,-1.266030362E-1,1.397102789E0
6.900256251E-1,-1.609098784E0,3.554422992E-1,1.124230471E1,1.136243606E1
7.000526250E-1,-7.110013089E0,3.616877103E0,7.362131580E0,1.085518620E1
7.100796250E-1,-5.447519871E0,6.030578488E0,-1.270418698E1,1.508110461E1
7.201056250E-1,-2.721360238E0,5.534321203E0,-7.823342993E0,9.961887788E0
7.301326250E-1,-2.219215976E0,4.530408654E0,6.896861029E-1,5.091678411E0
7.401596251E-1,-5.307784865E0,6.982851936E0,-3.819783087E0,9.566793830E0
7.501856250E-1,-4.570215914E0,7.490036498E0,-1.991110977E0,8.997335337E0
7.602126250E-1,-4.330194143E0,5.718500894E0,6.918571740E-1,7.206281992E0
7.702396250E-1,-4.334957285E0,4.908904771E0,9.990394789E-1,6.624747587E0
7.802656250E-1,-3.949086075E0,4.517519637E0,1.463791966E-1,6.002057261E0
7.902926250E-1,-4.204494794E0,3.784292827E0,-8.732606077E-1,5.723742898E0
8.003196251E-1,-4.249902517E0,3.498332992E0,-1.995119097E0,5.854955622E0
8.103466250E-1,-3.802939598E0,3.365656745E0,-3.144353081E0,5.973018601E0
8.203726250E-1,-3.124105343E0,3.638860295E0,-2.623858502E0,5.466806369E0
8.303996250E-1,-2.673240577E0,3.747926069E0,-3.487088211E0,5.775201226E0
8.404266250E-1,-1.077748849E0,3.654540773E0,-1.141995789E0,3.977607978E0
8.504526251E-1,8.713181627E-1,5.293577886E-1,-2.117827595E0,2.350448624E0
8.604796251E-1,-1.371903557E0,2.229176708E0,-2.223267512E0,3.434278177E0
8.705066250E-1,-5.375348858E0,1.267395687E0,1.552465577E0,5.736794971E0
8.805326250E-1,-6.135181083E0,-1.578064687E0,6.640570989E-1,6.369592366E0
8.905596250E-1,-6.870508797E0,-1.549433795E0,4.985821384E-1,7.060681296E0
9.005866250E-1,-6.723725558E0,3.144100481E-1,6.554787949E-1,6.762912945E0
9.106134584E-1,-2.148368772E0,1.125716482E0,4.632122578E-1,2.469269442E0
9.206394583E-1,1.971858581E0,8.001505315E-2,4.626480381E-1,2.026985910E0
9.306664583E-1,3.269223002E0,8.036997914E-3,-2.538364023E-1,3.279072514E0
9.406934583E-1,9.372344095E0,4.860568178E-1,-3.610713553E0,1.005556251E1
9.507194584E-1,1.367683622E1,-1.215896335E0,-2.126124210E0,1.389441100E1
9.607464584E-1,1.052396257E1,-9.199535483E-1,1.002498692E0,1.061155532E1
9.707734584E-1,8.856326144E0,-3.885153204E-1,1.537743457E0,8.997228010E0
9.807994583E-1,5.467805616E0,2.236215001E-1,1.214631582E0,5.605553917E0
9.908264583E-1,1.650006197E0,2.617547602E0,-1.045496192E0,3.266058509E0
1.000853458E0,-8.603786069E-1,3.197134727E0,-5.604170287E-1,3.357973951E0
1.010880458E0,-1.729535931E0,3.145479839E0,1.323823657E0,3.825943940E0
1.020906458E0,-2.161570616E0,4.927619954E0,3.509978306E-1,5.392311695E0
1.030933458E0,-2.975710026E0,4.615154690E0,2.143383436E0,5.894793934E0
1.040960458E0,-3.155771524E0,4.969088992E0,1.193325498E0,6.006227190E0
1.050986458E0,-2.957425198E0,4.726762249E0,1.102410650E0,5.683656781E0
1.061013458E0,-2.215752085E0,4.578892012E0,5.659771460E-1,5.118216437E0
1.071040458E0,-1.821923108E0,4.239230763E0,-8.609149793E-2,4.614964033E0
1.081067458E0,-2.066228256E0,3.772940458E0,-1.426241148E-1,4.304035379E0
1.091093458E0,-2.845310393E0,3.270385721E0,4.202814524E-1,4.355209581E0
1.101120458E0,-3.782720219E0,2.952031142E0,5.272720136E-1,4.827160230E0
1.111147458E0,-4.551118030E0,3.164204378E0,6.831483310E-1,5.584940135E0
1.121173458E0,-4.581424734E0,3.541191913E0,1.475827290E0,5.975580218E0
1.131200458E0,-3.831514064E0,4.332244762E0,2.106075715E0,6.155030432E0
1.141227458E0,-3.173581558E0,5.122633367E0,1.678064938E0,6.255309301E0
1.151253458E0,-3.332739844E0,4.289183527E0,-1.364626843E0,5.600576454E0
1.161280458E0,-2.648165962E0,3.870733386E0,-4.096951342E0,6.227388715E0
1.171307458E0,-1.645251095E0,4.912745222E0,1.704695790E0,5.454163961E0
1.181333458E0,-4.241263986E-1,5.055938271E0,6.844052485E0,8.519592092E0
1.191360458E0,-3.312158595E-1,-1.070518650E1,3.597383071E0,1.129831345E1
1.201387458E0,-4.754183936E0,-5.404444837E1,-4.169548325E0,5.441313993E1
1.211414458E0,-1.674922352E0,-5.207139666E1,3.338394102E0,5.220517781E1
1.221440458E0,-1.414689242E0,-2.840124322E1,7.186015783E0,2.933037308E1
1.231467458E0,-9.845116331E-1,-9.642479610E0,3.807090536E0,1.041348234E1
1.241494458E0,-1.047747809E0,2.199299190E0,-7.091987000E-1,2.537253474E0
1.251520458E0,-6.284137879E-1,9.681227354E0,-3.410269831E0,1.028353088E1
1.261547458E0,-5.088450982E-1,1.201719293E1,-2.924753881E0,1.237845041E1
1.271574458E0,-1.169233215E0,1.152979710E1,-1.715764276E0,1.171525393E1
1.281601458E0,-1.127213662E0,8.920360172E0,-1.122665551E0,9.061115504E0
1.291627458E0,-6.492610851E-1,5.543548694E0,-1.213151652E0,5.711760587E0
1.301654458E0,-1.427931285E0,1.996399053E0,-5.169839839E-1,2.508359897E0
1.311681458E0,-8.367337094E-1,-3.511081676E0,5.001474380E-2,3.609753359E0
1.321707458E0,2.426555904E0,-7.711451259E0,8.295678735E-2,8.084648162E0
1.331734458E0,5.060697904E0,-5.271956052E0,8.647831683E-1,7.358806548E0
1.341761458E0,3.037038547E0,-1.662355809E0,1.293265377E0,3.695884915E0
1.351787458E0,-5.271775811E-1,-7.111442149E-2,1.373300457E-1,5.493933058E-1
1.361814458E0,-1.603981593E0,8.016287076E-1,-1.150222163E0,2.130346582E0
1.371841458E0,-1.165564892E0,1.306862639E0,-1.575886599E0,2.355811972E0
1.381868458E0,-6.009600506E-1,9.694554913E-1,-1.655554766E0,2.010437394E0
1.391894458E0,-1.827191303E-1,2.815305698E-1,-1.919971851E0,1.949086363E0
1.401921458E0,2.872218475E-1,-4.076731378E-1,-2.175440796E0,2.231868373E0
1.411948458E0,5.695865226E-1,-8.696669090E-1,-2.266854411E0,2.493868132E0
1.421974458E0,6.190999773E-1,-7.417824554E-1,-2.223635448E0,2.424475324E0
1.432001458E0,6.432590644E-1,-4.039163017E-1,-2.109000054E0,2.241609206E0
1.442028458E0,5.646147082E-1,-1.657212013E-1,-1.959290868E0,2.045745339E0
1.452054458E0,4.431255372E-1,-1.617316461E-1,-1.909186808E0,1.966599002E0
1.462081458E0,3.465433121E-1,-3.355576730E-1,-1.893896193E0,1.954362814E0
1.472108458E0,2.761822678E-1,-4.611611277E-1,-2.051960465E0,2.121199656E0
1.482135458E0,2.966619579E-1,-5.126797754E-1,-2.513721517E0,2.582565534E0
1.492161458E0,4.261362694E-1,-4.754862213E-1,-3.174467996E0,3.238043595E0
1.502188458E0,5.930804524E-1,-4.645530975E-1,-3.719726703E0,3.795249761E0
1.512215458E0,6.956672198E-1,-5.038674366E-1,-3.856189021E0,3.950699817E0
1.522241458E0,6.995445085E-1,-5.754168910E-1,-3.538830807E0,3.652915356E0
1.532268458E0,6.434366736E-1,-7.039264119E-1,-3.175732749E0,3.315841015E0
1.542295458E0,4.812193066E-1,-9.712710518E-1,-2.939721583E0,3.133193652E0
1.552322458E0,-7.945646133E-2,-1.423070787E0,-2.784341183E0,3.127938557E0
1.562348458E0,-4.111319120E-1,-2.000741195E0,-1.673215842E0,2.640387478E0
1.572375458E0,-4.177792460E-1,-2.825270523E0,-2.413028225E-1,2.866168187E0
1.582402458E0,-8.332128084E-1,-3.282031036E0,-1.136516436E0,3.571783996E0
1.592428458E0,-1.065140790E0,-2.813811734E0,-1.849763310E0,3.531810539E0
1.602455458E0,-1.831249124E0,-2.638816264E0,-2.682472161E0,4.184791695E0
1.612482458E0,-2.123388882E0,-2.722468286E0,-2.469454002E0,4.244857710E0
1.622508458E0,-2.153940292E0,-2.361900317E0,-2.102802298E0,3.826200386E0
1.632535458E0,-1.770221881E0,-1.653460439E0,-1.479324510E0,2.838312516E0
1.642562458E0,-1.125678037E0,-9.243962628E-1,-5.643729624E-1,1.562106377E0
1.652588458E0,-6.422065656E-1,-4.010353786E-1,5.370638341E-2,7.590408575E-1
1.662615458E0,6.870054469E-2,-1.296438807E-1,4.472549871E-1,4.707061972E-1
1.672642458E0,8.486854912E-1,5.618881881E-2,5.323898622E-1,1.003425738E0
1.682669458E0,1.184862823E0,1.927242279E-1,3.172553033E-1,1.241649493E0
1.692695458E0,1.164216451E0,3.319704062E-1,2.082129174E-1,1.228396074E0
1.702722458E0,1.001464027E0,3.972200704E-1,4.498584598E-1,1.167513004E0
1.712749458E0,9.721446258E-1,4.073322451E-1,3.923040238E-1,1.124672031E0
1.722775458E0,8.690393566E-1,5.510825336E-1,9.406415820E-2,1.033329293E0
1.732802458E0,6.232215334E-1,8.917898494E-1,-1.132684609E-1,1.093857376E0
1.742829458E0,1.905838546E-1,1.182887049E0,7.475080490E-3,1.198165203E0
1.752856458E0,-1.430664566E-1,1.319197340E0,6.014413860E-1,1.456873836E0
1.762882458E0,-2.505134296E-1,1.403122426E0,1.246127902E0,1.893236454E0
1.772909458E0,-1.986690921E-1,1.571006513E0,1.402787966E0,2.115501110E0
1.782936458E0,-1.570445180E-1,1.567582968E0,1.127062511E0,1.937072339E0
1.792962458E0,2.976715162E-1,2.173368543E0,7.365614766E-1,2.314014253E0
1.802989458E0,3.993735999E-2,2.480961907E0,6.659756434E-1,2.569103060E0
1.813016458E0,-3.796488950E-1,2.399062881E0,7.113447744E-1,2.530938043E0
1.823042458E0,-2.440607348E-1,2.496706704E0,9.701279211E-1,2.689657635E0
1.833069458E0,-1.105120835E-1,2.619907538E0,1.271408631E0,2.914208012E0
1.843096458E0,3.450023881E-1,2.652359585E0,1.238575346E0,2.947559483E0
1.853123458E0,7.073809469E-1,2.715811815E0,1.179886258E0,3.044364170E0
1.863149458E0,9.726483634E-1,2.841861413E0,1.277195621E0,3.263962282E0
1.873176458E0,1.067389629E0,3.081641693E0,1.194630012E0,3.473179669E0
1.883203458E0,1.005023227E0,3.300704704E0,9.717902845E-1,3.584564072E0
1.893229458E0,1.049740686E0,3.326859300E0,8.054095173E-1,3.580311830E0
1.903256458E0,9.303130603E-1,3.203755530E0,1.134419478E0,3.523696842E0
1.913283333E0,6.594951743E-1,3.165405981E0,1.253938905E0,3.468009759E0
1.923309333E0,4.756473121E-1,3.223936025E0,1.438337283E0,3.562136718E0
1.933336333E0,5.857617849E-1,3.423933604E0,1.697766547E0,3.866374198E0
1.943363333E0,6.506234863E-1,3.718727998E0,1.642129120E0,4.116896512E0
1.953390333E0,6.297115043E-1,3.895025643E0,1.650729205E0,4.276992898E0
1.963416333E0,6.229360431E-1,4.122975837E0,1.647115626E0,4.483298892E0
1.973443333E0,7.151849332E-1,4.364180499E0,2.103159855E0,4.897023820E0
1.983470333E0,5.845587203E-1,4.772574599E0,2.659423606E0,5.494698455E0
1.993496333E0,3.644367787E-1,5.332082970E0,2.739877201E0,6.005901268E0
2.003523333E0,2.244909811E-1,5.802710155E0,2.357454387E0,6.267330575E0
2.013550333E0,-3.517717096E-1,5.787148960E0,1.950894266E-1,5.801111644E0
2.023577333E0,-4.046378189E0,4.247694023E0,-7.724325659E0,9.699550909E0
2.033603333E0,-1.479446483E1,-8.187154412E-1,-2.716411740E1,3.094245883E1
2.043630333E0,-1.728142481E1,-1.549927768E1,-3.212408356E1,3.963372297E1
2.053657333E0,-3.628314841E0,-3.393929787E1,8.769639418E-1,3.414395516E1
2.063683333E0,2.585679400E0,-3.564689066E1,4.170455228E0,3.598304112E1
2.073710333E0,7.275364162E0,-1.471989529E1,2.381572339E1,2.892740779E1
2.083737333E0,3.651092085E0,2.449430212E0,1.927084521E1,1.976602279E1
2.093763333E0,-2.874971271E0,1.198609744E1,-3.472892341E0,1.280597411E1
2.103790333E0,-4.943277628E0,1.765040985E1,-8.649510126E0,2.026788067E1
2.113817333E0,-2.034924603E0,1.705389562E1,-3.187086287E0,1.746807925E1
2.123844333E0,1.708044198E0,1.078400346E1,3.384886775E0,1.143108061E1
2.133870333E0,4.182787006E0,3.979439557E0,1.466325448E1,1.575889204E1
2.143897333E0,2.839530128E0,2.815937197E-1,1.442203228E1,1.470160676E1
2.153924333E0,1.354869887E0,-3.684773802E0,5.153464565E0,6.478535900E0
2.163950333E0,2.204843228E0,-6.533013942E0,-5.456551480E0,8.792926639E0
2.173977333E0,1.015002231E0,-7.596684449E0,-1.104375022E0,7.743351235E0
2.184004333E0,1.436580779E0,-7.636972935E0,1.521252555E0,7.918417094E0
2.194031333E0,2.759529108E0,-7.072810180E0,4.737066212E-1,7.606841835E0
2.204057333E0,3.564239006E0,-4.227296011E0,-1.475231167E0,5.722773650E0
2.214084333E0,7.396865210E-1,-7.364737684E-1,-1.859941996E0,2.132818321E0
2.224111333E0,-5.646253429E-1,1.299975203E0,3.673030838E-2,1.417775166E0
2.234137333E0,6.713298657E-1,2.085052198E0,1.635151930E0,2.733468180E0
2.244164333E0,1.551658368E0,2.343055326E0,1.690561169E0,3.279565370E0
2.254191333E0,1.763238113E0,2.267595254E0,5.294805801E-1,2.920846891E0
2.264217333E0,1.888719068E0,1.703527808E0,-2.073649250E-2,2.543559851E0
2.274244333E0,1.663994198E0,1.155682293E0,3.692131499E-1,2.059319452E0
2.284271333E0,1.738144787E0,5.658087462E-1,4.200067428E-1,1.875551252E0
2.294298333E0,2.187952083E0,1.728109503E-1,-1.889187869E-1,2.202881806E0
2.304324333E0,1.053663437E0,3.502844703E-1,-6.649523807E-1,1.294243994E0
2.314351333E0,5.873301543E-2,8.534759688E-1,-1.015198259E0,1.327591165E0
2.324378333E0,-7.462900009E-2,1.242336860E0,-8.995415032E-1,1.535625370E0
2.334404333E0,-4.799968731E-1,1.468193166E0,-8.699540073E-1,1.772796701E0
2.344431333E0,-9.446163730E-1,1.444452885E0,-1.278397808E0,2.147800081E0
2.354458333E0,-1.195791415E0,1.382049061E0,-1.833048897E0,2.588444509E0
2.364484333E0,-9.741060012E-1,1.423025179E0,-2.090111355E0,2.709695303E0
2.374511333E0,-8.340553922E-1,1.441398300E0,-2.326266215E0,2.860907542E0
2.384538333E0,-3.815118544E-1,1.343430541E0,-2.802116134E0,3.130848406E0
2.394565333E0,4.379622265E-1,9.482797998E-1,-2.144375270E0,2.385244388E0
2.404591333E0,7.652856311E-1,5.820751154E-1,-1.388296372E0,1.688739280E0
2.414618333E0,5.544296991E-1,2.958632648E-2,-1.084179763E0,1.218077748E0
2.424645333E0,6.543377108E-1,-2.288167512E-1,-1.041520232E0,1.251111241E0
2.434671333E0,7.549442455E-1,-5.031558305E-1,-1.099508092E0,1.425491020E0
2.444698333E0,7.991368436E-1,-6.787424541E-1,-9.624534506E-1,1.423245467E0
2.454725333E0,9.691623996E-1,-4.291113693E-1,-8.267673495E-1,1.344230849E0
2.464752333E0,1.423584173E0,-1.599266106E-1,-7.689568055E-1,1.625872992E0
2.474778333E0,1.643298125E0,1.374949372E-1,-9.070003577E-1,1.882015737E0
2.484805333E0,1.429614991E0,8.129617810E-2,-1.716016876E0,2.234976960E0
2.494832333E0,5.403170421E-1,-1.725682908E-1,-3.646789704E0,3.690636458E0
2.504858333E0,-6.172474332E-1,-8.377317560E-1,-6.119193041E0,6.207037326E0
2.514885333E0,-1.314755356E0,-1.806561595E0,-7.392997862E0,7.723254743E0
2.524912333E0,-1.264511402E0,-2.518203993E0,-7.376395862E0,7.896300168E0
2.534938333E0,-5.113611551E-1,-2.513102882E0,-7.480726562E0,7.908125329E0
2.544965333E0,1.150768951E-1,-2.196828157E0,-7.767416714E0,8.072921346E0
2.554992333E0,7.945488989E-1,-1.959512478E0,-7.204240385E0,7.508134031E0
2.565019333E0,2.221705428E0,-2.020674353E0,-6.290058038E0,6.970217355E0
2.575045333E0,3.751809790E0,-3.025705474E0,-5.803843346E0,7.544240710E0
2.585072333E0,4.603273732E0,-4.788946803E0,-5.117926358E0,8.385541768E0
2.595099333E0,5.319783352E0,-6.272482477E0,-3.862120437E0,9.086259165E0
2.605125333E0,6.000615016E0,-6.508699465E0,-1.727280952E0,9.019647930E0
2.615152333E0,6.953428747E0,-6.692916579E0,-4.640563765E-1,9.662331602E0
2.625179333E0,6.342421024E0,-8.459680270E0,-2.179855151E-1,1.057544384E1
2.635206333E0,3.714143781E0,-8.142716743E0,6.449958336E-1,8.972999476E0
2.645232333E0,-3.427600174E-1,-5.467274104E0,-5.052485490E-1,5.501258643E0
2.655259333E0,-4.657475375E0,-4.456665909E0,-5.894064129E0,8.734640224E0
2.665286333E0,-6.432133684E0,-4.010567794E0,-5.434374161E0,9.326811903E0
2.675312333E0,-5.541702143E0,-4.204998824E0,6.938656926E-2,6.956816244E0
2.685339333E0,-4.604766234E0,-5.177670869E0,2.803843986E0,7.474870486E0
2.695366333E0,-3.764836217E0,-6.013574200E0,2.309870038E0,7.461405095E0
2.705392333E0,-2.573049999E0,-7.357733304E0,1.139870399E0,7.877571338E0
2.715419333E0,-3.722937701E0,-6.622703213E0,1.084906572E0,7.674469704E0
2.725446333E0,-4.356353709E0,-4.431544517E0,1.602006111E0,6.417384827E0
2.735473333E0,-3.112761744E0,-2.924282010E0,3.191276694E0,5.331506156E0
2.745499333E0,-1.466220169E0,-1.492162657E0,5.498294753E0,5.882822126E0
2.755526333E0,-1.058042416E0,-5.075196075E-1,4.230722480E0,4.390449021E0
2.765553333E0,-1.332834070E0,1.073332447E-1,2.935377394E0,3.225586386E0
2.775579333E0,-3.136855781E-1,1.120496088E-1,1.883042006E0,1.912276380E0
2.785606333E0,5.692390884E-1,-7.907482088E-2,1.775011189E0,1.865730604E0
2.795633333E0,1.675111071E0,-7.633949339E-2,1.974621098E0,2.590550771E0
2.805659333E0,2.647682690E0,7.810242891E-2,2.597696890E0,3.710034063E0
2.815686333E0,3.655105906E0,4.194231176E-1,3.572075152E0,5.127907549E0
2.825713333E0,3.284676316E0,5.608058685E-1,4.616777292E0,5.693701282E0
2.835740333E0,1.826214672E0,8.214074993E-1,4.920789821E0,5.312621083E0
2.845766333E0,9.808378275E-1,1.242570164E0,5.666985755E0,5.883940092E0
2.855793333E0,6.341517337E-1,1.886741540E0,6.234016569E0,6.544074010E0
2.865820333E0,5.069935043E-1,2.474946291E0,6.294188511E0,6.782271786E0
2.875846333E0,4.432578304E-1,3.273450832E0,5.665492961E0,6.558183311E0
2.885873333E0,-1.948730797E-1,4.014842693E0,4.355459962E0,5.926800895E0
2.895900333E0,-2.792752987E-1,4.483080706E0,3.632845264E0,5.776986413E0
2.905927458E0,1.104740766E-1,4.764476790E0,3.992665958E0,6.217220043E0
2.915953458E0,2.543860406E-1,4.979788227E0,4.546787875E0,6.748057722E0
2.925980458E0,-3.403079510E-4,4.924823231E0,4.633544767E0,6.761924362E0
2.936007458E0,-1.331121567E-1,4.567071281E0,4.492665462E0,6.407800082E0
2.946033458E0,-2.802453518E-1,3.829291245E0,4.270144408E0,5.742485712E0
2.956060458E0,-1.562200606E-1,3.033245459E0,4.070822182E0,5.079032974E0
2.966087458E0,3.682722598E-2,2.484835103E0,3.948279744E0,4.665262551E0
2.976114458E0,5.879758331E-1,2.431813136E0,3.818161070E0,4.564842238E0
2.986140458E0,1.119186897E0,2.706406569E0,3.584013997E0,4.628430852E0
2.996167458E0,1.748711875E0,2.978454709E0,3.106481250E0,4.645364510E0
3.006194458E0,1.798187213E0,3.387513637E0,2.292956967E0,4.468375269E0
3.016220458E0,1.652093068E0,4.053204521E0,1.964455129E0,4.797599644E0
3.026247458E0,1.295291584E0,5.020816970E0,2.134244823E0,5.607261747E0
3.036274458E0,4.052348489E-1,6.091836843E0,2.395983152E0,6.558614691E0
3.046300458E0,-7.519025239E-1,6.990050443E0,2.318215769E0,7.402721591E0
3.056327458E0,-1.110809883E0,7.481700708E0,1.837378176E0,7.783681818E0
3.066354458E0,-8.250184473E-1,7.433634256E0,1.366558617E0,7.603095169E0
3.076381458E0,-7.675372477E-1,6.753566823E0,2.958778828E-1,6.803478668E0
3.086407458E0,-2.188347647E0,5.091940162E0,-3.491617464E0,6.550428426E0
3.096434458E0,-7.290133059E0,5.966867226E-1,-1.436834548E1,1.612300924E1
3.106461458E0,-1.517256684E1,-1.297343956E1,-3.202482123E1,3.773733024E1
3.116487458E0,-1.309030903E1,-3.668501000E1,-1.641820504E1,4.226941691E1
3.126514458E0,-6.583504064E0,-4.739494327E1,-6.303562183E0,4.826342372E1
3.136541458E0,5.053804037E-1,-3.348475169E1,2.047242815E1,3.925053273E1
3.146568458E0,1.682770485E0,-7.130729774E0,3.236134486E1,3.318035058E1
3.156594458E0,5.141266689E-2,7.812317483E0,2.029387523E1,2.174571957E1
3.166621458E0,-2.108618962E0,1.528696645E1,1.896134507E0,1.554776329E1
3.176648458E0,1.551752509E0,1.915660348E1,-1.510215584E1,2.444296430E1
3.186674458E0,7.204353236E0,1.496295352E1,-3.692767238E0,1.701261924E1
3.196701458E0,5.824692178E0,8.397681073E0,1.346222118E1,1.690205566E1
3.206728458E0,4.648752791E0,5.062353836E0,1.494359222E1,1.644838221E1
3.216754458E0,1.724684350E0,8.028501910E-1,1.094625784E1,1.111034047E1
3.226781458E0,-1.725968252E0,-3.768885414E0,6.387779045E0,7.614931700E0
3.236808458E0,1.070597485E0,-6.086570840E0,1.199933437E-1,6.181174805E0
3.246835458E0,4.678226851E0,-7.675722433E0,-1.263272377E0,9.077355255E0
3.256861458E0,6.100617022E0,-7.507177026E0,-2.878636891E0,1.009265997E1
3.266888458E0,4.802784823E0,-5.740472392E0,-1.988782031E0,7.744354028E0
3.276915458E0,3.154382225E0,-3.753289720E0,-5.991023536E-1,4.939254456E0
3.286941458E0,2.892992390E0,-2.182478505E0,8.315875018E-1,3.718084879E0
3.296968458E0,3.514487679E0,-5.096175885E-1,2.215502994E0,4.185664493E0
3.306995458E0,3.649470360E0,8.942170286E-1,1.973499602E0,4.244167608E0
3.317022458E0,2.889637842E0,2.276461971E0,8.697908700E-1,3.780055836E0
3.327048458E0,1.301753195E0,3.642301381E0,-4.188676322E-1,3.890548911E0
3.337075458E0,-4.009322483E-1,4.729823266E0,-2.233706546E0,5.246086135E0
3.347102458E0,-1.619530947E0,5.177634031E0,-2.957000105E0,6.178561667E0
3.357128458E0,-2.355028962E0,4.685445823E0,-2.076064442E0,5.640000668E0
3.367155458E0,-2.353602680E0,3.738361194E0,-1.406885110E0,4.636174684E0
3.377182458E0,-1.369918135E0,2.560899777E0,-1.860857670E0,3.449300601E0
3.387208458E0,7.661749195E-2,1.421166349E0,-2.616338398E0,2.978390613E0
3.397235458E0,1.211395806E0,6.950228566E-1,-3.267284358E0,3.553263802E0
3.407262458E0,9.610618132E-1,-7.379127681E-2,-2.992752905E0,3.144146134E0
3.417289458E0,6.330699988E-1,-6.427002168E-1,-1.713144139E0,1.936157027E0
3.427315458E0,6.180663358E-1,-7.761974126E-1,-6.611628002E-1,1.192319029E0
3.437342458E0,9.081207573E-1,-6.082683027E-1,-8.482140595E-1,1.383524748E0
3.447369458E0,1.049098808E0,-2.501280981E-1,-1.554892171E0,1.892316580E0
3.457395458E0,1.094814752E0,2.798360467E-2,-2.116576730E0,2.383128086E0
3.467422458E0,8.694124089E-1,3.604749978E-2,-2.166566331E0,2.334777725E0
3.477449458E0,1.058492140E0,-8.189434826E-2,-2.188597177E0,2.432502806E0
3.487476458E0,1.595151420E0,-1.802497780E-1,-1.631723415E0,2.288999637E0
3.497502458E0,1.506120984E0,-1.394847447E-1,-1.417773941E0,2.073147211E0
3.507529458E0,9.715395851E-1,-1.943386441E-1,-2.396516418E0,2.593250396E0
3.517556458E0,4.407880396E-1,-7.192151266E-1,-3.326691484E0,3.431973299E0
3.527582458E0,8.517054319E-3,-1.803436258E0,-3.737090009E0,4.149493537E0
3.537609458E0,-2.735445888E-1,-2.813290163E0,-4.652946706E0,5.444202534E0
3.547636458E0,-1.846630006E-1,-2.933042309E0,-6.063563801E0,6.738222583E0
3.557663458E0,1.858041578E-1,-2.346090615E0,-7.145039080E0,7.522648990E0
3.567689458E0,4.050295750E-1,-1.605638402E0,-7.702147754E0,7.878147223E0
3.577716458E0,2.728251620E-1,-9.752266932E-1,-7.895645569E0,7.960321578E0
3.587743458E0,4.489378523E-1,-7.698040670E-1,-7.703997813E0,7.755367548E0
3.597769458E0,1.148996952E0,-7.776761734E-1,-7.377324400E0,7.506656348E0
3.607796458E0,2.799384899E0,-1.114185773E0,-6.212913383E0,6.904944493E0
3.617823458E0,4.562057878E0,-2.378998745E0,-4.236344870E0,6.664729925E0
3.627849458E0,5.659267430E0,-3.485964961E0,-2.292020828E0,7.030833452E0
3.637876458E0,6.466994784E0,-4.595446649E0,-5.291655613E-1,7.951111094E0
3.647903458E0,7.136934839E0,-5.769721334E0,-6.080168724E-2,9.177647848E0
3.657930458E0,7.494833554E0,-7.618326749E0,2.765857257E-1,1.069055341E1
3.667956458E0,5.862030743E0,-8.665964776E0,1.158266324E0,1.052634461E1
3.677983458E0,1.218612805E0,-8.510396680E0,-4.936921851E-1,8.611364630E0
3.688010458E0,-3.760203761E0,-7.384706510E0,-5.623950832E0,1.001508090E1
3.698036458E0,-5.262845505E0,-6.648742034E0,-4.820871431E0,9.754184476E0
3.708063458E0,-4.582232819E0,-6.705066508E0,7.062594509E-1,8.151906335E0
3.718090458E0,-4.392315839E0,-7.638266923E0,3.161712295E0,9.361195685E0
3.728117458E0,-4.651695402E0,-7.927401212E0,2.972240288E0,9.660029629E0
3.738143458E0,-4.187602773E0,-7.859817340E0,1.082216706E0,8.971284111E0
3.748170458E0,-3.044505734E0,-7.389921641E0,-7.776447447E-1,8.030235886E0
3.758197458E0,-3.542398193E0,-5.770117775E0,-2.440450935E-1,6.775131151E0
3.768223458E0,-3.856283454E0,-4.331551867E0,4.821605841E0,7.541959065E0
3.778250458E0,-1.887695075E0,-3.299427087E0,6.081809453E0,7.172030258E0
3.788277458E0,-1.097253552E0,-2.065265220E0,3.437402373E0,4.157525810E0
3.798304458E0,-6.102774060E-1,-1.048944880E0,1.596282856E0,2.005203937E0
3.808330458E0,9.674738699E-1,-6.786407125E-1,1.225761173E0,1.702659496E0
3.818357458E0,1.808795816E0,-6.096511692E-1,2.042610183E0,2.795652556E0
3.828384458E0,3.219750880E0,-3.798953551E-1,2.586904684E0,4.147673089E0
3.838410458E0,4.421639918E0,2.157780451E-1,3.746742885E0,5.799615675E0
3.848437458E0,4.294813226E0,1.028042838E0,5.050644202E0,6.709046100E0
3.858464458E0,2.828279208E0,1.839893063E0,6.027997527E0,6.908047767E0
3.868490458E0,1.152908082E0,2.458315641E0,6.454862981E0,7.002697261E0
3.878517458E0,6.680969401E-1,2.927438922E0,7.071646584E0,7.682736333E0
3.888544458E0,9.320821354E-1,3.552114512E0,8.080859048E0,8.876180348E0
3.898571458E0,1.268107147E0,3.621556630E0,8.858814134E0,9.654136731E0
3.908597208E0,1.360713156E0,3.568113078E0,8.246317710E0,9.087613933E0
3.918624208E0,1.177385696E0,3.796411766E0,6.907217032E0,7.969229982E0
3.928651208E0,8.144678776E-1,4.563300412E0,5.999165491E0,7.581362355E0
3.938677208E0,5.734726918E-1,5.251537575E0,5.738525269E0,7.799883979E0
3.948704208E0,7.399256721E-1,5.629829038E0,5.247393653E0,7.731597839E0
3.958731208E0,7.547562575E-1,5.312659689E0,4.462089787E0,6.978843403E0
3.968758208E0,4.035017341E-1,4.381720977E0,3.797331533E0,5.812230135E0
3.978784208E0,4.499122542E-1,4.123040156E0,3.863167089E0,5.667975046E0
3.988811208E0,5.466681781E-1,2.923174548E0,4.016490439E0,4.997598521E0
3.998838208E0,8.274444571E-1,2.024856282E0,3.978512188E0,4.540183534E0
4.008864208E0,1.011644029E0,1.721029694E0,3.796374929E0,4.289269105E0
4.018891208E0,1.097908879E0,1.867621145E0,3.075006858E0,3.761526262E0
4.028918208E0,1.053048163E0,2.391645103E0,2.081571935E0,3.340930776E0
4.038945208E0,6.564452666E-1,3.179164479E0,9.904879260E-1,3.393976062E0
4.048971208E0,2.930066076E-1,4.134253362E0,5.913300884E-1,4.186594679E0
4.058998208E0,-3.986020598E-1,5.256500106E0,5.514292735E-1,5.300353876E0
4.069025208E0,-1.434925432E0,6.312866857E0,3.978492308E-1,6.486106919E0
4.079051208E0,-2.124995990E0,7.016419632E0,4.859094679E-2,7.331310489E0
4.089078208E0,-2.655581401E0,7.339680610E0,-6.506150079E-1,7.832389414E0
4.099105208E0,-2.787343436E0,7.428632548E0,-1.890314189E0,8.156417884E0
4.109131208E0,-2.236220264E0,7.313267568E0,-3.681606950E0,8.487566985E0
4.119158208E0,-1.375628526E0,6.632096765E0,-6.014134364E0,9.057972924E0
4.129185208E0,-2.532767068E0,4.319213072E0,-9.650412528E0,1.087202707E1
4.139212208E0,-9.581045254E0,-2.554508185E0,-1.988641318E1,2.222141691E1
4.149238208E0,-2.068678006E1,-1.853879369E1,-2.592414749E1,3.799593615E1
4.159265208E0,-1.578661921E1,-4.187917119E1,-6.516044737E0,4.522765929E1
4.169292208E0,-5.656727985E-1,-4.622408278E1,8.858708299E0,4.706870008E1
4.179318208E0,6.863410277E0,-2.201800629E1,2.974909659E1,3.764183510E1
4.189345208E0,3.976469463E0,-4.483042699E-1,2.663180092E1,2.693076505E1
4.199372208E0,-2.058754930E-1,1.061696955E1,9.977492323E0,1.457095674E1
4.209399208E0,2.073852879E0,1.833230395E1,-6.162174169E0,1.945113427E1
4.219425208E0,1.065120266E1,1.842022151E1,-6.585953463E0,2.227391887E1
4.229452208E0,9.623656254E0,1.197276813E1,1.424666375E1,2.095064115E1
4.239479208E0,3.191557653E0,6.373807123E0,1.448557514E1,1.614445244E1
4.249505208E0,1.357400562E0,3.983861806E0,7.926431159E0,8.974519603E0
4.259532208E0,-2.546892772E0,-2.881078688E0,2.988739669E0,4.870302045E0
4.269559208E0,-6.870895883E0,-7.706474694E0,4.038212260E0,1.108630329E1
4.279586208E0,-5.304430903E0,-9.083860016E0,4.389206290E0,1.139818546E1
4.289612208E0,-3.446333557E-1,-9.391118919E0,1.478567588E0,9.513046243E0
4.299639208E0,4.434590331E0,-8.836956657E0,7.575038642E-1,9.916209279E0
4.309666208E0,7.882002845E0,-8.663241727E0,6.049967855E-1,1.172790464E1
4.319692208E0,8.024662043E0,-7.966257715E0,-7.451348104E-1,1.133188814E1
4.329719208E0,4.421590217E0,-5.614895250E0,2.456311508E-1,7.151072883E0
4.339746208E0,2.648527905E0,-3.135991563E0,2.383787469E0,4.746744762E0
4.349773208E0,2.162231497E0,-6.321500856E-1,2.328395479E0,3.239796951E0
4.359799208E0,2.116005165E0,1.389092617E0,6.050499952E-1,2.602526014E0
4.369826208E0,2.728341229E0,3.022357943E0,-8.035442555E-1,4.150202015E0
4.379853208E0,3.317097081E0,4.649481354E0,-1.271488738E0,5.851281356E0
4.389879208E0,1.833666802E0,6.150612470E0,-1.955476145E0,6.709415373E0
4.399906208E0,-1.655324459E-1,6.814710572E0,-2.935413355E0,7.421882021E0
4.409933208E0,-1.204900354E0,6.882410805E0,-2.768906872E0,7.515730744E0
4.419959208E0,-1.768800569E0,6.642121232E0,-1.892039117E0,7.129252550E0
4.429986208E0,-1.900912706E0,6.142188971E0,-1.145916201E0,6.530932430E0
4.440013208E0,-1.417694126E0,4.850906823E0,-3.772032970E-1,5.067882790E0
4.450040208E0,-6.171392597E-1,2.021335089E0,-2.342595150E0,3.155060767E0
4.460066208E0,4.244530753E-1,-7.628920734E-1,-2.726739092E0,2.863087635E0
4.470093208E0,1.048087166E0,-2.139274598E0,-1.662198665E0,2.904804109E0
4.480120208E0,1.464763189E0,-2.161754218E0,-9.634680887E-1,2.783340306E0
4.490146208E0,1.958846187E0,-1.864757763E0,-3.517275631E-1,2.727290263E0
4.500173208E0,2.004763495E0,-1.055547556E0,1.927404539E-1,2.273852721E0
4.510200208E0,1.772992876E0,5.750444233E-2,-6.401832828E-1,1.885906980E0
4.520227208E0,1.308121106E0,1.286632442E0,-2.820021185E0,3.364390487E0
4.530253208E0,3.623808246E-1,1.921093347E0,-4.277928514E0,4.703465943E0
4.540280208E0,-9.102172033E-1,1.536948820E0,-3.873727160E0,4.265731959E0
4.550307208E0,-1.957937676E0,5.404107803E-1,-3.316272331E0,3.888859206E0
4.560333208E0,-2.580190326E0,-7.548153144E-1,-3.779307199E0,4.637918841E0
4.570360208E0,-2.279657182E0,-1.942852006E0,-4.648098780E0,5.529587060E0
4.580387208E0,-8.374215612E-1,-2.581534016E0,-5.215691219E0,5.879543149E0
4.590414208E0,8.951810152E-1,-3.187987343E0,-5.767546170E0,6.650503828E0
4.600440208E0,2.436484476E0,-3.692079898E0,-6.292791027E0,7.692017257E0
4.610467208E0,3.095935796E0,-4.111389579E0,-6.922703383E0,8.626248597E0
4.620494208E0,2.828659569E0,-4.428165995E0,-7.902313734E0,9.489811978E0
4.630520208E0,2.390736446E0,-4.682722190E0,-8.523684477E0,1.001482426E1
4.640547208E0,2.246491775E0,-4.601518398E0,-8.761512372E0,1.014814249E1
4.650574208E0,2.940330863E0,-4.260562575E0,-8.269058701E0,9.755781406E0
4.660601208E0,4.699460430E0,-4.670783345E0,-5.998765542E0,8.937915496E0
4.670627208E0,6.783856570E0,-5.848464618E0,-3.102511575E0,9.478967582E0
4.680654208E0,8.467886837E0,-6.651273878E0,-7.790587476E-1,1.079590127E1
4.690681208E0,9.622309055E0,-6.414559293E0,1.378530791E-1,1.156522399E1
4.700707208E0,9.958422214E0,-6.771431821E0,1.270956495E0,1.210940925E1
4.710734208E0,7.475964589E0,-7.266667598E0,4.133385635E0,1.121514072E1
4.720761208E0,2.127506492E0,-6.364086712E0,5.457269518E0,8.649258589E0
4.730788208E0,-4.317284076E0,-5.600592375E0,-2.054756311E0,7.363939180E0
4.740814208E0,-7.381725599E0,-6.355081415E0,-9.843692826E0,1.384829307E1
4.750841208E0,-4.720935498E0,-6.924889657E0,-1.389041746E0,8.495337881E0
4.760868208E0,-3.291022300E0,-7.422355562E0,3.135846552E0,8.703776391E0
4.770894208E0,-2.993551928E0,-8.326802294E0,3.074338521E0,9.367419438E0
4.780921208E0,-3.228236652E0,-8.695135950E0,2.597935456E0,9.632038710E0
4.790948208E0,-3.291575738E0,-9.466105367E0,1.072428467E0,1.007927202E1
4.800975208E0,-4.669188809E0,-8.979163865E0,1.419528544E-1,1.012160355E1
4.811001208E0,-5.813864889E0,-7.210826688E0,3.075147191E-1,9.267772752E0
4.821028208E0,-5.525214164E0,-5.186338196E0,2.899471982E-1,7.583545663E0
4.831055208E0,-4.766903384E0,-3.319232191E0,4.085435543E0,7.101510670E0
4.841081208E0,-2.744285124E0,-1.680303252E0,8.047941563E0,8.667403490E0
4.851108208E0,7.228046592E-1,-5.498230433E-1,5.161720834E0,5.241003141E0
4.861135208E0,2.602120893E0,-3.667554921E-1,1.490036317E0,3.020885790E0
4.871161208E0,3.551095050E0,-8.281557709E-1,-7.027885437E-1,3.713492934E0
4.881188208E0,4.472217749E0,-8.231797904E-1,3.874800709E-1,4.563824861E0
4.891215208E0,5.930903342E0,-4.642987436E-1,3.514020486E0,6.909379694E0
4.901242208E0,6.843436189E0,2.058985895E-1,5.318299913E0,8.669447910E0
4.911269083E0,5.735199957E0,1.253998547E0,6.691745381E0,8.901937270E0
4.921296083E0,4.449548094E0,2.143454772E0,7.490614788E0,8.972301071E0
4.931323083E0,3.355285246E0,2.791682362E0,7.876549147E0,9.005079453E0
4.941349083E0,7.838476172E-1,4.212468642E0,8.168865491E0,9.224406353E0
4.951376083E0,5.409244582E-2,4.644464443E0,9.194263633E0,1.030089606E1
4.961403083E0,4.907500123E-1,5.192379540E0,1.013006723E1,1.139385373E1
4.971430083E0,5.692596267E-1,5.679668366E0,9.990241592E0,1.150598176E1
4.981456083E0,5.869622183E-1,6.033778085E0,9.255745937E0,1.106434975E1
4.991483083E0,3.572204375E-1,6.364028240E0,8.552142876E0,1.066619002E1
5.001510083E0,9.177117258E-2,6.193832749E0,7.818925422E0,9.975348657E0
5.011536083E0,-6.626506242E-1,5.880320833E0,7.122883396E0,9.260277902E0
5.021563083E0,-1.416242701E0,5.394759859E0,6.579747228E0,8.625673940E0
5.031590083E0,-2.037852303E0,4.986334185E0,5.873341012E0,7.969473336E0
5.041617083E0,-2.000528356E0,4.440214768E0,4.726500294E0,6.786562157E0
5.051643083E0,-4.992086676E-1,3.922687066E0,3.992494050E0,5.619314180E0
5.061670083E0,6.372652298E-1,3.396024259E0,3.367457687E0,4.824816993E0
5.071697083E0,1.132514748E0,2.984427055E0,2.577010610E0,4.102484392E0
5.081723083E0,1.327968163E0,2.677687384E0,1.504705519E0,3.346288671E0
5.091750083E0,1.071298785E0,2.904658754E0,3.335807294E-1,3.113840020E0
5.101777083E0,5.204109639E-1,3.678013251E0,-7.082814181E-1,3.781569993E0
5.111804083E0,-4.116600618E-1,4.699415991E0,-1.622090712E0,4.988502074E0
5.121830083E0,-1.429554034E0,5.691783797E0,-1.974980117E0,6.191976581E0
5.131857083E0,-1.826282646E0,6.250868245E0,-2.353540553E0,6.924436096E0
5.141884083E0,-1.542557762E0,6.174331115E0,-2.931276450E0,7.006727538E0
5.151910083E0,-9.999667011E-1,5.446953276E0,-4.357464387E0,7.046753102E0
5.161937083E0,-9.657330076E-1,4.104438409E0,-7.103902164E0,8.261021780E0
5.171964083E0,-2.229908925E0,1.802732838E0,-1.089360600E1,1.126467893E1
5.181991083E0,-4.947957739E0,-2.555512152E0,-1.418670874E1,1.524059163E1
5.192017083E0,-8.964096175E0,-1.034391394E1,-1.577699937E1,2.088696448E1
5.202044083E0,-1.192218620E1,-2.269782463E1,-1.501965163E1,2.971396476E1
5.212071083E0,-9.107502648E0,-3.766993840E1,-6.421897548E-1,3.876058915E1
5.222097083E0,1.641636492E0,-3.424501837E1,1.422317432E1,3.711758264E1
5.232124083E0,4.091609618E0,-1.400004457E1,2.080451257E1,2.540807471E1
5.242151083E0,-9.447287858E-2,2.493471440E0,2.358792054E1,2.371953457E1
5.252177083E0,-2.256441690E0,1.148492323E1,1.227614974E1,1.696168751E1
5.262204083E0,9.732428791E-1,1.799513829E1,-8.080073767E0,1.974993154E1
5.272231083E0,1.002204694E1,1.714236165E1,-1.564321391E0,1.991856142E1
5.282258083E0,8.033270899E0,9.544485539E0,1.955431589E1,2.319486830E1
5.292284083E0,2.212775853E0,3.504142200E0,1.563855836E1,1.617837745E1
5.302311083E0,-1.445906503E0,-2.553407155E0,9.387324661E0,9.835262986E0
5.312338083E0,-4.094884059E0,-8.277229015E0,2.591535386E0,9.591488481E0
5.322364083E0,-2.792436068E0,-1.022322273E1,6.176378810E-1,1.061571753E1
5.332391083E0,1.246241046E0,-1.078976530E1,2.025393933E0,1.104872719E1
5.342418083E0,4.307880583E0,-1.029835711E1,1.964253692E0,1.133456161E1
5.352445083E0,6.066193879E0,-8.677290832E0,2.146829493E0,1.080291448E1
5.362471083E0,7.810988996E0,-7.916345882E0,2.253203794E0,1.134711455E1
5.372498083E0,6.969346622E0,-5.941917742E0,2.148792111E0,9.407203959E0
5.382525083E0,3.906851052E0,-2.991249586E0,2.424620476E0,5.485421012E0
5.392551083E0,2.263509073E0,-2.792519099E-1,2.479040512E0,3.368545207E0
5.402578083E0,1.598257461E0,2.447812287E0,1.739043650E0,3.401541521E0
5.412605083E0,9.900110856E-1,4.614609144E0,-7.232222235E-1,4.774703121E0
5.422632083E0,3.781594264E-1,6.209808512E0,-2.640008512E0,6.758281678E0
5.432658083E0,-5.106283894E-1,6.948674961E0,-2.140672667E0,7.288847956E0
5.442685083E0,-1.589528884E0,7.079892912E0,-1.506940910E0,7.410961923E0
5.452712083E0,-2.987238396E0,6.865084335E0,-1.891073742E0,7.721990421E0
5.462738083E0,-3.878323072E0,6.344463456E0,-2.795271968E0,7.944000992E0
5.472765083E0,-3.160906549E0,5.054653637E0,-3.112431961E0,6.725182995E0
5.482792083E0,-1.802098415E0,2.925335678E0,-2.508992874E0,4.254432133E0
5.492819083E0,-6.363109642E-1,1.005897093E0,-1.666702044E0,2.048076246E0
5.502845083E0,1.860741165E-2,-2.143834841E-1,-1.383133135E0,1.399772761E0
5.512872083E0,4.132837605E-1,-7.937688804E-1,-1.790432051E0,2.001629194E0
5.522899083E0,3.595983540E-1,-9.835765171E-1,-2.110724398E0,2.356245154E0
5.532925083E0,2.949753103E-1,-4.498836029E-1,-1.892173165E0,1.967161654E0
5.542952083E0,7.674676658E-1,3.051381183E-1,-1.153167260E0,1.418418351E0
5.552979083E0,1.405891083E0,8.979165620E-1,-3.623320735E-1,1.707064270E0
5.563006083E0,1.739632903E0,1.356207291E0,-1.420243366E-1,2.210382720E0
5.573032083E0,1.803198715E0,1.549022151E0,-7.239368995E-1,2.484970798E0
5.583059083E0,1.429065937E0,1.547633438E0,-2.616893299E0,3.359394179E0
5.593086083E0,7.513216031E-1,1.068487444E0,-4.461308599E0,4.648593764E0
5.603112083E0,4.811786319E-1,-3.790615422E-1,-4.492986474E0,4.534550472E0
5.613139083E0,5.377134597E-1,-2.327412270E0,-3.605123030E0,4.324684462E0
5.623166083E0,7.282750949E-1,-3.776367511E0,-3.645088164E0,5.298868173E0
5.633193083E0,4.276568013E-1,-4.047147975E0,-4.720414804E0,6.232544664E0
5.643219083E0,-2.339737396E-1,-3.615627553E0,-6.047557633E0,7.049855292E0
5.653246083E0,-9.079025099E-1,-3.470176894E0,-7.437251928E0,8.257065513E0
5.663273083E0,-2.482093343E-1,-3.244676099E0,-8.137748948E0,8.764273433E0
5.673299083E0,1.006862396E0,-3.254148588E0,-7.896237307E0,8.599640605E0
5.683326083E0,1.687881098E0,-3.315544353E0,-7.612215239E0,8.472756210E0
5.693353083E0,2.623186657E0,-3.453463213E0,-6.526986632E0,7.836393998E0
5.703380083E0,4.487257665E0,-4.748733746E0,-4.319659507E0,7.832331185E0
5.713406083E0,6.558850449E0,-6.828013573E0,-1.914106655E0,9.659404373E0
5.723433083E0,8.504162963E0,-7.754332985E0,5.585761790E-1,1.152225998E1
5.733460083E0,1.020386845E1,-7.460103432E0,1.722625692E0,1.275693983E1
5.743486083E0,1.034848412E1,-9.224624716E0,3.221840383E0,1.423253597E1
5.753513083E0,6.204531400E0,-8.283730534E0,5.074239471E0,1.152667808E1
5.763540083E0,-1.851944577E-1,-5.845091359E0,1.576705648E0,6.056846596E0
5.773567083E0,-6.655886747E0,-5.045233773E0,-9.293661622E0,1.249509338E1
5.783593083E0,-7.572180523E0,-5.186644006E0,-7.109702602E0,1.160978316E1
5.793620083E0,-5.604391896E0,-6.279213207E0,7.070114028E-1,8.446158426E0
5.803647083E0,-4.722517755E0,-7.658415259E0,2.659691409E0,9.382294848E0
5.813673083E0,-4.552906109E0,-8.464973754E0,1.866213720E0,9.791194429E0
5.823700083E0,-3.495892071E0,-8.574502044E0,2.292706414E-1,9.262608256E0
5.833727083E0,-3.818528567E0,-6.448640959E0,2.671863265E-1,7.499167898E0
5.843754083E0,-4.722012263E0,-3.662585957E0,7.187447181E-1,6.019014012E0
5.853780083E0,-3.047814966E0,-1.675146593E0,2.815729621E-1,3.489208436E0
5.863807083E0,-2.234066003E0,-7.921989030E-1,2.186194703E0,3.224604982E0
5.873834083E0,-2.473997581E0,-1.074206606E0,7.099757658E0,7.594810245E0
5.883860083E0,-2.401843232E-1,-1.078904259E0,6.020317794E0,6.120943493E0
5.893887083E0,9.570057459E-1,-5.649948138E-1,2.527597837E0,2.761128386E0
5.903914083E0,1.684378177E0,-3.315301108E-1,5.931389245E-1,1.816275266E0
5.913940208E0,2.759601321E0,-2.487019622E-1,1.080729175E0,2.974092747E0
5.923966208E0,3.772607459E0,-2.050858265E-1,2.561525721E0,4.564651274E0
5.933993208E0,5.778312063E0,-1.614790463E-1,3.696471156E0,6.861403996E0
5.944020208E0,6.127870309E0,9.368525863E-2,4.442608618E0,7.569434773E0
5.954046208E0,4.721082848E0,4.067551249E-1,5.933323504E0,7.593312900E0
5.964073208E0,2.815902991E0,1.430064057E0,6.571146559E0,7.290703667E0
5.974100208E0,1.636773802E0,2.333417945E0,7.344190568E0,7.877880608E0
5.984127208E0,1.450419530E0,2.849316028E0,7.968126485E0,8.585648392E0
5.994153208E0,1.483144496E0,3.266671570E0,8.298230460E0,9.040546969E0
6.004180208E0,1.349537665E0,4.107176660E0,8.332378784E0,9.387155492E0
6.014207208E0,5.185818087E-1,5.206038051E0,7.596406122E0,9.223727297E0
6.024233208E0,-5.339580855E-1,5.949457726E0,6.452452759E0,8.792912207E0
6.034260208E0,-1.033860818E0,5.935149590E0,5.796378205E0,8.360195521E0
6.044287208E0,-9.021910228E-1,5.249424976E0,4.918961397E0,7.250282232E0
6.054314208E0,-1.179776038E0,4.310785480E0,4.239399163E0,6.160133783E0
6.064340208E0,-1.622793840E0,3.378308365E0,4.593622903E0,5.928557888E0
6.074367208E0,-1.596987154E0,2.640387411E0,5.121156945E0,5.978985039E0
6.084394208E0,-9.761569852E-1,2.216651972E0,5.023763382E0,5.577152225E0
6.094420208E0,1.040354151E-1,2.062480191E0,4.641251398E0,5.079947091E0
6.104447208E0,1.031078712E0,2.105207550E0,3.875728077E0,4.529491171E0
6.114474208E0,1.625337671E0,2.529775633E0,2.991127380E0,4.241265176E0
6.124501208E0,1.789553507E0,3.147032275E0,2.301750010E0,4.290031119E0
6.134527208E0,1.647950608E0,3.902635210E0,2.747401983E0,5.049209883E0
6.144554208E0,1.138483001E0,4.579091987E0,3.466053438E0,5.854720608E0
6.154581208E0,4.592868027E-1,5.135673827E0,3.066501498E0,5.999126725E0
6.164607208E0,3.121878138E-1,5.841726286E0,1.484796335E0,6.035548640E0
6.174634208E0,1.358816904E-1,6.235287754E0,-5.210699451E-1,6.258497511E0
6.184661208E0,4.391875836E-1,6.630829673E0,-1.666733034E0,6.851188722E0
6.194688208E0,7.758603206E-1,7.015133829E0,-2.123750825E0,7.370507407E0
6.204714208E0,7.924398082E-1,6.840428381E0,-2.615969439E0,7.366323193E0
6.214741208E0,1.551943128E-1,5.913872741E0,-4.250446892E0,7.284522967E0
6.224768208E0,-2.282565880E0,3.394792251E0,-7.868934318E0,8.868756888E0
6.234794208E0,-9.125178781E0,-3.227373603E0,-1.808274829E1,2.051025631E1
6.244821208E0,-1.744025273E1,-2.153970639E1,-3.391286845E1,4.379730600E1
6.254848208E0,-1.086531601E1,-4.921404013E1,-1.425739223E1,5.237699944E1
6.264875208E0,2.000930645E0,-5.209070183E1,9.199415615E0,5.293462183E1
6.274901208E0,5.371172192E0,-2.535318793E1,3.046825032E1,3.999934883E1
6.284928208E0,1.789319033E0,-2.481996864E-1,3.124521898E1,3.129739566E1
6.294955208E0,-4.307222187E0,1.144281977E1,1.412764017E1,1.868369621E1
6.304981208E0,-4.921457573E0,1.958484654E1,-7.288496423E0,2.146879453E1
6.315008208E0,3.603587551E0,2.189017680E1,-1.751303302E1,2.826432397E1
6.325035208E0,7.859647771E0,1.503224419E1,1.039088345E1,1.989253346E1
6.335062208E0,3.342437744E0,7.437709765E0,2.096369483E1,2.249373063E1
6.345088208E0,1.342252619E0,5.013365278E0,1.169545691E1,1.279527982E1
6.355115208E0,-4.369982399E-1,1.357372057E0,4.373714969E0,4.600305315E0
6.365142208E0,-4.104932791E0,-6.892703074E0,-1.976877831E0,8.262437585E0
6.375168208E0,-3.566946559E0,-9.438621114E0,7.432536149E-1,1.011746521E1
6.385195208E0,-3.193707528E-1,-9.500766492E0,9.607101032E-1,9.554555223E0
6.395222208E0,3.370867199E0,-8.025128651E0,8.486090389E-1,8.745603058E0
6.405249208E0,6.393233913E0,-6.772769079E0,9.502707767E-1,9.361989928E0
6.415275208E0,6.684870810E0,-5.912709730E0,1.118359516E0,8.994351678E0
6.425302208E0,5.884875814E0,-4.572016856E0,1.618803115E0,7.625983544E0
6.435329208E0,4.389914680E0,-2.781184856E0,1.505569445E0,5.410460189E0
6.445355208E0,2.728523077E0,-1.017615498E0,7.633342691E-1,3.010491437E0
6.455382208E0,1.551085780E0,8.348169190E-1,8.522866452E-1,1.956828789E0
6.465409208E0,1.209498166E0,2.473528926E0,8.680062266E-1,2.886982156E0
6.475436208E0,5.956935365E-1,4.093218772E0,5.489061634E-1,4.172599751E0
6.485462208E0,6.089893375E-3,5.378436188E0,-6.186248910E-1,5.413899673E0
6.495489208E0,-9.660385977E-1,5.751720096E0,-2.226840745E0,6.242942763E0
6.505516208E0,-1.634682691E0,5.387916278E0,-2.609190177E0,6.205618640E0
6.515542208E0,-1.795195193E0,4.618240265E0,-1.538800049E0,5.188330610E0
6.525569208E0,-1.085226341E0,3.704420446E0,-3.577425939E-1,3.876651495E0
6.535596208E0,-3.185788936E-1,2.771472631E0,-4.799640191E-1,2.830709896E0
6.545623208E0,2.760480377E-1,1.791157690E0,-1.514686131E0,2.361931935E0
6.555649208E0,7.632362551E-1,7.259347469E-1,-2.245973420E0,2.480707044E0
6.565676208E0,9.128407759E-1,-2.343575728E-1,-3.538975818E0,3.662315060E0
6.575703208E0,7.433298480E-1,-5.923299623E-1,-4.090806211E0,4.199772553E0
6.585729208E0,4.490380955E-1,-6.104563308E-1,-3.231986471E0,3.319642856E0
6.595756208E0,3.613323458E-3,-3.863120896E-1,-1.958499155E0,1.996238720E0
6.605783208E0,-3.801877890E-1,8.434491634E-2,-8.902192873E-1,9.716723724E-1
6.615810208E0,-2.893671178E-1,6.182541776E-1,-3.237562376E-1,7.555062266E-1
6.625836208E0,-3.015884198E-5,9.093390977E-1,-3.290533765E-1,9.670438047E-1
6.635863208E0,2.609198655E-1,8.183464819E-1,-9.947599018E-1,1.314274478E0
6.645890208E0,3.485787644E-1,7.486231130E-1,-2.352404000E0,2.493140249E0
6.655916208E0,9.452250682E-2,5.575963318E-1,-4.013012515E0,4.052667963E0
6.665943208E0,7.934677122E-2,-3.306898659E-1,-4.642074686E0,4.654514914E0
6.675970208E0,5.391750078E-1,-1.417196674E0,-4.620219255E0,4.862672318E0
6.685997208E0,1.520804658E0,-2.143381097E0,-5.530707039E0,6.123369145E0
6.696023208E0,1.914634220E0,-2.233327646E0,-6.559596553E0,7.189011303E0
6.706050208E0,1.431798049E0,-2.060044241E0,-6.589485766E0,7.050897147E0
6.716077208E0,1.083445572E0,-1.953682804E0,-6.608665218E0,6.976043776E0
6.726104208E0,1.547661358E0,-2.144092119E0,-6.618166358E0,7.126886602E0
6.736130208E0,2.773656566E0,-3.113475105E0,-5.811670429E0,7.152790444E0
6.746157208E0,4.427289790E0,-4.572577604E0,-3.916693670E0,7.473275730E0
6.756184208E0,6.046539633E0,-6.222588186E0,-2.092581072E0,8.925252983E0
6.766210208E0,7.053905547E0,-8.150804611E0,-3.280119874E-1,1.078428445E1
6.776237208E0,7.287571394E0,-8.670173602E0,2.053343332E-1,1.132796404E1
6.786264208E0,6.692441200E0,-9.130145990E0,8.461909229E-1,1.135184452E1
6.796291208E0,3.892050580E0,-8.075086677E0,1.387627305E0,9.070865014E0
6.806317208E0,-1.399979109E0,-6.282733231E0,-2.901789526E0,7.060669997E0
6.816344208E0,-6.978245500E0,-5.003893958E0,-8.826654448E0,1.231441000E1
6.826371208E0,-7.947562997E0,-4.634266899E0,-5.126014227E0,1.053167646E1
6.836397208E0,-5.937267451E0,-5.645958583E0,-1.617339849E-2,8.193183428E0
6.846424208E0,-4.522663725E0,-6.838880038E0,1.334750934E0,8.307004719E0
6.856451208E0,-3.834965968E0,-7.482674854E0,8.823319050E-1,8.454341874E0
6.866478208E0,-3.287194712E0,-7.400019198E0,1.079162121E-2,8.097286562E0
6.876504208E0,-2.365957408E0,-5.934501718E0,3.929701678E-1,6.400819530E0
6.886531208E0,-1.484514791E0,-4.230741191E0,1.935129150E0,4.883408647E0
6.896558208E0,-1.674136486E0,-3.378032961E0,2.325507978E0,4.429653149E0
6.906584208E0,-1.274519496E0,-3.454422156E0,4.014578107E0,5.447409454E0
6.916611833E0,-1.164993765E0,-2.831050496E0,5.834124906E0,6.588556048E0
6.926638833E0,-9.554280940E-1,-2.032008011E0,3.992140878E0,4.580293462E0
6.936665833E0,-6.364736630E-1,-1.140142148E0,1.685906931E0,2.132441095E0
6.946691833E0,6.350425570E-1,-2.722083539E-1,5.119164214E-1,8.599039827E-1
6.956718833E0,2.146887234E0,5.984970206E-1,1.101398790E0,2.486041587E0
6.966745833E0,3.663283238E0,6.535111338E-1,2.855175230E0,4.690282132E0
6.976771833E0,4.995340067E0,6.868835324E-1,3.707268040E0,6.258519608E0
6.986798833E0,5.326593604E0,8.992777938E-1,3.468616857E0,6.419704267E0
6.996825833E0,4.104082314E0,1.238902205E0,4.457401489E0,6.184399595E0
7.006852833E0,2.143510906E0,1.824584468E0,5.832544988E0,6.476289719E0
7.016878833E0,1.235832271E0,2.338059465E0,6.802559474E0,7.298535391E0
7.026905833E0,1.088443260E0,2.700674543E0,7.343181923E0,7.899409628E0
7.036932833E0,1.282375523E0,2.865799913E0,7.656302660E0,8.275038764E0
7.046958833E0,1.388238046E0,2.836145175E0,8.122281893E0,8.714492956E0
7.056985833E0,9.710101198E-1,3.020131908E0,8.384136583E0,8.964251426E0
7.067012833E0,1.056153912E0,3.559238759E0,8.305648237E0,9.097660923E0
7.077039833E0,9.197006562E-1,4.209833302E0,7.957939466E0,9.049715259E0
7.087065833E0,2.100787640E-2,4.328153465E0,7.411506638E0,8.582760884E0
7.097092833E0,-5.539581943E-1,4.293734999E0,6.427071750E0,7.749211650E0
7.107119833E0,-8.869071320E-1,4.368764132E0,5.850800580E0,7.355580992E0
7.117145833E0,-8.241539365E-1,4.599081278E0,5.498725693E0,7.215730217E0
7.127172833E0,-5.288464496E-1,4.720719736E0,4.839636900E0,6.781368499E0
7.137199833E0,-4.929144323E-2,4.540630757E0,4.038676529E0,6.077060590E0
7.147226833E0,5.829513207E-1,4.131027453E0,3.407255591E0,5.386521208E0
7.157252833E0,1.205880640E0,3.794024348E0,2.762138135E0,4.845428356E0
7.167279833E0,1.398247018E0,3.860950994E0,1.812629836E0,4.488614956E0
7.177306833E0,6.308783162E-1,3.655981527E0,1.611954564E-1,3.713514824E0
7.187333833E0,3.013438600E-1,3.876446700E0,-1.055731158E0,4.028922365E0
7.197359833E0,-5.669520231E-1,4.556280829E0,-2.299727458E0,5.135160754E0
7.207386833E0,-1.776470215E0,5.344151623E0,-3.348269464E0,6.551847938E0
7.217413833E0,-2.213818557E0,5.866035501E0,-3.619126527E0,7.239436575E0
7.227439833E0,-2.292381893E0,5.986144912E0,-3.783664252E0,7.443457585E0
7.237466833E0,-2.343228550E0,5.269271595E0,-4.740578635E0,7.465187805E0
7.247493833E0,-2.947070948E0,2.884530884E0,-7.984981084E0,8.986972155E0
7.257520833E0,-3.724657075E0,-1.934294021E0,-1.101912818E1,1.179134215E1
7.267546833E0,-6.368471539E0,-9.568753238E0,-1.201269525E1,1.662598314E1
7.277573833E0,-1.358205519E1,-2.134482571E1,-1.307469229E1,2.847843721E1
7.287600833E0,-1.477438315E1,-3.362216594E1,-4.056699402E0,3.694846749E1
7.297626833E0,-4.533410322E0,-3.079022608E1,8.790252607E0,3.233973365E1
7.307653833E0,2.618557124E0,-1.223995197E1,1.650746864E1,2.071641345E1
7.317680833E0,-1.420227286E-1,1.809845976E0,1.977187090E1,1.985503946E1
7.327707833E0,1.820075534E0,1.000689212E1,1.411746134E1,1.739980688E1
7.337733833E0,4.135118750E0,1.471816451E1,2.953893480E0,1.557077584E1
7.347760833E0,8.605802189E0,1.455023950E1,2.498309426E0,1.708832498E1
7.357787833E0,7.134231087E0,8.622506515E0,1.334622880E1,1.741742504E1
7.367813833E0,2.322075224E0,3.097212244E0,1.328728535E1,1.383967879E1
7.377840833E0,-5.030631521E-1,-3.519991663E0,5.534456273E0,6.578268776E0
7.387867833E0,-1.932314739E0,-8.452675306E0,1.461196680E0,8.792989014E0
7.397894833E0,-3.205121293E-1,-9.323873600E0,1.902080248E0,9.521305384E0
7.407920833E0,2.004155384E0,-8.885280971E0,2.739690967E0,9.511612026E0
7.417947833E0,4.326332934E0,-7.970226220E0,2.238940389E0,9.341012617E0
7.427974833E0,5.686381554E0,-6.332248623E0,1.184512867E0,8.592751511E0
7.438000833E0,6.723236146E0,-4.799847182E0,7.799717903E-1,8.297517294E0
7.448027833E0,5.840220628E0,-3.041050322E0,1.915919146E-1,6.587326583E0
7.458054833E0,3.689820826E0,-8.974218875E-1,7.658041330E-1,3.873835275E0
7.468081833E0,1.880961275E0,1.111501316E0,1.420853523E0,2.606199384E0
7.478107833E0,9.065377698E-1,2.823564305E0,8.777268572E-1,3.092689857E0
7.488134833E0,3.812712780E-1,4.170635322E0,-4.160515400E-1,4.208641784E0
7.498161833E0,4.110493932E-2,4.660550133E0,-6.434954381E-1,4.704944584E0
7.508187833E0,-7.952957346E-1,4.746890119E0,-5.426648089E-1,4.843546862E0
7.518214833E0,-1.800898421E0,4.938172424E0,-1.299226760E0,5.414496485E0
7.528241833E0,-2.962945262E0,5.160823286E0,-2.310586907E0,6.383725673E0
7.538268833E0,-2.956942803E0,4.967356462E0,-3.016045289E0,6.520327457E0
7.548294833E0,-2.260456388E0,3.850166389E0,-3.291225198E0,5.546675366E0
7.558321833E0,-1.220278604E0,2.173984255E0,-2.569705099E0,3.580317263E0
7.568348833E0,3.331169355E-1,6.987732607E-1,-1.991782091E0,2.136924627E0
7.578374833E0,1.700262138E0,-4.553408092E-1,-2.010947510E0,2.672477592E0
7.588401833E0,2.300350625E0,-1.355544802E0,-1.862701882E0,3.255575680E0
7.598428833E0,2.120586019E0,-1.671344149E0,-1.495179820E0,3.086395798E0
7.608455833E0,1.589734413E0,-1.445817041E0,-1.259127139E0,2.490591009E0
7.618481833E0,8.520651819E-1,-7.025061232E-1,-1.538320139E0,1.893662794E0
7.628508833E0,5.511569029E-1,-7.600795627E-3,-2.470358566E0,2.531107099E0
7.638535833E0,8.106940846E-1,7.976976246E-1,-3.021023608E0,3.228022621E0
7.648562833E0,1.111285335E0,9.947774434E-1,-2.650224182E0,3.041089521E0
7.658588833E0,1.404493891E0,1.393539425E0,-1.815496141E0,2.685252587E0
7.668615833E0,1.240375850E0,1.049924873E0,-1.039122581E0,1.928898708E0
7.678642833E0,9.242486206E-1,6.505957121E-1,-1.042547003E0,1.537665291E0
7.688668833E0,6.806328589E-1,1.968470997E-1,-1.586810367E0,1.737808105E0
7.698695833E0,2.772880128E-1,-1.007568812E-1,-2.276624524E0,2.295661084E0
7.708722833E0,1.152300556E-1,-8.947011781E-1,-2.736141122E0,2.881013087E0
7.718749833E0,2.415152226E-2,-2.227095099E0,-3.792783861E0,4.398379849E0
7.728775833E0,3.776564928E-1,-3.024274660E0,-5.442121137E0,6.237430891E0
7.738802833E0,1.017121409E0,-2.959354779E0,-6.575878710E0,7.282478800E0
7.748829833E0,1.759770421E0,-2.952445124E0,-6.742957635E0,7.568434568E0
7.758855833E0,1.375264244E0,-3.762817174E0,-7.124732870E0,8.173858531E0
7.768882833E0,1.082946220E0,-3.026970811E0,-7.616711748E0,8.267383060E0
7.778909833E0,8.948797374E-1,-2.220536277E0,-7.292680691E0,7.675596574E0
7.788936833E0,9.783354384E-1,-2.524627159E0,-7.232749654E0,7.722923674E0
7.798962833E0,2.165947403E0,-2.956903626E0,-6.429686040E0,7.401045181E0
7.808989833E0,3.748581835E0,-3.729895011E0,-4.682616648E0,7.063347735E0
7.819016833E0,5.669780139E0,-4.866420656E0,-2.361545683E0,7.836156892E0
7.829043833E0,7.065443273E0,-6.020054669E0,4.768088615E-1,9.294562580E0
7.839069833E0,8.062950781E0,-6.873089758E0,8.431714207E-1,1.062833365E1
7.849096833E0,7.535113268E0,-7.947367115E0,7.429027820E-1,1.097681559E1
7.859123833E0,3.566057490E0,-8.882304153E0,3.677378243E-1,9.578482354E0
7.869149833E0,-7.016528682E-1,-7.953086277E0,-4.597525334E-1,7.997203915E0
7.879176833E0,-2.407223255E0,-5.879271843E0,-3.762414300E-1,6.364127498E0
7.889203833E0,-4.262275810E0,-4.863077803E0,1.012962284E0,6.545426906E0
7.899230833E0,-5.505689142E0,-5.825380980E0,1.591787517E0,8.171992657E0
7.909256833E0,-5.766714696E0,-7.596528329E0,1.870318611E0,9.719070570E0
7.919283583E0,-6.351821592E0,-8.422907715E0,1.451395869E0,1.064882913E1
7.929310583E0,-5.747296093E0,-8.433371893E0,5.272565916E-1,1.021915717E1
7.939336583E0,-6.183612401E0,-6.193301822E0,3.272714375E-1,8.757919637E0
7.949363583E0,-5.827882419E0,-3.313554545E0,1.181588674E0,6.807349631E0
7.959390583E0,-3.380825299E0,-2.028535350E0,3.057800548E0,4.989496925E0
7.969417583E0,-1.781490489E0,-1.015570727E0,6.495977678E0,6.811961410E0
7.979443583E0,3.107018171E-1,-6.029765725E-1,5.532558267E0,5.573985768E0
7.989470583E0,1.705261654E0,-6.270144761E-1,1.853518538E0,2.595495219E0
7.999497583E0,3.186269723E0,-6.163105631E-1,7.146195075E-1,3.323076060E0
8.009523583E0,4.766029518E0,-6.533871728E-1,6.834097016E-1,4.858909444E0
8.019550583E0,5.883919795E0,-3.297777003E-1,2.782417449E0,6.516986446E0
8.029577583E0,5.840069770E0,3.980708402E-1,4.029600188E0,7.106514828E0
8.039604583E0,3.943087709E0,1.278621172E0,5.322595863E0,6.746320442E0
8.049630583E0,1.919366372E0,2.243070862E0,6.088703905E0,6.766657181E0
8.059657583E0,8.540460724E-1,3.165132331E0,6.395711963E0,7.186973555E0
8.069684583E0,5.994584490E-1,3.394535558E0,7.264692993E0,8.041018988E0
8.079710583E0,2.243591264E-1,3.751509243E0,7.544340175E0,8.428595808E0
8.089737583E0,-9.145878509E-2,4.226344085E0,7.221265138E0,8.367617297E0
8.099764583E0,1.000321189E-1,4.506906940E0,7.100548201E0,8.410707542E0
8.109791583E0,1.430473070E-1,4.804157749E0,6.451699052E0,8.045173390E0
8.119817583E0,-9.655127138E-2,5.140817623E0,5.505245338E0,7.532931316E0
8.129844583E0,-3.743258822E-1,5.177120061E0,4.818610312E0,7.082492311E0
8.139871583E0,-4.802090174E-1,4.888241880E0,4.028727491E0,6.352649414E0
8.149898583E0,-8.051955092E-1,4.277683223E0,3.380340273E0,5.511226172E0
8.159924583E0,-8.620096877E-1,3.594847718E0,3.238982080E0,4.914976677E0
8.169951583E0,-2.729813558E-1,2.949305754E0,3.485955021E0,4.574363962E0
8.179978583E0,5.875416774E-1,2.556748838E0,3.804656925E0,4.621426637E0
8.190004583E0,1.503494268E0,2.671074768E0,4.021313807E0,5.056293125E0
8.200031583E0,2.235884634E0,3.212999393E0,4.004868513E0,5.600135445E0
8.210058583E0,1.719432235E0,3.233720756E0,2.994490113E0,4.730789382E0
8.220085583E0,2.298648646E0,3.348678769E0,2.306838257E0,4.671074592E0
8.230111583E0,2.428041389E0,3.756930782E0,1.799713921E0,4.821709664E0
8.240138583E0,2.052675287E0,4.254663904E0,1.491259262E0,4.953735455E0
8.250165583E0,1.438825233E0,5.033971451E0,1.072576402E0,5.344296657E0
8.260191583E0,2.001639327E-1,5.895210768E0,6.357472926E-1,5.932769186E0
8.270218583E0,-1.007447483E0,6.466113024E0,-8.833856463E-2,6.544720908E0
8.280245583E0,-1.909169997E0,6.609742860E0,-1.252280050E0,6.992984776E0
8.290272583E0,-2.397705450E0,6.213437294E0,-2.603442948E0,7.150783846E0
8.300298583E0,-2.602118554E0,5.159730442E0,-4.727870881E0,7.466364729E0
8.310325583E0,-3.633115405E0,2.893913326E0,-8.554557191E0,9.734203133E0
8.320352583E0,-6.762925876E0,-1.615727187E0,-1.498595647E1,1.652049127E1
8.330378583E0,-1.285158359E1,-1.121714180E1,-2.458455740E1,2.992303349E1
8.340405583E0,-1.606772878E1,-2.838906931E1,-2.127062922E1,3.894291761E1
8.350432583E0,-9.668022003E0,-4.365750126E1,-1.989257264E0,4.475941476E1
8.360459583E0,5.915383662E0,-3.420217465E1,1.275005370E1,3.697762004E1
8.370485583E0,7.437385830E0,-9.157677605E0,2.638279373E1,2.890033862E1
8.380512583E0,7.149010509E-1,5.856792807E0,2.184455448E1,2.262736543E1
8.390539583E0,-2.107967728E0,1.503633608E1,5.939554882E0,1.630378001E1
8.400566583E0,2.690164758E0,2.043884174E1,-7.105368646E0,2.180526317E1
8.410592583E0,1.123799063E1,1.835771946E1,-2.297031891E0,2.164658524E1
8.420619583E0,8.857449979E0,1.008364268E1,1.619644354E1,2.103471067E1
8.430646583E0,3.138631580E0,3.713689452E0,1.720226053E1,1.787624862E1
8.440672583E0,-1.199473699E0,-1.484846621E0,1.116046357E1,1.132251976E1
8.450699583E0,-4.866749854E0,-8.354243862E0,2.732588354E0,1.004717292E1
8.460726583E0,-3.501487564E0,-1.059478522E1,-9.922435525E-1,1.120242993E1
8.470753583E0,-3.047848003E-1,-1.032078937E1,-4.626732177E-1,1.033564964E1
8.480779583E0,1.870809047E0,-9.169508277E0,1.881973135E-1,9.360300570E0
8.490806583E0,4.094094685E0,-8.303270760E0,1.402455551E0,9.363375362E0
8.500833583E0,6.154407898E0,-7.771272368E0,1.316033704E0,1.000006777E1
8.510859583E0,4.684226094E0,-5.687237002E0,6.690805149E-1,7.398263820E0
8.520886583E0,2.308261177E0,-3.124273158E0,1.272052410E0,4.087452722E0
8.530913583E0,2.145881074E0,-1.176535803E0,2.456825770E0,3.467713216E0
8.540940583E0,2.019662200E0,8.746159923E-1,3.233696197E0,3.911621100E0
8.550966583E0,2.303505490E0,2.758116421E0,2.813055689E0,4.563619840E0
8.560993583E0,2.501575096E0,4.226923544E0,8.445051706E-1,4.983768613E0
8.571020583E0,1.963858128E0,5.552746949E0,-1.372360225E0,6.047570587E0
8.581047583E0,7.935771648E-1,6.239330519E0,-2.286260151E0,6.692233971E0
8.591073583E0,-8.745793741E-1,5.992164035E0,-1.950569161E0,6.362046759E0
8.601100583E0,-2.138292704E0,5.175144871E0,-1.447078870E0,5.783464134E0
8.611127583E0,-2.528267636E0,4.395684713E0,-1.397202120E0,5.259881662E0
8.621153583E0,-2.413479922E0,3.515261850E0,-8.984018809E-1,4.357645827E0
8.631180583E0,-2.484997948E0,2.462560719E0,-2.595923283E-1,3.508106081E0
8.641207583E0,-1.937524315E0,1.281951746E0,-5.261622852E-1,2.382067904E0
8.651234583E0,-1.367580126E0,3.227651346E-1,-1.122578282E0,1.798509030E0
8.661260583E0,-1.189654031E0,-1.741195571E-1,-1.518572776E0,1.936919619E0
8.671287583E0,-1.207601841E0,-1.248924333E-1,-1.889022539E0,2.245508067E0
8.681314583E0,-1.252086215E0,1.627800518E-1,-2.005942293E0,2.370236638E0
8.691340583E0,-1.017276214E0,5.239923835E-1,-1.482001950E0,1.872364466E0
8.701367583E0,-3.950180820E-1,5.649334180E-1,-1.326580912E0,1.494993634E0
8.711394583E0,5.721713939E-1,1.844860858E-1,-1.621001376E0,1.728890014E0
8.721421583E0,1.461512429E0,-1.451647300E-1,-1.985633305E0,2.469783595E0
8.731447583E0,2.062764366E0,-4.930863404E-1,-2.568382751E0,3.330873898E0
8.741474583E0,2.400496618E0,-8.679741400E-1,-3.859613151E0,4.627350948E0
8.751501583E0,2.684192997E0,-1.619823162E0,-5.177179703E0,6.052429991E0
8.761528583E0,2.965230061E0,-2.610076030E0,-5.823145005E0,7.036625892E0
8.771554583E0,3.197566252E0,-3.074402840E0,-6.221321679E0,7.640760839E0
8.781581583E0,3.111771811E0,-2.832267886E0,-6.588526822E0,7.817515645E0
8.791608583E0,1.939285789E0,-2.257139263E0,-6.494650944E0,7.143948342E0
8.801634583E0,5.031850666E-1,-1.799522717E0,-6.928357641E0,7.175905296E0
8.811661583E0,1.156987830E-1,-1.617424634E0,-7.307341999E0,7.485098246E0
8.821688583E0,5.857339375E-1,-1.846409785E0,-7.008697214E0,7.271461337E0
8.831715583E0,1.372176476E0,-2.115892752E0,-6.386663396E0,6.866537683E0
8.841741583E0,2.204076658E0,-2.655782545E0,-6.151981888E0,7.053936205E0
8.851768583E0,3.159844694E0,-3.328918689E0,-5.022773448E0,6.804011408E0
8.861795583E0,4.752048533E0,-4.355428972E0,-3.216420306E0,7.203963241E0
8.871821583E0,6.868200316E0,-5.821489073E0,-6.522493047E-1,9.027033830E0
8.881848583E0,7.951398185E0,-6.172603263E0,1.259093226E0,1.014450984E1
8.891875583E0,7.865216074E0,-7.070259624E0,1.644705842E0,1.070304874E1
8.901902583E0,4.624834755E0,-8.926875139E0,9.620025571E-1,1.009968540E1
8.911928833E0,-1.067014384E0,-8.597824248E0,-2.579633671E-1,8.667620584E0
8.921955833E0,-3.691805078E0,-7.185087830E0,6.910765707E-1,8.107558121E0
8.931982833E0,-5.468137738E0,-6.612417376E0,1.993466089E0,8.809001131E0
8.942009833E0,-7.232427472E0,-7.166172672E0,1.355681627E0,1.027131494E1
8.952035833E0,-6.761469920E0,-8.299954804E0,9.732281148E-1,1.074959991E1
8.962062833E0,-5.870376474E0,-8.822201208E0,9.622341800E-1,1.064041582E1
8.972089833E0,-5.027827781E0,-8.683643832E0,6.641688538E-1,1.005613458E1
8.982115833E0,-5.778806738E0,-6.875809883E0,3.529904155E-1,8.988657914E0
8.992142833E0,-5.653664628E0,-4.558336126E0,6.253585446E-1,7.289267815E0
9.002169833E0,-4.186144477E0,-3.530179852E0,1.629540650E0,5.713263349E0
9.012196833E0,-2.583822909E0,-2.516612965E0,4.693296587E0,5.919165017E0
9.022222833E0,-1.536630147E0,-1.648195606E0,6.761106223E0,7.126734057E0
9.032249833E0,-1.114101427E-1,-5.882614696E-1,5.537254751E0,5.569529060E0
9.042276833E0,1.141878990E0,9.084573376E-1,2.209980007E0,2.648243567E0
9.052303833E0,1.394271496E0,9.581387901E-1,1.299997715E0,2.133545642E0
9.062329833E0,1.669234912E0,6.740331066E-1,2.768022481E0,3.301910700E0
9.072356833E0,3.019891587E0,1.074304254E0,3.619765920E0,4.834933313E0
9.082383833E0,3.921152464E0,1.339628096E0,4.358476540E0,6.013847175E0
9.092409833E0,4.403588979E0,7.887262416E-1,5.038643961E0,6.738072272E0
9.102436833E0,4.130835080E0,4.005582458E-1,5.349298342E0,6.770468087E0
9.112463833E0,3.115507304E0,3.257359879E0,5.181855136E0,6.867925582E0
9.122490833E0,1.142104254E0,4.111830459E0,6.868744107E0,8.086482391E0
9.132516833E0,9.398818825E-1,4.699874412E0,7.568266981E0,8.958284576E0
9.142543833E0,9.181793569E-1,5.012413352E0,7.750774369E0,9.275874312E0
9.152570833E0,7.736554818E-1,4.874768141E0,7.763545273E0,9.199703389E0
9.162596833E0,7.037571350E-1,5.009098565E0,7.357681264E0,8.928707416E0
9.172623833E0,5.515741383E-1,4.678080086E0,7.204236876E0,8.607537179E0
9.182650833E0,5.218558109E-1,4.741512435E0,6.629114100E0,8.166971741E0
9.192677833E0,-1.501557671E-1,4.066654286E0,5.329860443E0,6.705791242E0
9.202703833E0,-7.935408390E-1,3.780376362E0,3.864387403E0,5.463921897E0
9.212730833E0,-7.413822135E-1,3.653017573E0,3.642342312E0,5.211606518E0
9.222757833E0,-4.543897596E-1,3.655265243E0,3.381685132E0,5.000322828E0
9.232784833E0,1.871266884E-1,3.712952119E0,3.015797367E0,4.787072549E0
9.242810833E0,1.412771209E0,3.555575479E0,2.746030810E0,4.709429338E0
9.252837833E0,2.210970232E0,3.513249239E0,2.386684325E0,4.788274392E0
9.262864833E0,2.469369217E0,3.638360358E0,1.862274451E0,4.775302771E0
9.272890833E0,2.296765258E0,3.929126020E0,1.272864588E0,4.725816987E0
9.282917833E0,1.766882097E0,4.266581115E0,8.164858979E-1,4.689588039E0
9.292944833E0,7.150065932E-1,4.573265237E0,3.923902702E-1,4.645423498E0
9.302971833E0,-5.389869833E-1,4.772664646E0,-1.470317459E-1,4.805252660E0
9.312997833E0,-1.293933568E0,4.822444332E0,-1.188377584E0,5.132492055E0
9.323024833E0,-1.726026286E0,4.392276371E0,-3.000567124E0,5.592375302E0
9.333051833E0,-1.761580866E0,3.040815264E0,-5.293346921E0,6.353679740E0
9.343077833E0,-1.719416886E0,9.749717546E-1,-7.269581265E0,7.533510213E0
9.353104833E0,-1.772071355E0,-5.354722220E-1,-9.276890638E0,9.459792138E0
9.363131833E0,-1.164126696E0,-2.318972399E0,-1.012553798E1,1.045271942E1
9.373158833E0,-1.368514803E0,-3.815443284E0,-1.028460446E1,1.105457051E1
9.383184833E0,-2.492871516E0,-5.048296545E0,-1.038059469E1,1.180916816E1
9.393211833E0,-3.748167560E0,-5.852740102E0,-8.671674582E0,1.111311238E1
9.403238833E0,-5.056981999E0,-6.168868647E0,7.365936363E-1,8.010653999E0
9.413265833E0,-8.842293996E0,-6.511065833E0,8.999271855E0,1.419743059E1
9.423291833E0,-1.252068147E1,-9.769716192E0,9.201370924E0,1.835429230E1
9.433318833E0,-1.680762610E1,-1.718086206E1,-1.213779643E0,2.406556829E1
9.443345833E0,-1.519664217E1,-2.419024457E1,-4.568142491E0,2.893049932E1
9.453371833E0,-2.830699663E0,-1.857040374E1,2.354905293E0,1.893193954E1
9.463398833E0,1.102487833E1,-1.205178389E0,2.752278560E1,2.967328975E1
9.473425833E0,1.850369052E1,1.057746109E1,2.101900482E1,2.993439175E1
9.483452833E0,1.738319794E1,1.183091701E1,4.869723163E0,2.158379882E1
9.493478833E0,1.656313179E1,7.844211706E0,-2.877916514E0,1.855131789E1
9.503505833E0,1.185648689E1,2.548510112E0,4.146461179E0,1.281656449E1
9.513532833E0,2.248447669E0,-4.133577424E0,1.326818367E1,1.407787900E1
9.523559833E0,-3.529217985E0,-1.314034950E1,9.648849567E0,1.668006183E1
9.533585833E0,-3.496084152E0,-1.934490371E1,-2.070528006E0,1.976701773E1
9.543612833E0,3.527590120E-1,-1.706536785E1,-6.068471954E0,1.811567197E1
9.553639833E0,2.254846569E0,-9.221874771E0,-1.868996994E0,9.675766486E0
9.563665833E0,6.694835342E-1,-2.519067042E0,2.759829070E0,3.796124795E0
9.573692833E0,-9.355401056E-1,7.213774270E-1,5.626037704E0,5.748732115E0
9.583719833E0,-1.549272120E0,2.552523056E0,6.023661232E0,6.723102906E0
9.593746833E0,-1.851522883E0,3.709582953E0,5.004581591E0,6.498844480E0
9.603772833E0,-1.831933249E0,4.559283959E0,2.508812487E0,5.516991005E0
9.613799833E0,-1.759032795E0,4.995763990E0,-4.763223732E-1,5.317775589E0
9.623826833E0,-1.716459218E0,4.407967374E0,-3.672729707E-1,4.744607260E0
9.633852833E0,-1.385705033E0,3.185782358E0,1.157222742E0,3.661768991E0
9.643879833E0,-5.794105027E-1,1.992458029E0,1.653334140E0,2.653133865E0
9.653906833E0,-1.452664715E-1,1.152725356E0,1.142098042E0,1.629191834E0
9.663933833E0,-3.148566292E-1,5.756683213E-1,6.883121534E-1,9.509481235E-1
9.673959833E0,-4.043642350E-1,5.120014983E-1,4.929511236E-1,8.177143628E-1
9.683986833E0,-7.947419301E-1,1.435914196E0,-1.536635117E-1,1.648355784E0
9.694013833E0,-8.246961196E-1,1.977737664E0,-8.585839503E-1,2.308405588E0
9.704040833E0,-1.080038765E0,1.365399699E0,-3.254031059E-1,1.771069522E0
9.714066833E0,-1.096372596E0,4.831326252E-1,4.652848765E-1,1.285278188E0
9.724093833E0,-2.065748017E-1,-2.987459421E-2,8.532675156E-1,8.784253487E-1
9.734120833E0,8.824971619E-1,-5.403324276E-1,1.155787543E0,1.551323699E0
9.744146833E0,1.121137674E0,-2.261913514E-1,1.158640838E0,1.628054300E0
9.754173833E0,5.182702982E-1,3.254671329E-1,1.186885521E0,1.335376425E0
9.764200833E0,-1.455123469E-2,-1.700282604E-1,7.902359927E-1,8.084517746E-1
9.774227833E0,-5.816261955E-2,-3.929252905E-1,4.555611031E-1,6.044080516E-1
9.784253833E0,-6.997056449E-2,5.368504107E-1,5.600360826E-2,5.442799349E-1
9.794280833E0,-1.134531452E0,-4.451233846E-1,8.344071753E-1,1.477000940E0
9.804307833E0,-8.252026346E-1,-3.204373580E-1,1.707066543E0,1.922944531E0
9.814334833E0,9.092881539E-1,1.394381424E0,1.707539144E0,2.384700071E0
9.824360833E0,5.531303747E-1,-8.551506114E-1,1.684407413E0,1.968365848E0
9.834387833E0,1.891754979E-1,-2.547468722E0,1.179692276E0,2.813726733E0
9.844414833E0,7.328486408E-1,2.497948068E-1,9.527565743E-1,1.227684677E0
9.854440833E0,1.139056978E0,2.286826746E0,1.136132566E0,2.796037298E0
9.864467833E0,7.144926229E-1,2.782587603E0,1.179009029E0,3.105375302E0
9.874494833E0,1.836082725E-1,1.678659015E0,1.357419419E0,2.166609233E0
9.884521833E0,2.641458475E-1,-4.438329041E-2,1.567725055E0,1.590441685E0
9.894547833E0,1.639462424E-1,-7.953569841E-1,1.843724013E0,2.014643725E0
9.904574833E0,6.764997545E-1,-1.391798708E0,1.516555048E0,2.166724435E0
9.914601583E0,-8.825772688E-1,-2.945674633E0,-2.213323152E-1,3.083006597E0
9.924627583E0,-3.514367811E0,-3.315868288E0,-1.593766215E0,5.087814301E0
9.934654583E0,-4.097276739E0,-2.934730400E0,-2.501291506E0,5.626435674E0
9.944681583E0,-3.124639778E0,-3.190573567E0,-1.997798291E0,4.892272625E0
9.954708583E0,-3.431168364E0,-6.448566699E-1,1.955313592E0,4.001500682E0
9.964734583E0,-3.518607335E0,1.238682350E0,5.768285258E0,6.869355600E0
9.974761583E0,-2.024513781E0,1.425600293E0,4.285414119E0,4.949319793E0
9.984788583E0,2.507614978E-1,1.139266820E0,2.467611544E0,2.729453599E0
9.994815583E0,1.464998686E0,1.057457256E-1,1.644145971E0,2.204681220E0
1.000484158E1,1.808915100E0,-5.994115251E-1,2.948679518E0,3.510865835E0
1.001486858E1,2.247477470E0,-1.073876823E0,3.892782651E0,4.621484954E0
1.002489558E1,3.843062899E0,-1.645881279E0,3.761668196E0,5.623895914E0
1.003492158E1,5.246726485E0,-9.869977230E-1,3.144698067E0,6.196081766E0
1.004494858E1,3.609382727E0,-5.394530064E-1,3.493219017E0,5.051854344E0
1.005497558E1,1.144617168E0,-1.349482993E0,3.620721062E0,4.029996752E0
1.006500258E1,-5.049036364E-1,-2.011479607E0,3.000533795E0,3.647489677E0
1.007502858E1,-1.299765581E0,-1.766553776E0,1.735764678E0,2.796959389E0
1.008505558E1,-1.726121011E0,-9.213790995E-1,3.454852950E-1,1.986905453E0
1.009508258E1,-3.133945037E0,-9.164072120E-1,-9.896889771E-1,3.411876016E0
1.010510958E1,-3.344166473E0,-1.879978065E0,-1.921757591E0,4.290794701E0
1.011513558E1,-2.390521122E0,-1.405509844E0,-1.220633018E0,3.029850512E0
1.012516258E1,-2.750730802E0,6.902170300E-1,-3.650744176E-1,2.859405327E0
1.013518958E1,-3.951881629E0,2.024311906E-1,-5.018372834E-1,3.988757633E0
1.014521558E1,-5.565389214E0,-9.714394516E-1,-1.231029660E0,5.782100460E0
1.015524258E1,-7.116632722E0,-2.389212661E0,-1.863596506E0,7.734842621E0
1.016526958E1,-7.827146022E0,-2.537716151E0,-2.255093322E0,8.531685883E0
1.017529658E1,-5.809664249E0,-2.219943370E0,-2.854905381E0,6.843305633E0
1.018532258E1,7.107071355E-1,-4.553941358E0,-1.213848056E0,4.766226351E0
1.019534958E1,2.781742095E0,-5.484404692E0,2.399240052E0,6.600995132E0
1.020537658E1,1.733923097E0,-5.530801179E0,4.796073389E0,7.523202173E0
1.021540358E1,1.815528300E0,-7.196129712E0,5.034571960E0,8.968129162E0
1.022542958E1,1.647450671E0,-9.585676834E0,3.263339242E0,1.025907779E1
1.023545658E1,9.054509917E-1,-1.176631113E1,1.841508210E0,1.194391358E1
1.024548358E1,4.681675538E-1,-1.162136099E1,1.447913268E0,1.172056590E1
1.025550958E1,6.025105494E-1,-9.137025239E0,1.214181493E0,9.237017153E0
1.026553658E1,1.566908492E0,-8.535836746E0,7.648826118E-1,8.712104027E0
1.027556358E1,2.971782451E0,-7.398115929E0,1.171451137E0,8.058281951E0
1.028559058E1,2.414736342E0,-5.523431348E0,2.678904190E0,6.596648628E0
1.029561658E1,3.826101004E0,-3.955461295E0,2.886143546E0,6.214060469E0
1.030564358E1,4.480850870E0,-2.476584681E0,1.238200539E0,5.267317798E0
1.031567058E1,5.263534307E0,6.928254730E-1,1.851293964E0,5.622462973E0
1.032569758E1,3.933512894E0,-2.898511577E-1,1.217467482E0,4.127803829E0
1.033572358E1,2.782614208E0,6.544145286E-1,1.201273034E0,3.100686554E0
1.034575058E1,7.609695089E-1,-1.521957729E0,-2.616801497E0,3.121390715E0
1.035577758E1,-7.690662653E0,-4.339062030E0,-4.473091323E0,9.898600777E0
1.036580358E1,-9.790703019E0,-9.591304779E-2,-3.733715581E0,1.047891678E1
1.037583058E1,-7.146006210E0,2.094520594E0,-6.686126792E0,1.000783257E1
1.038585758E1,-2.830521322E0,2.927248303E0,-3.392284380E0,5.299832724E0
1.039588458E1,-2.816658744E0,4.992464991E0,2.714862812E0,6.342614071E0
1.040591058E1,3.077794810E0,4.673989373E0,7.869112659E-1,5.651391589E0
1.041593758E1,1.212166513E1,5.791619741E0,-9.002803574E0,1.617183035E1
1.042596458E1,9.803447025E0,7.469719763E0,-1.115303410E1,1.662210746E1
1.043599158E1,8.325204835E0,6.154968646E0,-9.003731527E0,1.372078190E1
1.044601758E1,8.499538985E0,4.779935074E0,-8.387166025E0,1.286213420E1
1.045604458E1,6.950262480E0,4.263052320E0,-7.200517462E0,1.087783137E1
1.046607158E1,4.420734769E0,3.966019027E0,-5.128401645E0,7.846827783E0
1.047609758E1,3.239883136E0,4.003373380E0,-3.413072401E0,6.178422482E0
1.048612458E1,2.745384108E0,3.694711145E0,-1.725736118E0,4.915911868E0
1.049615158E1,2.670913385E0,2.408960463E0,-6.030426461E-1,3.646989067E0
1.050617858E1,2.989686041E0,2.634085867E0,1.299434336E0,4.191081074E0
1.051620458E1,3.784778731E0,2.345678387E0,2.796663605E0,5.258144583E0
1.052623158E1,6.403099920E0,1.992410667E0,4.450306478E0,8.048267925E0
1.053625858E1,7.504541686E0,3.281258619E-1,6.151252155E0,9.708950282E0
1.054628558E1,7.320810476E0,-1.917347036E0,6.943945148E0,1.027077699E1
1.055631158E1,5.441787845E0,-3.515871423E0,6.958684809E0,9.507770564E0
1.056633858E1,3.577576212E0,-6.576824790E0,5.824150141E0,9.485483685E0
1.057636558E1,8.815116137E-1,-8.037289106E0,4.056944985E0,9.046208128E0
1.058639158E1,-2.111127271E0,-8.624461239E0,2.032160039E0,9.108669740E0
1.059641858E1,-4.029137966E0,-8.169856009E0,1.156123173E-1,9.110096935E0
1.060644558E1,-5.516303592E0,-7.500529912E0,-1.522156534E0,9.434220412E0
1.061647258E1,-5.959573410E0,-6.335079845E0,-2.552970952E0,9.064624236E0
1.062649858E1,-5.109967713E0,-4.538923662E0,-2.367606615E0,7.233198402E0
1.063652558E1,-3.803683364E0,-4.485550570E0,-1.979985918E0,6.205522966E0
1.064655258E1,-3.273610461E0,-4.842775978E0,-1.931181548E0,6.156173064E0
1.065657958E1,-3.566878147E0,-4.578914524E0,-2.074517854E0,6.163822049E0
1.066660558E1,-3.970569915E0,-4.117743748E0,-2.177852772E0,6.120807277E0
1.067663258E1,-3.919005659E0,-3.326785040E0,-2.373250347E0,5.662015654E0
1.068665958E1,-3.684803622E0,-2.827634552E0,-2.715802460E0,5.380416145E0
1.069668558E1,-3.559157191E0,-2.325800777E0,-3.048627144E0,5.231737439E0
1.070671258E1,-3.025631799E0,-2.112261923E0,-3.454399352E0,5.054599203E0
1.071673958E1,-2.301316731E0,-2.348503761E0,-3.887489752E0,5.091571975E0
1.072676658E1,-1.833473844E0,-2.545548497E0,-4.000842120E0,5.084110655E0
1.073679258E1,-1.337761665E0,-2.556849411E0,-3.506473485E0,4.541193839E0
1.074681958E1,-7.582875372E-1,-2.834123792E0,-2.859543977E0,4.096858481E0
1.075684658E1,8.835397205E-1,-3.989978578E0,-1.726272308E0,4.436280826E0
1.076687258E1,1.417485819E0,-4.578048844E0,-4.972823024E-1,4.818203706E0
1.077689958E1,6.525114061E-1,-3.874165117E0,-1.532917750E-1,3.931720343E0
1.078692658E1,-9.461087286E-3,-2.926653056E0,-7.245121193E-1,3.015013339E0
1.079695358E1,-5.040479694E-1,-2.342015106E0,-1.355140759E0,2.752363637E0
1.080697958E1,-9.192637230E-1,-1.731578071E0,-1.372018163E0,2.392873220E0
1.081700658E1,-8.985907459E-1,-1.610982757E0,-1.113391721E0,2.154616415E0
1.082703358E1,-6.588857482E-1,-2.136986582E0,-1.238136220E0,2.556134461E0
1.083706058E1,-2.255771014E-1,-2.371040100E0,-1.679002247E0,2.914063268E0
1.084708658E1,1.834300932E0,-2.137022250E0,1.269093719E0,3.089032676E0
1.085711358E1,3.605394341E0,-2.283402032E0,4.131592294E0,5.939936706E0
1.086714058E1,2.068062089E0,-1.724583632E0,1.981631910E0,3.343341821E0
1.087716758E1,1.877215841E0,-1.108109347E0,2.634132060E0,3.419136930E0
1.088719358E1,-1.831230998E-1,-8.196492416E-1,-4.522903168E-1,9.539001413E-1
1.089722058E1,-1.662913048E0,-9.031679463E-1,-1.450662628E0,2.384410662E0
1.090724758E1,-2.020768347E0,-1.297707068E0,-1.492711710E0,2.827673354E0
1.091727413E1,-1.425859324E0,-1.539417515E0,-1.196639115E0,2.415538505E0
1.092730113E1,-1.030180872E0,-1.498140850E0,-1.337508481E0,2.257128169E0
1.093732813E1,-9.449708605E-1,-1.328649949E0,-1.565877335E0,2.260586747E0
1.094735512E1,-5.398987104E-1,-1.303851323E0,-1.526098142E0,2.078579907E0
1.095738113E1,3.559317112E-1,-1.571884764E0,-9.264363563E-1,1.858976444E0
1.096740813E1,1.204853284E0,-1.407165191E0,-1.633899164E-1,1.859699324E0
1.097743513E1,1.851996946E0,-8.733711201E-1,-1.509090346E-1,2.053154485E0
1.098746113E1,1.844813349E0,-5.686715430E-1,-6.648564863E-1,2.041753600E0
1.099748812E1,1.601990908E0,-6.418266428E-1,-1.207180476E0,2.106086658E0
1.100751512E1,1.081592516E0,-6.487263572E-1,-1.513032539E0,1.969760321E0
1.101754213E1,3.077208334E-1,-6.691547745E-1,-1.465959529E0,1.640578424E0
1.102756813E1,-2.906794158E-1,-7.649210572E-1,-1.196915689E0,1.449898587E0
1.103759513E1,-1.576058507E-1,-7.787713569E-1,-4.140799320E-1,8.959836051E-1
1.104762213E1,3.887606111E-1,-7.639328778E-1,5.912441343E-1,1.041296250E0
1.105764912E1,1.707343116E-1,-7.220305610E-1,9.056249464E-1,1.170741167E0
1.106767512E1,-4.681798330E-1,-7.342348695E-1,3.138393599E-1,9.256286207E-1
1.107770213E1,-6.134691086E-1,-7.044386280E-1,-2.720615888E-1,9.729314652E-1
1.108772913E1,-4.520191522E-1,-6.219385082E-1,-5.422093838E-1,9.408080770E-1
1.109775513E1,-1.743913065E-1,-6.957198447E-1,-6.466979581E-1,9.657415178E-1
1.110778213E1,-8.768119141E-2,-5.604351550E-1,-3.905653542E-1,6.887066504E-1
1.111780912E1,-5.466854274E-3,-3.667356116E-1,5.329152346E-3,3.668150694E-1
1.112783612E1,1.283640714E-1,-3.825920910E-1,3.660216665E-1,5.448173118E-1
1.113786213E1,2.614211181E-1,-5.100444353E-1,9.456590778E-1,1.105783622E0
1.114788913E1,2.187061845E-1,-4.619721365E-1,1.253521999E0,1.353723772E0
1.115791613E1,5.528103858E-3,-3.668695128E-1,8.629613221E-1,9.377238627E-1
1.116794313E1,5.002059102E-2,-3.118132997E-1,2.993768567E-1,4.351506586E-1
1.117796912E1,7.841728686E-1,-4.647296834E-1,-6.445385814E-1,1.116391844E0
1.118799612E1,1.325933479E0,-1.535478830E-2,-2.468465238E0,2.802080653E0
1.119802313E1,9.420569006E-1,4.080824429E-1,-1.073082186E0,1.485095237E0
1.120804913E1,9.024915697E-1,1.010229295E-1,5.991232574E-2,9.101022758E-1
1.121807613E1,1.904398669E-1,-2.687865633E-1,9.202815771E-1,9.774618871E-1
1.122810313E1,-1.605708276E-1,-2.346037406E-1,1.186759075E0,1.220335613E0
1.123813012E1,1.146697462E-2,-1.123162419E-1,1.096223711E0,1.102022166E0
1.124815613E1,8.195752743E-1,6.297509730E-2,6.350596601E-1,1.038734935E0