"Time (s)","Linear Acceleration x (m/s^2)","Linear Acceleration y (m/s^2)","Linear Acceleration z (m/s^2)","Absolute acceleration (m/s^2)"
8.318958338E-3,-1.777722251E0,5.348851615E-1,-4.258378056E0,4.645447471E0
1.834595832E-2,-1.800445408E0,7.945529920E-1,-4.054238893E0,4.506636343E0
2.837295842E-2,-1.679156175E0,8.357372707E-1,-2.091230366E0,2.809139848E0
3.839895839E-2,-1.207335573E0,8.242480767E-1,6.615077859E-1,1.604567427E0
4.842595838E-2,-3.874032531E-1,8.075241628E-1,2.751879196E0,2.893961932E0
5.845295836E-2,4.425848890E-1,4.504651085E-1,3.071557585E0,3.135803915E0
6.847995834E-2,1.130781560E0,-3.043081060E-1,2.236898541E0,2.524873352E0
7.850595831E-2,1.613649087E0,-1.724459378E0,2.751154726E0,3.625806924E0
8.853295841E-2,1.720970491E0,-3.633910919E0,4.249723592E0,5.850401576E0
9.855995839E-2,2.525714741E0,-4.657182137E0,4.263242939E0,6.800280933E0
1.085859584E-1,3.261649396E0,-3.844656558E0,2.289588386E0,5.537323885E0
1.186129584E-1,3.268190092E0,-2.095183960E0,4.745494974E-1,3.911017710E0
1.286399583E-1,2.294411754E0,-7.692222691E-1,-8.813742042E-1,2.575431747E0
1.386659584E-1,8.666579318E-1,-5.580743417E-1,-1.972358226E0,2.225475210E0
1.486929584E-1,1.059249574E0,6.076800728E-1,-3.078435080E0,3.311804232E0
1.587199584E-1,7.415427196E-1,2.434406668E0,-3.841656352E0,4.608095589E0
1.687459584E-1,-1.637057245E0,3.157710168E0,-3.948338217E0,5.314175816E0
1.787729583E-1,-3.761737778E0,2.748355956E0,-3.648511124E0,5.917412018E0
1.887999583E-1,-3.819725785E0,1.778262387E0,-3.496199927E0,5.475028413E0
1.988269583E-1,-2.249861818E0,8.440759850E-1,-2.057349259E0,3.163388759E0
2.088529584E-1,3.601364440E-1,1.117847153E0,7.851337123E-1,1.412697938E0
2.188799584E-1,4.092594874E-1,7.313739730E-1,4.469687659E-1,9.498327717E-1
2.289069584E-1,-4.759835270E-1,-1.805609961E-1,-6.691693926E-1,8.408033464E-1
2.389329583E-1,-4.371194234E-1,-7.195492950E-1,-1.316119950E0,1.562368811E0
2.489599583E-1,-3.359172767E-1,-1.310296708E0,-1.736234209E0,2.200960497E0
2.589869584E-1,-6.617866981E-1,-1.141160733E0,-2.351374744E0,2.696140323E0
2.690129584E-1,-1.461496350E0,-7.690717033E-1,-2.319627287E0,2.847474954E0
2.790399584E-1,-2.414577298E0,-1.757800787E0,-1.817730947E0,3.496311332E0
2.890669584E-1,-2.955303828E0,-3.414498537E0,-2.038379138E0,4.954554519E0
2.990939583E-1,-3.221579012E0,-4.134732249E0,-2.600696511E0,5.851342106E0
3.091199583E-1,-3.577789636E0,-4.424912605E0,-2.546407453E0,6.234149593E0
3.191469584E-1,-3.142731648E0,-4.753626696E0,-1.831454946E0,5.985645847E0
3.291739584E-1,-2.971300641E0,-5.057320552E0,-1.282354034E0,6.004127792E0
3.391999584E-1,-4.095896212E0,-7.177816817E0,-1.869746608E0,8.473096979E0
3.492269584E-1,-5.628059086E0,-9.337126899E0,-2.519214392E0,1.118943381E1
3.592539583E-1,-5.488861440E0,-9.664650498E0,-2.566499655E0,1.140701493E1
3.692799584E-1,-6.460415497E0,-8.167041160E0,-1.023589014E0,1.046352064E1
3.793069584E-1,-6.076850429E0,-8.589260416E0,-1.439530699E0,1.061959294E1
3.893339584E-1,-2.682021341E0,-6.617358273E0,-2.889992183E0,7.702903596E0
3.993599584E-1,-2.315689187E0,-5.763922065E0,-2.599962101E0,6.733870872E0
4.093869583E-1,-2.834764062E0,-7.100422486E0,-1.883701280E0,7.874021671E0
4.194139583E-1,-2.491616703E0,-6.936033865E0,-7.301906428E-1,7.406071695E0
4.294409583E-1,-2.006741608E0,-5.649783247E0,3.292863880E-1,6.004622564E0
4.394669584E-1,-1.665852444E0,-4.447827843E0,1.769635697E-1,4.752846830E0
4.494939584E-1,-7.485184479E-1,-4.977374496E0,-2.018078774E-1,5.037386541E0
4.595209584E-1,9.034135294E-1,-5.604608828E0,1.699335355E-1,5.679495886E0
4.695469583E-1,2.775982003E0,-5.924935089E0,4.211526509E-1,6.556546457E0
4.795739583E-1,4.995343575E0,-5.861613252E0,9.879823210E-1,7.764539678E0
4.896009584E-1,4.941204205E0,-6.135593312E0,3.199088282E0,8.502656651E0
4.996269584E-1,5.879388202E0,-5.200869697E0,3.747948874E0,8.698469520E0
5.096539584E-1,7.235510709E0,-3.913683816E0,1.717000378E0,8.403429451E0
5.196809584E-1,6.088611519E0,-3.934586150E0,8.511936544E-1,7.299088233E0
5.297069583E-1,7.078774924E0,-3.847207114E0,1.375294358E0,8.173217945E0
5.397339583E-1,7.328356892E0,-4.162517048E0,8.952302049E-1,8.475423296E0
5.497609584E-1,7.139490073E0,-4.611281494E0,1.589156270E-2,8.499205143E0
5.597879584E-1,8.567412879E0,-4.170625382E0,-1.261665416E-1,9.529459456E0
5.698139584E-1,1.060998681E1,-3.153059000E0,-6.029028976E-1,1.108499405E1
5.798409584E-1,1.249190498E1,-1.762230930E0,-1.435102164E0,1.269695499E1
5.898679583E-1,1.314762227E1,-3.232545465E-1,-1.988419650E0,1.330106302E1
5.998939584E-1,1.316150122E1,-9.893488884E-3,-2.713540757E0,1.343832265E1
6.099209584E-1,1.308735034E1,3.397495419E-1,-3.986088718E0,1.368514055E1
6.199479584E-1,1.414329083E1,1.352690191E0,-7.367077739E0,1.600425820E1
6.299739584E-1,1.512136979E1,2.002666098E0,-1.431838804E1,2.092086834E1
6.400009583E-1,1.334786134E1,3.034546464E0,-1.535790136E1,2.057277348E1
6.500279583E-1,6.625146180E0,3.340787367E0,5.701824635E-1,7.441675227E0
6.600549583E-1,7.204412878E0,-2.431517851E-1,-3.150142994E0,7.866771166E0
6.700809584E-1,6.555773059E0,-3.547411596E0,7.870603698E-1,7.495448850E0
6.801082083E-1,5.794066801E0,-4.054083357E0,4.579017143E0,8.424618683E0
6.901352084E-1,3.529405096E0,-1.938495246E0,1.694805809E0,4.368847774E0
7.001612084E-1,3.113578016E0,-1.107588944E0,-1.719673432E0,3.725372202E0
7.101882084E-1,2.522378320E0,1.413388968E-1,-3.550700070E0,4.357733363E0
7.202152084E-1,1.789634491E0,2.817896014E-1,-1.182448800E0,2.163419089E0
7.302412083E-1,5.733194947E-1,5.764015621E-1,7.729188788E-1,1.121756478E0
7.402682083E-1,-1.204517654E0,1.237454435E0,-3.446272892E-1,1.760944129E0
7.502952084E-1,-2.630765818E0,8.851737249E-1,-4.219350815E-2,2.776011816E0
7.603222084E-1,-3.278819745E0,1.999402183E0,-9.407190576E-1,3.953886740E0
7.703482084E-1,-1.619412103E0,2.095922756E0,6.888961440E-1,2.736780162E0
7.803752084E-1,-3.546096557E-1,1.132802138E0,4.877481834E0,5.019842401E0
7.904022083E-1,-1.006730906E0,2.859811195E0,6.343314478E0,7.030623426E0
8.004282083E-1,-3.068577844E0,6.453563145E0,-7.751894696E0,1.054307918E1
8.104552084E-1,-2.069563508E0,5.166464095E0,-8.227931725E0,9.933494090E0
8.204822084E-1,-2.197543271E0,4.170226017E0,-1.468502191E0,4.937254313E0
8.305082084E-1,-2.547245944E0,3.693757464E0,-1.872816396E-1,4.490810674E0
8.405352084E-1,-6.517768496E-1,1.272210284E0,2.432158414E0,2.821121518E0
8.505622083E-1,-1.850765376E0,1.121816390E0,-5.151496392E-1,2.224676075E0
8.605882084E-1,-3.097375966E0,2.326726391E0,-2.611118004E0,4.671758855E0
8.706152084E-1,-2.162777481E0,2.869701176E0,-2.653443074E-1,3.603220625E0
8.806422084E-1,-1.366175040E0,4.011254257E0,-3.427614427E-1,4.251362177E0
8.906692084E-1,-1.188191058E0,3.159696175E0,-6.205679208E-1,3.432285310E0
9.006952083E-1,-7.155582780E-1,1.535492279E0,-9.606580630E-1,1.947466072E0
9.107222083E-1,-6.292650694E-1,1.120272140E0,-5.652877593E-1,1.403757260E0
9.207492084E-1,-1.345663592E0,9.574447256E-1,-5.429543191E-1,1.738479306E0
9.307752084E-1,-1.973581463E0,7.716196275E-1,-7.086942315E-1,2.234427926E0
9.408022084E-1,-1.594749132E0,3.384713405E-1,4.017446458E-2,1.630767190E0
9.508292084E-1,-1.633436065E0,2.937915963E-1,-6.537923849E-1,1.783780077E0
9.608552083E-1,-1.641192396E0,1.101618937E0,-9.565251048E-1,2.195909160E0
9.708822083E-1,-4.033112903E0,1.530208735E0,-1.988100684E0,4.749745550E0
9.809092084E-1,-5.249930175E0,1.983277901E0,-4.734870583E-2,5.612254447E0
9.909362084E-1,-2.130241819E0,8.781412786E-1,2.937699324E0,3.733515720E0
1.000962208E0,-8.819823146E-2,1.585623382E0,2.091895779E0,2.626405983E0
1.010989208E0,-6.700967610E-2,4.067395129E0,-1.391935533E-1,4.070327785E0
1.021016208E0,-7.907639962E-1,3.718326294E0,-7.919810942E-1,3.883103422E0
1.031042208E0,5.645673823E-1,1.857438803E0,5.403821290E-1,2.015149643E0
1.041069208E0,-7.831105757E-1,-1.223472573E0,9.354328823E-1,1.727767920E0
1.051096208E0,-1.789016440E0,-4.069410664E0,-1.236934032E0,4.614183435E0
1.061122208E0,-4.610471070E-1,-2.577677777E0,-2.026183161E0,3.310952335E0
1.071149208E0,-4.545543587E-1,-7.218615764E-1,-2.984375600E0,3.103901016E0
1.081176208E0,2.080784315E-1,-8.404436946E-2,-4.198476255E0,4.204469402E0
1.091202208E0,4.022168670E0,-1.766697033E0,1.474481261E0,4.633913487E0
1.101229208E0,3.152836806E0,-3.344459419E0,-4.123615815E-1,4.614740600E0
1.111256208E0,3.187206155E0,-3.247623680E0,-2.129503316E0,5.023955316E0
1.121283208E0,6.009909166E0,-3.694409428E0,-1.488053234E0,7.209852400E0
1.131309208E0,3.055650235E0,-3.186714404E0,-8.052341008E-1,4.487822301E0
1.141336208E0,-7.626874208E-1,-2.045226227E0,-7.340009809E-1,2.302911171E0
1.151363208E0,3.800975518E0,-1.715340938E0,3.600727093E-1,4.185625614E0
1.161389208E0,4.066156396E0,5.106841207E-2,6.299556255E-1,4.114982370E0
1.171416208E0,1.607616807E0,2.068090010E0,7.089456618E-1,2.713675006E0
1.181443208E0,3.538290524E-1,2.938922269E0,5.353359818E-1,3.008162847E0
1.191469208E0,2.550818300E0,2.904575724E0,1.382951871E0,4.105580350E0
1.201496208E0,1.863645330E0,1.382440240E0,3.030236481E0,3.816627840E0
1.211523208E0,-2.306210850E0,1.211786912E0,2.964187503E0,3.946320256E0
1.221550208E0,-5.074373372E0,1.038521633E0,2.808956791E0,5.892200825E0
1.231576208E0,-4.241208876E0,1.172450354E0,2.131852727E0,4.889508013E0
1.241603208E0,-1.823970803E0,1.484778793E0,4.597117491E-3,2.351905331E0
1.251630208E0,-6.697625926E-1,9.961053461E-1,-8.592296290E-1,1.476171855E0
1.261656208E0,7.920696795E-1,5.802402592E-1,8.048341513E-2,9.851551734E-1
1.271683208E0,1.686717648E0,1.051790720E0,5.984682962E-1,2.075920144E0
1.281710208E0,4.101049948E-1,2.992088662E0,9.187110150E-1,3.156708823E0
1.291736208E0,-5.369197002E-1,2.793547624E0,9.494112360E-1,2.998928606E0
1.301763208E0,-6.665828767E-1,3.025837621E0,-1.429582247E0,3.412291230E0
1.311790208E0,-7.365883738E-2,3.188286136E0,-1.636715183E0,3.584610258E0
1.321816208E0,9.634018689E-1,3.251771110E0,-1.350129111E0,3.650343426E0
1.331843208E0,1.836628270E0,3.473654233E0,-8.035653055E-1,4.010635154E0
1.341870208E0,2.166088759E0,3.805354498E0,8.895334089E-1,4.468101728E0
1.351897208E0,1.855927298E0,3.894837363E0,2.762340449E0,5.122962910E0
1.361923208E0,1.271918508E0,3.616725075E0,3.314986528E0,5.068294846E0
1.371950208E0,2.585893115E-1,3.489663325E0,2.888581250E0,4.537457459E0
1.381977208E0,-1.105405302E0,3.353428463E0,1.445104850E0,3.815197421E0
1.392003208E0,-2.210621738E0,2.395496079E0,-4.033400002E0,5.185900646E0
1.402030208E0,-2.479071210E0,1.900747375E0,-5.840952115E0,6.623847542E0
1.412057208E0,-3.133606191E0,3.041597621E0,-9.588556588E-2,4.368065692E0
1.422083208E0,-3.865115673E0,3.301715103E0,2.026609277E0,5.472438848E0
1.432110208E0,-4.132868449E0,3.176277124E0,1.088661361E0,5.324896388E0
1.442137208E0,-3.919774568E0,3.231070213E0,6.975359899E-1,5.127475387E0
1.452163208E0,-3.528245885E0,3.493535936E0,8.137177529E-1,5.031446009E0
1.462190208E0,-3.366118967E0,3.445164260E0,9.169801661E-1,4.903138414E0
1.472217208E0,-2.963520628E0,3.780562888E0,8.585103484E-1,4.879769491E0
1.482244208E0,-2.767352098E0,5.006760848E0,1.618257862E0,5.945136696E0
1.492270208E0,-4.490090056E0,5.344912931E0,1.469815329E0,7.133677877E0
1.502297208E0,-6.031111754E0,4.655778220E0,-1.070804111E0,7.693971749E0
1.512324208E0,-6.078607517E0,4.964629905E0,1.331129314E0,7.960460081E0
1.522350208E0,-4.667032356E0,4.744805002E0,4.137520201E0,7.836672696E0
1.532377208E0,-5.716009980E-1,-1.389216929E1,2.423780085E0,1.411360355E1
1.542404208E0,1.240486654E0,-5.309915474E1,-3.961819849E0,5.326119655E1
1.552430208E0,7.934761688E0,-5.104451800E1,-1.898331306E0,5.169242617E1
1.562457208E0,9.225947941E0,-2.430549552E1,1.185030638E0,2.602459463E1
1.572484208E0,5.228467385E0,-5.823934963E0,2.574515018E0,8.239127213E0
1.582510208E0,3.582364205E0,4.462676847E0,4.151868684E0,7.070136597E0
1.592537208E0,2.559628007E0,9.391422390E0,3.240682451E0,1.025926570E1
1.602564208E0,2.262485957E0,1.048893424E1,-1.478519495E0,1.083155594E1
1.612591208E0,2.498042209E0,9.997751756E0,-5.450148779E0,1.165758881E1
1.622617208E0,1.499610840E0,8.041495593E0,-3.524681715E0,8.907180543E0
1.632644208E0,5.009150313E-1,6.327134063E0,-1.960263699E0,6.642753577E0
1.642671208E0,4.961230188E-1,2.041589259E0,-1.729017429E0,2.720978872E0
1.652697208E0,6.939205103E-1,-4.562944901E0,-1.689645934E0,4.914966452E0
1.662724208E0,8.839802351E-1,-7.184054042E0,-1.220834309E0,7.340469327E0
1.672751208E0,1.687315526E0,-7.120361491E0,-1.138469114E0,7.405585282E0
1.682776958E0,1.583976660E0,-4.429219664E0,-1.550400779E0,4.952848823E0
1.692803958E0,-1.828343935E-1,-1.885748683E0,-2.210634602E0,2.911422651E0
1.702830958E0,-1.335774635E0,-1.664918643E-1,-2.366412613E0,2.722484540E0
1.712857958E0,-1.799675037E0,4.416325969E-1,-2.266802956E0,2.927843102E0
1.722883958E0,-1.631629567E0,3.225283223E-1,-2.340204223E0,2.871026884E0
1.732910958E0,-1.388923486E0,8.881394327E-2,-2.519371097E0,2.878233328E0
1.742937958E0,-1.156341421E0,-2.092712635E-1,-2.707788266E0,2.951785432E0
1.752963958E0,-7.703406952E-1,-5.735586458E-1,-3.117467583E0,3.262054328E0
1.762990958E0,-4.875517315E-1,-1.024386574E0,-3.923785173E0,4.084502984E0
1.773017958E0,-6.971804061E-1,-1.606505544E0,-4.575125236E0,4.898845936E0
1.783043958E0,-1.355962439E0,-2.206531611E0,-4.713355168E0,5.378023134E0
1.793070958E0,-1.925173680E0,-2.771305985E0,-4.310708882E0,5.474362212E0
1.803097958E0,-1.734212826E0,-3.342756125E0,-3.703863791E0,5.282056382E0
1.813123958E0,-1.030806524E0,-3.797294696E0,-4.744344242E0,6.163668663E0
1.823150958E0,-1.052600413E0,-3.537571902E0,-4.514734608E0,5.831398732E0
1.833177958E0,-1.727215464E0,-3.776376282E0,-1.392626967E0,4.379920199E0
1.843203958E0,-1.519421645E0,-4.281775104E0,1.123370872E0,4.680192549E0
1.853230958E0,-2.187321754E0,-4.323133045E0,4.837989154E-1,4.869077651E0
1.863257958E0,-7.571908920E-1,-3.858056037E0,3.179689559E-1,3.944494732E0
1.873284958E0,5.611565553E-1,-3.494893075E0,-7.912583783E-1,3.627018625E0
1.883310958E0,1.513294202E0,-3.454775913E0,-1.073214918E0,3.921393401E0
1.893337958E0,1.938753400E0,-3.779229723E0,-1.176184970E-1,4.249138284E0
1.903364958E0,1.902728120E0,-3.826352434E0,4.354439038E-1,4.295457908E0
1.913390958E0,1.609425643E0,-3.279278752E0,-4.013938129E-2,3.653153597E0
1.923417958E0,1.354885236E0,-2.396978348E0,-9.661123458E-1,2.917977428E0
1.933444958E0,1.611432992E0,-1.658463317E0,-1.223214710E0,2.616002884E0
1.943470958E0,2.195169886E0,-9.079924840E-1,-2.902119309E-1,2.393207919E0
1.953497958E0,2.710439394E0,-1.885557479E-1,1.121873692E0,2.939495800E0
1.963524958E0,2.401571336E0,3.675407732E-1,1.431143453E0,2.819716774E0
1.973550958E0,1.980204604E0,7.070745528E-1,1.402989110E0,2.527754565E0
1.983577958E0,1.656586946E0,7.753138983E-1,2.005038899E0,2.713958904E0
1.993604958E0,1.259233266E0,8.606686288E-1,2.975709441E0,3.343839946E0
2.003631958E0,8.231452918E-1,1.390091906E0,3.481288358E0,3.837876016E0
2.013657958E0,4.237629211E-1,2.069854699E0,3.132793136E0,3.778659328E0
2.023684958E0,4.095600343E-1,2.637823992E0,2.352459403E0,3.558078143E0
2.033711958E0,7.050420606E-1,2.874950806E0,2.024676772E0,3.586327157E0
2.043737958E0,1.523561035E0,2.726922694E0,2.536956013E0,4.024113744E0
2.053764958E0,2.012254947E0,2.630184020E0,3.303481547E0,4.677609248E0
2.063791958E0,2.067011783E0,2.837461383E0,3.291505280E0,4.812248104E0
2.073817958E0,1.621398987E0,3.078093018E0,2.892343349E0,4.524294569E0
2.083844958E0,1.358166109E0,2.963077117E0,2.785868475E0,4.287832126E0
2.093871958E0,1.542771478E0,2.634112179E0,3.225975534E0,4.441352153E0
2.103897958E0,2.197576016E0,2.327678903E0,3.511099218E0,4.751341614E0
2.113924958E0,2.951624175E0,2.148269954E0,3.612950113E0,5.136200696E0
2.123951958E0,3.358187512E0,2.215453293E0,3.488064111E0,5.324682892E0
2.133978958E0,3.464148415E0,2.507991538E0,3.148961272E0,5.310960637E0
2.144004958E0,2.901756781E0,2.971839754E0,2.919982553E0,5.077235670E0
2.154031958E0,2.591338627E0,3.234778517E0,2.967558423E0,5.097571081E0
2.164058958E0,2.288740540E0,3.339584595E0,3.039432982E0,5.062540012E0
2.174084958E0,1.872610574E0,3.469565860E0,2.941101526E0,4.918804306E0
2.184111958E0,1.319089167E0,3.612138519E0,2.667688061E0,4.680181674E0
2.194138958E0,7.755548036E-1,3.620604703E0,2.545174860E0,4.493125720E0
2.204164958E0,4.006810373E-1,3.585535442E0,2.225332748E0,4.238952175E0
2.214191958E0,-3.929562807E-2,3.469631349E0,1.866016084E0,3.939784495E0
2.224218958E0,-2.876455879E-1,3.363143612E0,1.750299686E0,3.802239331E0
2.234244958E0,-5.251004308E-1,3.251986288E0,2.168774970E0,3.943948548E0
2.244271958E0,-6.161515188E-1,3.346840990E0,2.829297500E0,4.425597321E0
2.254298958E0,-1.372727430E-1,3.774229184E0,3.437160591E0,5.106635161E0
2.264325958E0,4.685531777E-1,4.261614490E0,3.533644327E0,5.555856583E0
2.274351958E0,6.962057483E-1,4.644212428E0,3.193059803E0,5.678824035E0
2.284378958E0,6.492409122E-1,4.877968907E0,2.408081626E0,5.478590287E0
2.294405958E0,5.750868157E-1,4.974877151E0,1.978594281E0,5.384697098E0
2.304431958E0,7.645772409E-1,4.966357173E0,2.391069737E0,5.564754838E0
2.314458958E0,1.003243627E0,4.838835831E0,2.791447304E0,5.675650450E0
2.324485958E0,1.181965235E0,4.491502451E0,2.240279401E0,5.156499576E0
2.334511958E0,1.512957110E0,3.980854583E0,1.801677416E0,4.624098175E0
2.344538958E0,1.864084164E0,3.507122526E0,1.876152525E0,4.392569462E0
2.354565958E0,1.116603889E0,2.897097135E0,-2.377971389E0,3.910846965E0
2.364591958E0,-8.173587703E0,2.310562348E-1,-2.905635123E1,3.018497092E1
2.374618958E0,-2.745331600E1,-2.417517746E1,-5.523126474E1,6.624663290E1
2.384645958E0,-1.421615649E1,-4.912730955E1,1.784515253E1,5.416678980E1
2.394672958E0,-4.551964122E0,-4.582291233E1,-3.112794489E0,4.615353899E1
2.404698958E0,4.657529169E0,-3.276159847E1,1.711345068E1,3.725433003E1
2.414725958E0,2.175804200E0,-7.570457348E0,2.324795173E1,2.454614446E1
2.424752958E0,-2.718999133E-1,6.451210810E0,9.589954657E0,1.156111071E1
2.434778958E0,-3.175637439E-2,1.396073257E1,-1.571400323E0,1.404892741E1
2.444805958E0,2.157825767E-1,1.876119605E1,-2.246429619E1,2.926898773E1
2.454832958E0,5.171569884E-2,1.646986051E1,-1.343697407E1,2.125585219E1
2.464858958E0,2.326968905E0,1.216217113E1,7.854420944E0,1.466373484E1
2.474885958E0,4.515220804E0,7.994857616E0,1.607391631E1,1.851150325E1
2.484912958E0,4.192134365E0,6.008318138E0,1.485010343E1,1.655896884E1
2.494938958E0,2.713229100E0,4.103439705E0,9.777554970E0,1.094533740E1
2.504965958E0,-9.932832605E-1,-1.865671098E0,7.013808850E0,7.325356979E0
2.514992958E0,-3.253210402E0,-5.747892509E0,3.957754573E0,7.699705674E0
2.525019958E0,1.228416247E0,-6.809175598E0,-8.116383222E0,1.066534366E1
2.535045958E0,5.232160487E0,-5.481986868E0,-1.016026810E1,1.267512253E1
2.545072958E0,4.498904441E0,-3.179148692E0,-1.276964071E0,5.654888576E0
2.555099958E0,2.843124119E0,-1.249766917E0,2.287877198E0,3.857415479E0
2.565125958E0,1.110527901E0,-1.880751067E-1,1.483764886E0,1.862848008E0
2.575152958E0,6.858882632E-1,3.630559587E-1,1.352193032E0,1.559063287E0
2.585179958E0,1.234334068E0,3.503517133E-1,7.951418066E-1,1.509495746E0
2.595205958E0,1.963043319E0,5.345121092E-1,-1.131333318E0,2.327908362E0
2.605232958E0,2.298500712E0,4.448023725E-1,-2.301568307E0,3.283012541E0
2.615259958E0,1.932831048E0,9.397878885E-2,-1.914323441E0,2.722003326E0
2.625285958E0,4.682472222E-1,2.658500916E-1,-8.242480036E-1,9.845387263E-1
2.635312958E0,-4.247904231E-1,2.669236404E-1,4.665259480E-2,5.038567236E-1
2.645339958E0,-2.114272415E-1,7.954762673E-1,-3.178932710E-1,8.823491951E-1
2.655366958E0,6.706417215E-1,1.087038320E0,-1.176379098E0,1.736456279E0
2.665392958E0,1.011635770E0,8.816683191E-1,-1.102414159E0,1.736681587E0
2.675419958E0,8.452415543E-1,6.991182464E-1,-9.073750180E-1,1.423562092E0
2.685447208E0,5.617458084E-1,6.977301174E-1,-1.468032367E0,1.719739719E0
2.695473208E0,5.649274612E-2,9.420887679E-1,-2.338381062E0,2.521655937E0
2.705500208E0,-4.721940196E-1,1.292391949E0,-2.950859944E0,3.255889825E0
2.715527208E0,-9.063089975E-1,1.612138751E0,-3.620186042E0,4.065234843E0
2.725553208E0,-1.033492151E0,1.526650119E0,-3.849875783E0,4.268525525E0
2.735580208E0,-7.453391705E-1,9.218527240E-1,-3.429566227E0,3.628672957E0
2.745607208E0,-1.868819093E-1,3.286421710E-1,-2.796376507E0,2.821817161E0
2.755633208E0,5.017695288E-1,-1.140323997E-2,-2.384722584E0,2.436966249E0
2.765660208E0,9.580263774E-1,-2.072767782E-1,-1.971202816E0,2.201458322E0
2.775687208E0,1.278569131E0,-2.915889502E-2,-1.547263893E0,2.007390052E0
2.785713208E0,1.805876009E0,1.800322616E-1,-9.347182064E-1,2.041396067E0
2.795740208E0,2.386404244E0,6.246375829E-1,-4.676129454E-1,2.510728817E0
2.805767208E0,2.746121442E0,1.318125545E0,6.655417800E-2,3.046812660E0
2.815794208E0,2.680869147E0,1.794258469E0,-3.418527853E-1,3.243961492E0
2.825820208E0,2.367932012E0,1.713200857E0,-1.546725511E0,3.306738423E0
2.835847208E0,1.680864877E0,1.189875056E0,-2.338074083E0,3.115718184E0
2.845874208E0,8.293180512E-1,1.292059243E-1,-2.316357524E0,2.463731880E0
2.855900208E0,6.164620791E-2,-9.965783858E-1,-3.049467974E0,3.208772921E0
2.865927208E0,-7.925549984E-1,-1.908421846E0,-4.137156504E0,4.624530388E0
2.875954208E0,-1.540882242E0,-2.401726872E0,-5.146794062E0,5.884904346E0
2.885980208E0,-1.789563447E0,-2.529699619E0,-6.108828267E0,6.849795638E0
2.896007208E0,-1.562252938E0,-2.467749538E0,-7.116490050E0,7.692519266E0
2.906034208E0,-7.780568272E-1,-2.501568080E0,-7.884916513E0,8.308737792E0
2.916060208E0,1.212017731E0,-3.025948718E0,-8.152721329E0,8.780217406E0
2.926087208E0,3.955432643E0,-4.889293794E0,-6.411816949E0,8.981204696E0
2.936114208E0,5.079442908E0,-6.340270418E0,-3.133135198E0,8.707255905E0
2.946141208E0,5.551670476E0,-6.079279947E0,-1.291108485E0,8.333405719E0
2.956167208E0,6.602729124E0,-7.313320193E0,-6.720456380E-1,9.875845760E0
2.966194208E0,6.898391245E0,-9.053584303E0,-4.616832840E-1,1.139159084E1
2.976221208E0,5.438292965E0,-8.354242693E0,-5.623711681E-1,9.984220684E0
2.986247208E0,9.942411806E-1,-5.729722286E0,-2.587546123E0,6.365031653E0
2.996274208E0,-4.862028812E0,-3.639141546E0,-9.614820526E0,1.137222270E1
3.006301208E0,-5.702452626E0,-3.422642539E0,-7.668813947E0,1.015101745E1
3.016327208E0,-4.012900248E0,-4.407820609E0,-1.302976579E0,6.101639033E0
3.026354208E0,-3.177177888E0,-5.608651593E0,2.001189677E0,6.749532735E0
3.036381208E0,-2.236528851E0,-5.514076388E0,3.090803111E0,6.705234044E0
3.046407208E0,-1.171163820E0,-5.108024098E0,1.984095926E0,5.603585596E0
3.056434208E0,-3.829027243E-1,-4.647007397E0,4.755410390E-1,4.686942663E0
3.066461208E0,6.463055369E-2,-4.155550091E0,-5.253021598E-2,4.156384617E0
3.076487208E0,-7.045807153E-1,-3.340440043E0,3.971109028E0,5.236857892E0
3.086514208E0,-1.290300400E0,-2.658802047E0,4.800362906E0,5.637161297E0
3.096541208E0,-2.871823715E0,-1.234215077E0,1.553608707E0,3.490610021E0
3.106568208E0,-2.131563436E0,2.094361550E-1,1.414661760E0,2.566845161E0
3.116594208E0,-5.756067793E-1,7.826439679E-1,1.877098897E0,2.113611840E0
3.126621208E0,5.429362658E-1,7.212832868E-1,1.302986519E0,1.585182399E0
3.136648208E0,1.804467123E0,4.563523775E-1,7.056884703E-1,1.990566579E0
3.146674208E0,2.896302499E0,2.030650288E-1,4.721576938E-1,2.941553409E0
3.156701208E0,3.665259012E0,-5.343700218E-1,1.425596200E0,3.968878868E0
3.166728208E0,4.007378138E0,-1.165716115E0,1.963016129E0,4.612093443E0
3.176754208E0,3.470518956E0,-1.023031189E0,3.239914126E0,4.856762109E0
3.186781208E0,2.693762257E0,-3.793737835E-1,3.730651348E0,4.617146202E0
3.196808208E0,2.306770429E0,5.721079516E-1,3.743450611E0,4.434176338E0
3.206834208E0,2.216476263E0,1.209152741E0,4.092974358E0,4.809080627E0
3.216861208E0,2.104957581E0,1.311639229E0,4.345378777E0,5.003354935E0
3.226888208E0,2.137114052E0,1.212348245E0,4.782535331E0,5.376773096E0
3.236915208E0,1.970041559E0,1.261639688E0,5.038073273E0,5.554725983E0
3.246941208E0,1.985269462E0,1.235992046E0,5.214334080E0,5.714739808E0
3.256968208E0,2.149032431E0,1.742035816E0,5.379781632E0,6.049386711E0
3.266995208E0,1.412648418E0,2.489851429E0,5.437628721E0,6.145139689E0
3.277021208E0,6.474893788E-1,3.132469785E0,4.811011271E0,5.777321083E0
3.287048208E0,6.616378865E-1,4.101363943E0,4.663145712E0,6.245308545E0
3.297075208E0,1.025275936E0,5.179945436E0,4.924152555E0,7.220131844E0
3.307101208E0,1.212292112E0,6.167655934E0,5.219411802E0,8.170183073E0
3.317128208E0,-2.610366637E-1,5.860126305E0,4.998843718E0,7.706987671E0
3.327155208E0,-3.336163974E-1,5.301715456E0,4.356989009E0,6.870432293E0
3.337181208E0,3.885352010E-1,4.571922716E0,4.042285430E0,6.115023174E0
3.347208208E0,8.818732640E-1,3.930715878E0,3.755227488E0,5.507264407E0
3.357235208E0,7.731083286E-1,3.828687812E0,3.332383749E0,5.134328418E0
3.367262208E0,6.381686246E-1,4.132875173E0,3.189863130E0,5.259576331E0
3.377288208E0,6.168224868E-1,4.908434654E0,3.392214798E0,5.998359940E0
3.387315208E0,9.350224078E-2,6.231854854E0,3.889193630E0,7.346467497E0
3.397342208E0,-3.870938623E-1,7.629044695E0,3.876288825E0,8.566083100E0
3.407368208E0,-2.375454748E-1,8.676885620E0,3.694707636E0,9.433749861E0
3.417395208E0,4.238558918E-1,9.263236220E0,3.387638767E0,9.872350050E0
3.427422208E0,8.711915705E-1,9.256602554E0,8.000546372E-1,9.331867606E0
3.437448208E0,-2.708700724E0,7.755918165E0,-1.089383054E1,1.364429808E1
3.447475208E0,-1.722346955E1,4.187389934E-1,-4.640769470E1,4.950249866E1
3.457502208E0,-1.012896444E1,-2.548420766E1,-3.220016987E1,4.229529171E1
3.467528208E0,-2.174495009E0,-5.530184298E1,-6.893536887E0,5.577224324E1
3.477555208E0,8.729662004E-1,-4.783152446E1,2.825543471E1,5.556065508E1
3.487582208E0,5.421387495E0,-1.206975238E1,4.730704325E1,4.912256819E1
3.497608208E0,-1.285106026E0,6.328944361E0,1.415891459E1,1.556219446E1
3.507635208E0,-7.660716723E0,1.697425537E1,-1.169458099E1,2.199034221E1
3.517662208E0,-2.231446305E0,2.052476541E1,-1.998461833E1,2.873378356E1
3.527689208E0,6.755154927E0,1.399674440E1,5.990297604E0,1.665606908E1
3.537715208E0,5.959139546E0,5.111552893E0,2.163420909E1,2.301474136E1
3.547742208E0,2.807921834E0,1.340825021E-2,1.623706532E1,1.647807316E1
3.557769208E0,1.426716526E0,-5.574625475E0,4.954068080E0,7.593073144E0
3.567795208E0,8.756895411E-1,-9.754757261E0,-1.509824756E0,9.909676694E0
3.577822208E0,3.214813784E-1,-9.131642293E0,1.161417242E0,9.210815993E0
3.587849208E0,1.957874234E0,-7.340024427E0,1.162589024E0,7.685105291E0
3.597875208E0,3.349510244E0,-5.431753439E0,-3.806698188E-1,6.392814232E0
3.607902208E0,3.261033685E0,-3.972686023E0,-1.169232631E0,5.271022659E0
3.617929208E0,1.521716677E0,-3.666355072E0,-2.663076362E-1,3.978529995E0
3.627955208E0,6.929674141E-1,-2.935353713E0,8.502880669E-1,3.133607355E0
3.637982208E0,1.630420948E0,-1.593440525E0,1.332384273E0,2.640563013E0
3.648009208E0,3.038626066E0,-5.317639178E-1,2.311998425E0,3.855043184E0
3.658035208E0,3.109760661E0,4.208106619E-1,3.475418923E0,4.682545213E0
3.668062208E0,2.675279501E0,1.472128342E0,3.187863382E0,4.414380501E0
3.678089208E0,2.609610007E0,2.355893472E0,1.369833058E0,3.773160618E0
3.688115583E0,2.488879329E0,2.962657287E0,-8.752825749E-1,3.967112060E0
3.698141583E0,2.394260270E0,3.505907475E0,-2.150843314E0,4.759201238E0
3.708168583E0,1.820836403E0,3.846575614E0,-3.458645600E0,5.483960116E0
3.718195583E0,4.685565033E-1,3.795987843E0,-2.568567231E0,4.607234151E0
3.728221583E0,-5.771291384E-1,3.452346979E0,-1.002662998E0,3.641031557E0
3.738248583E0,-1.651535828E0,3.123547518E0,-4.439498484E-2,3.533566273E0
3.748275583E0,-2.033895200E0,2.931599216E0,-3.512491147E-1,3.585300488E0
3.758301583E0,-1.767006789E0,2.861014552E0,-1.038487135E0,3.519399493E0
3.768328583E0,-1.612584163E0,2.536225696E0,-2.007188774E0,3.614093972E0
3.778355583E0,-1.700675390E0,1.962168868E0,-3.174329417E0,4.101069457E0
3.788381583E0,-1.790284555E0,1.387855931E0,-3.824653818E0,4.445136635E0
3.798408583E0,-1.431547496E0,8.219811112E-1,-2.921881143E0,3.355945559E0
3.808435583E0,-4.181330757E-1,-9.476933241E-2,-1.458417791E0,1.520131227E0
3.818461583E0,1.012820562E0,-1.022361683E0,-2.811050387E-1,1.466304520E0
3.828488583E0,2.635703791E0,-1.525784147E0,-5.019051111E-1,3.086561271E0
3.838515583E0,3.302251000E0,-1.193379292E0,-1.702833744E0,3.902391390E0
3.848542583E0,3.119974577E0,-1.072081143E-1,-3.474417295E0,4.670900393E0
3.858568583E0,2.534535851E0,7.819154048E-1,-4.228440604E0,4.991490120E0
3.868595583E0,1.480513834E0,8.710462672E-1,-3.715468760E0,4.093330053E0
3.878622583E0,5.488586182E-1,3.402371997E-1,-3.294452861E0,3.357145631E0
3.888648583E0,-1.666149848E-1,-1.197660624E0,-3.672282687E0,3.866239990E0
3.898675583E0,1.551041926E-1,-2.869021145E0,-4.750481772E0,5.551794007E0
3.908702583E0,1.371563980E0,-3.715983315E0,-5.637751431E0,6.890135046E0
3.918728583E0,1.481668366E0,-4.292311202E0,-6.015222530E0,7.536722013E0
3.928755583E0,1.190744172E0,-4.630460946E0,-6.858462363E0,8.360475240E0
3.938782583E0,1.145137571E0,-4.245872031E0,-8.444920143E0,9.521315329E0
3.948808583E0,1.585829497E0,-3.638667337E0,-9.272402315E0,1.008623814E1
3.958835583E0,3.927482952E0,-4.320465546E0,-7.678467116E0,9.646263635E0
3.968862583E0,6.958164992E0,-6.546729171E0,-4.362796463E0,1.050284323E1
3.978889583E0,8.926911977E0,-8.347255270E0,-1.337369902E0,1.229451041E1
3.988915583E0,1.064461870E1,-8.046524783E0,1.469946161E-1,1.334451482E1
3.998942583E0,1.127194659E1,-9.117043549E0,1.580701489E0,1.458341113E1
4.008969583E0,7.557680597E0,-9.358187401E0,2.897115262E0,1.237285271E1
4.018995583E0,1.946734265E0,-7.525505708E0,3.667741739E0,8.595076494E0
4.029022583E0,-2.563336604E0,-5.106017334E0,9.021967238E-1,5.784121929E0
4.039049583E0,-7.902269880E0,-4.313388661E0,-1.209067957E1,1.507433990E1
4.049075583E0,-6.994414220E0,-5.164450899E0,-7.644612322E0,1.157728297E1
4.059102583E0,-3.942145723E0,-5.859632215E0,2.119849563E0,7.373572049E0
4.069129583E0,-3.254664897E0,-7.073608325E0,4.028707611E0,8.766941504E0
4.079155583E0,-3.223868490E0,-7.765143902E0,3.457413007E0,9.090901636E0
4.089182583E0,-2.751112626E0,-8.193976943E0,6.409144771E-1,8.667216981E0
4.099209583E0,-4.355814303E0,-7.484560581E0,-4.914654922E-1,8.673713372E0
4.109235583E0,-5.360408637E0,-5.658196805E0,1.058330684E0,7.865699948E0
4.119262583E0,-4.402772123E0,-3.843691767E0,2.221871928E0,6.252606147E0
4.129289583E0,-3.716358706E0,-2.000399718E0,2.621923074E0,4.968641833E0
4.139316583E0,-2.737298286E0,-8.362997729E-1,3.789548012E0,4.748986561E0
4.149342583E0,-1.200367446E0,-5.491821885E-1,4.323194734E0,4.520231829E0
4.159369583E0,7.258843146E-3,-3.171898144E-1,3.180923322E0,3.196706938E0
4.169396583E0,1.278160996E0,-1.371803570E-1,1.867217394E0,2.266939518E0
4.179422583E0,2.997145334E0,-3.306892812E-2,6.070310318E-1,3.058179259E0
4.189449583E0,3.814174438E0,-3.989982086E-1,1.967603562E0,4.310288853E0
4.199476583E0,4.937323408E0,-1.089711667E0,2.925622777E0,5.841566792E0
4.209502583E0,5.035514531E0,-9.814528084E-1,2.954655372E0,5.920274029E0
4.219529583E0,3.179207456E0,2.005402011E-1,4.270510443E0,5.327742099E0
4.229556583E0,2.279275067E0,9.556326735E-1,6.232022084E0,6.704209714E0
4.239582583E0,2.340159785E0,1.645469050E0,7.252977512E0,7.796768497E0
4.249609583E0,2.290477016E0,2.595162122E0,7.660171763E0,8.405913563E0
4.259636583E0,2.067777184E0,3.030456337E0,7.582588567E0,8.423480128E0
4.269662583E0,2.272783196E0,3.355956799E0,7.248683901E0,8.304902636E0
4.279689583E0,2.599820891E0,3.782263843E0,7.418004649E0,8.723037396E0
4.289716583E0,2.467617099E0,4.096066951E0,7.503200335E0,8.897466711E0
4.299743583E0,1.667690516E0,4.372702231E0,7.465268278E0,8.810899325E0
4.309769583E0,1.118761512E0,4.685254619E0,7.108027959E0,8.586460251E0
4.319796583E0,9.814990014E-1,4.701060228E0,6.616056098E0,8.175298518E0
4.329823583E0,9.913650084E-1,4.535593965E0,6.152421014E0,7.707574296E0
4.339849583E0,8.504760548E-1,4.358240898E0,5.748781285E0,7.264025021E0
4.349876583E0,8.448872861E-1,4.230888541E0,5.596229183E0,7.066260216E0
4.359903583E0,-4.177455515E-1,3.689144011E0,5.107731737E0,6.314524398E0
4.369929583E0,-4.254185602E-1,3.047243693E0,4.286557542E0,5.276480895E0
4.379956583E0,6.329067153E-1,2.725598300E0,3.407378967E0,4.409046204E0
4.389983583E0,1.428390584E0,2.954682269E0,2.467774681E0,4.106136731E0
4.400009583E0,1.132740450E0,4.015909810E0,1.668552688E0,4.493851422E0
4.410036583E0,-1.287033561E-1,5.639842980E0,1.273029479E0,5.783165003E0
4.420063583E0,-9.496483406E-1,6.968078361E0,1.421100860E0,7.174641153E0
4.430089583E0,-8.744905695E-1,7.850945944E0,2.195173395E0,8.198833588E0
4.440116583E0,-3.047761756E-1,8.316252748E0,2.944772993E0,8.827493204E0
4.450143583E0,1.853947431E-1,8.360779880E0,2.621092184E0,8.763968031E0
4.460170583E0,3.187630078E-1,7.752966490E0,4.336131406E-1,7.771622714E0
4.470196583E0,-2.447322875E0,5.597487504E0,-7.480640023E0,9.658220890E0
4.480223583E0,-1.123988981E1,-3.696101028E-1,-2.637785166E1,2.867512499E1
4.490250583E0,-1.853581161E1,-1.862884315E1,-4.408232720E1,5.132116212E1
4.500276583E0,-1.027603946E1,-4.369459599E1,-6.732600462E0,4.538879394E1
4.510303583E0,1.626412097E0,-5.123520740E1,5.743655616E-1,5.126423304E1
4.520330583E0,8.259554636E0,-2.190306406E1,3.590997326E1,4.286596130E1
4.530356583E0,3.861767558E0,1.631418775E0,2.996113300E1,3.025300426E1
4.540383583E0,-5.994170800E0,1.340848176E1,1.457013874E0,1.475941585E1
4.550410583E0,-4.682797911E0,1.965093177E1,-1.118684621E1,2.309184366E1
4.560436583E0,5.501734085E0,1.928551588E1,-9.627683231E0,2.224617911E1
4.570463583E0,1.100200052E1,1.195835240E1,1.532080896E1,2.233323521E1
4.580490583E0,8.201335664E0,3.913261355E0,2.167620379E1,2.350390035E1
4.590516583E0,3.924516660E0,5.294127524E-2,1.387525095E1,1.441968179E1
4.600543583E0,2.753421399E0,-7.015075357E0,-1.177326931E0,7.627496992E0
4.610570583E0,4.122503382E-1,-1.032569402E1,-3.181392561E0,1.081254669E1
4.620597583E0,-1.168899924E0,-9.781539263E0,-1.674130931E-1,9.852556243E0
4.630623583E0,3.456705786E-1,-8.389725936E0,-7.757708582E-1,8.432603978E0
4.640650583E0,2.351058410E0,-5.960290278E0,-2.180749775E0,6.768175931E0
4.650677583E0,1.839672477E0,-3.653927400E0,-1.038282774E0,4.220617418E0
4.660703583E0,1.311107717E0,-2.303983061E0,6.441760540E-1,2.728058684E0
4.670730583E0,1.591852714E0,-1.349903408E0,1.235430129E0,2.425391077E0
4.680757583E0,2.226034560E0,-7.021570444E-1,1.583250290E0,2.820449585E0
4.690784208E0,2.559319274E0,-1.664544421E-1,1.790663162E0,3.127986060E0
4.700811208E0,2.098887879E0,7.462047046E-1,2.015314211E0,3.003937942E0
4.710838208E0,1.866528592E0,1.648616021E0,1.560152911E0,2.938697139E0
4.720864208E0,1.253738346E0,2.578173037E0,1.429616160E0,3.203535299E0
4.730891208E0,1.185640283E0,3.177686303E0,1.051697749E0,3.550985959E0
4.740918208E0,1.087030719E0,3.349469313E0,-3.727518117E-1,3.541119085E0
4.750944208E0,5.362838155E-1,3.447904850E0,-1.472951045E0,3.787510127E0
4.760971208E0,-2.658334636E-1,3.478070050E0,-1.597585616E0,3.836654598E0
4.770998208E0,-9.330316501E-1,3.282519279E0,-1.396539631E0,3.687248814E0
4.781025208E0,-1.671076931E0,3.199301121E0,-1.579681442E0,3.939977059E0
4.791051208E0,-2.075638619E0,3.175461438E0,-1.577693973E0,4.108643242E0
4.801078208E0,-1.720725347E0,2.841195415E0,-1.525959563E0,3.655385026E0
4.811105208E0,-1.007098112E0,1.817085999E0,-1.145882944E0,2.372571570E0
4.821131208E0,-5.234230839E-1,9.038532400E-1,-1.287442866E0,1.657839418E0
4.831158208E0,1.855798075E-1,1.464943868E-1,-1.976198092E0,1.990291278E0
4.841185208E0,4.562265893E-1,-2.424460262E-1,-2.707469593E0,2.756322618E0
4.851211208E0,2.770243217E-1,-4.835974789E-1,-2.320415638E0,2.386406866E0
4.861238208E0,1.858214985E-1,-6.013592327E-1,-1.744353214E0,1.854435410E0
4.871265208E0,6.078600574E-1,-6.296018690E-1,-1.524538982E0,1.757871290E0
4.881291208E0,1.218489064E0,-4.781537211E-1,-1.946917575E0,2.346025282E0
4.891318208E0,1.903161252E0,1.042926925E-1,-3.137504822E0,3.671081070E0
4.901345208E0,2.448203466E0,7.906955838E-1,-3.820144445E0,4.605692489E0
4.911371208E0,2.293588466E0,9.158634210E-1,-3.638346617E0,4.397376486E0
4.921398208E0,1.738403526E0,1.008399117E-1,-3.823176227E0,4.201058434E0
4.931425208E0,1.510516190E0,-1.608238658E0,-4.270809236E0,4.807067950E0
4.941451208E0,1.435273634E0,-2.880401580E0,-4.795985681E0,5.775656008E0
4.951478208E0,1.285876397E0,-3.277136332E0,-5.445457558E0,6.484297083E0
4.961505208E0,6.890481716E-1,-3.221194265E0,-6.149239544E0,6.975960640E0
4.971532208E0,2.690732961E-1,-3.004264319E0,-6.995069693E0,7.617677110E0
4.981558208E0,2.813267943E-1,-3.207074409E0,-7.704517046E0,8.350093050E0
4.991585208E0,3.932284686E-1,-3.508784890E0,-8.352084485E0,9.067718306E0
5.001612208E0,1.027525506E0,-3.271179773E0,-8.341623816E0,9.018819971E0
5.011638208E0,2.943863751E0,-3.286621100E0,-6.654406232E0,7.984318026E0
5.021665208E0,5.193677621E0,-4.417883667E0,-4.398986343E0,8.114373924E0
5.031692208E0,7.304164622E0,-5.766019462E0,-2.711877224E0,9.692888081E0
5.041718208E0,9.328235623E0,-6.781056338E0,2.661120468E-1,1.153557630E1
5.051745208E0,1.109732417E1,-6.963217571E0,2.659017225E0,1.336814779E1
5.061772208E0,1.013549111E1,-7.940843377E0,4.094743726E0,1.351118424E1
5.071798208E0,3.742932840E0,-7.618827270E0,2.851345596E0,8.954677377E0
5.081825208E0,-5.354368463E0,-7.147017778E0,-6.583815721E0,1.109485260E1
5.091852208E0,-7.655177071E0,-7.463954408E0,-8.246390800E0,1.350241877E1
5.101878208E0,-4.596871323E0,-6.809879018E0,3.048820102E-1,8.221838678E0
5.111905208E0,-3.690822161E0,-6.346294804E0,3.054930443E0,7.951743581E0
5.121932208E0,-3.822702602E0,-7.094451894E0,2.594114885E0,8.466034190E0
5.131958208E0,-3.838533939E0,-7.655886923E0,1.693591050E0,8.730131615E0
5.141985208E0,-3.371916189E0,-8.188278247E0,5.333106525E-1,8.871422642E0
5.152012208E0,-3.746623310E0,-7.304823604E0,5.467862919E-2,8.209788296E0
5.162039208E0,-4.277763622E0,-5.968512048E0,1.184036465E0,7.438033344E0
5.172065208E0,-3.816972331E0,-4.732973746E0,2.622448153E0,6.621748453E0
5.182092208E0,-3.879210387E0,-3.599179335E0,5.919833393E0,7.940201037E0
5.192119208E0,-1.547998888E0,-2.322347996E0,6.002949225E0,6.620045330E0
5.202145208E0,6.056763051E-1,-1.154071970E0,2.165079238E0,2.527111791E0
5.212172208E0,1.045595595E0,-5.687335235E-1,-3.445939600E-1,1.239142028E0
5.222199208E0,2.095416533E0,-4.611628819E-1,-9.368642807E-2,2.147607692E0
5.232225208E0,4.072352690E0,-9.159967375E-1,2.051610509E0,4.651044199E0
5.242252208E0,5.677085651E0,-1.063919599E0,4.648323605E0,7.414050090E0
5.252279208E0,4.969304754E0,-3.039903098E-1,5.518874613E0,7.432656110E0
5.262305208E0,3.056417974E0,8.260612983E-1,6.197590755E0,6.959468318E0
5.272332208E0,1.974723424E0,1.615811972E0,6.421565427E0,6.909911972E0
5.282359208E0,1.596633689E0,2.215262673E0,6.771872701E0,7.301704440E0
5.292385208E0,1.745631708E0,2.453644885E0,7.431865473E0,8.018742276E0
5.302412208E0,2.232475561E0,2.745229157E0,8.482859802E0,9.191253488E0
5.312439208E0,2.489149763E0,3.074502243E0,8.979645091E0,9.812362435E0
5.322466208E0,2.213925415E0,3.695531509E0,8.872783132E0,9.863300634E0
5.332492208E0,2.237509867E0,3.969737856E0,8.699675728E0,9.820877091E0
5.342519208E0,1.857267188E0,4.786919573E0,8.381273201E0,9.829027463E0
5.352546208E0,7.668956620E-1,5.602759938E0,7.992093052E0,9.790434068E0
5.362572208E0,4.809217930E-2,5.803643956E0,7.166680795E0,9.222033921E0
5.372599208E0,3.385143176E-1,5.424610480E0,5.862197973E0,7.994145100E0
5.382626208E0,1.137343378E0,4.811291937E0,4.894446360E0,6.956844489E0
5.392652208E0,1.644612433E0,4.122494611E0,4.354332619E0,6.217710545E0
5.402679208E0,1.803554080E0,3.479168742E0,3.844965876E0,5.490098819E0
5.412706208E0,9.741554832E-1,3.368846986E0,3.549135355E0,4.989435909E0
5.422732208E0,-4.941487795E-1,3.354997855E0,3.348773494E0,4.765970787E0
5.432759208E0,-9.844237787E-1,3.851900089E0,3.256224934E0,5.138990688E0
5.442786208E0,-9.804371470E-1,4.710492956E0,3.226167322E0,5.792940228E0
5.452812208E0,-1.150289699E0,5.594947473E0,3.165443403E0,6.530439155E0
5.462839208E0,-1.014132020E0,6.104151664E0,3.130314501E0,6.934551187E0
5.472866208E0,-4.821073160E-1,6.078088285E0,2.959593346E0,6.777520006E0
5.482892208E0,1.949832997E-1,6.010833026E0,2.576508334E0,6.542669741E0
5.492919208E0,3.098863497E-1,6.282506359E0,2.374682330E0,6.723468738E0
5.502946208E0,1.224979985E-1,6.736705207E0,1.761589490E0,6.964294676E0
5.512973208E0,-3.923297516E-1,6.600863278E0,-1.301217152E0,6.739323759E0
5.522999208E0,-4.777860482E0,4.386894009E0,-1.193078746E1,1.358000291E1
5.533026208E0,-1.671400282E1,-3.953720579E0,-3.927805836E1,4.286905253E1
5.543053208E0,-1.799401797E1,-2.739174950E1,-3.220611298E1,4.594917123E1
5.553079208E0,-5.453978705E0,-5.463347348E1,-6.174469694E0,5.525112111E1
5.563106208E0,5.401822711E0,-4.529405740E1,2.809197229E1,5.357135644E1
5.573133208E0,6.736401737E0,-1.040786494E1,4.359035651E1,4.531911232E1
5.583159208E0,-5.439683433E0,7.827155378E0,7.404207559E0,1.206966473E1
5.593186208E0,-1.007232247E1,1.826077730E1,-1.814498138E1,2.764322732E1
5.603213208E0,1.939749473E0,2.008221070E1,-1.301958579E1,2.401181852E1
5.613239208E0,1.310689641E1,1.458383292E1,1.673613453E1,2.577939323E1
5.623266208E0,9.931293472E0,4.995562261E0,2.565698821E1,2.796188971E1
5.633293208E0,3.615931316E0,1.137412083E-1,1.328720115E1,1.377089724E1
5.643319208E0,3.130413319E0,-6.043992586E0,-1.707078822E0,7.017367885E0
5.653346208E0,5.323943938E-1,-1.168820870E1,-4.933455475E0,1.269789940E1
5.663373208E0,-1.449905268E0,-1.118457983E1,6.879775465E-2,1.127837685E1
5.673399208E0,6.387001365E-2,-9.162724922E0,1.320683702E0,9.257635379E0
5.683425750E0,3.472364922E0,-5.846982349E0,1.466402748E-1,6.801913268E0
5.693452750E0,4.723962017E0,-2.296475821E0,-1.262610326E0,5.402203548E0
5.703479750E0,3.732225711E0,-8.202164215E-1,-9.314529750E-1,3.933175356E0
5.713505750E0,2.796620920E0,-2.567763823E-1,-1.550810230E-1,2.812662939E0
5.723532750E0,2.231583860E0,1.882323968E-1,6.084849420E-1,2.320700732E0
5.733559750E0,2.782516851E0,6.233184510E-1,1.341713798E0,3.151368248E0
5.743585750E0,3.223731372E0,7.174802577E-1,2.545253212E0,4.169596599E0
5.753612750E0,2.939905770E0,9.021131086E-1,3.211185586E0,4.446185654E0
5.763639750E0,2.513013420E0,1.266676480E0,2.338823111E0,3.659207468E0
5.773665750E0,2.051600423E0,1.711197016E0,9.468103214E-1,2.834379881E0
5.783692750E0,1.273474599E0,2.533618423E0,4.929129705E-3,2.835662914E0
5.793719750E0,3.892791130E-1,3.056112165E0,-8.839773846E-1,3.205117129E0
5.803745750E0,-5.022226149E-1,3.182234268E0,-1.622115270E0,3.606951682E0
5.813772750E0,-1.210710732E0,3.261264065E0,-1.904430537E0,3.965919748E0
5.823799750E0,-2.454343335E0,3.419725363E0,-2.308829234E0,4.800938991E0
5.833825750E0,-3.170244844E0,3.213762454E0,-2.549165000E0,5.184299729E0
5.843852750E0,-3.973794655E0,3.314424026E0,-2.918619567E0,5.940941908E0
5.853879750E0,-3.255012807E0,2.718656486E0,-1.818468280E0,4.614436948E0
5.863905750E0,-1.621163782E0,1.905801709E0,-1.062771279E0,2.718406694E0
5.873932750E0,-2.751492110E-1,1.126190692E0,-1.484287627E0,1.883380557E0
5.883959750E0,5.077499513E-1,4.183103925E-1,-2.457219288E0,2.543761039E0
5.893986750E0,6.225581668E-1,-1.250087929E-1,-2.747168094E0,2.819598980E0
5.904012750E0,2.791839360E-1,-4.601279247E-1,-2.213013250E0,2.277518171E0
5.914039750E0,3.377235913E-1,-3.711543524E-1,-9.162370580E-1,1.044654548E0
5.924066750E0,1.116319934E0,-3.658602834E-1,-4.939736554E-1,1.274375892E0
5.934092750E0,1.995666104E0,-1.374972761E-2,-9.086153586E-1,2.192818762E0
5.944119750E0,2.816544138E0,6.296392912E-1,-1.979974663E0,3.499952312E0
5.954146750E0,3.113642043E0,8.158029431E-1,-3.055609889E0,4.438136209E0
5.964172750E0,2.652844027E0,4.400000542E-1,-3.808785059E0,4.662405507E0
5.974199750E0,1.837813793E0,-6.761497986E-1,-4.034268898E0,4.484424559E0
5.984226750E0,1.185056512E0,-2.541368322E0,-4.191982337E0,5.043374644E0
5.994252750E0,1.199009723E0,-3.921245728E0,-5.403483320E0,6.783172146E0
6.004279750E0,9.072067644E-1,-4.179793231E0,-7.035931206E0,8.233955520E0
6.014306750E0,3.850830048E-3,-3.845315539E0,-7.656236587E0,8.567638245E0
6.024332750E0,-2.621708042E-1,-3.532448571E0,-8.158044634E0,8.893852860E0
6.034359750E0,2.072188908E-1,-3.128494847E0,-8.465272547E0,9.027250909E0
6.044386750E0,1.342729167E0,-2.654841728E0,-8.011642048E0,8.546198835E0
6.054412750E0,3.647719996E0,-3.029334256E0,-6.162233226E0,7.775335719E0
6.064439750E0,6.155447533E0,-4.504984376E0,-3.837534065E0,8.538798876E0
6.074466750E0,8.061108908E0,-6.196664556E0,-1.622627194E0,1.029626376E1
6.084493750E0,9.502498437E0,-6.709360119E0,9.596864019E-1,1.167193162E1
6.094519750E0,1.109220551E1,-6.635936047E0,2.675198225E0,1.319959681E1
6.104546750E0,9.726354411E0,-8.093575573E0,4.040211423E0,1.328274234E1
6.114573750E0,3.144656844E0,-7.198921757E0,3.316783962E0,8.527273714E0
6.124599750E0,-4.706104913E0,-5.944358954E0,-5.715018877E0,9.494433506E0
6.134626750E0,-8.312521055E0,-5.931150679E0,-1.109584014E1,1.507959625E1
6.144653750E0,-6.073311694E0,-6.100625793E0,-3.194951962E0,9.182073188E0
6.154679750E0,-4.402651085E0,-6.287081221E0,1.675355923E0,7.856051446E0
6.164706750E0,-3.627953776E0,-6.663636646E0,2.732803824E0,8.064385822E0
6.174733750E0,-3.056115381E0,-6.454096411E0,2.092311516E0,7.441301578E0
6.184759750E0,-2.276253372E0,-5.927339464E0,6.024725425E-1,6.377903707E0
6.194786750E0,-2.862884784E0,-4.669116304E0,3.274806216E-2,5.477027367E0
6.204813750E0,-3.459742538E0,-3.109830535E0,3.975440061E-1,4.668929815E0
6.214839750E0,-2.620882562E0,-2.347681643E0,1.722448375E0,3.917583809E0
6.224866750E0,-3.263629848E0,-2.757808272E0,4.764179751E0,6.399546465E0
6.234893750E0,-2.968988652E0,-3.165474978E0,7.104079335E0,8.324846464E0
6.244919750E0,-1.071202599E0,-2.618256285E0,2.741008345E0,3.939018624E0
6.254946750E0,-2.695477246E-1,-2.178198343E0,3.851888394E-1,2.228356892E0
6.264973750E0,8.656908754E-1,-1.667463351E0,4.491889536E-1,1.931741555E0
6.275000750E0,3.246192867E0,-1.840586543E0,2.838200471E-1,3.742469875E0
6.285026750E0,4.672995347E0,-2.060748246E0,2.333908819E0,5.615220318E0
6.295053750E0,6.022741465E0,-1.949012048E0,3.583955525E0,7.274393440E0
6.305080750E0,5.048330458E0,-1.516371299E0,3.847876620E0,6.526191601E0
6.315106750E0,2.925492969E0,-3.636248928E-1,4.621543357E0,5.481732863E0
6.325133750E0,2.045710815E0,7.962872761E-1,5.708044319E0,6.115617394E0
6.335160750E0,1.843786578E0,1.800765250E0,6.739322421E0,7.215315040E0
6.345186750E0,2.086940702E0,2.444586963E0,7.501277770E0,8.160912639E0
6.355213750E0,1.769565531E0,3.516105019E0,7.786418411E0,8.724830563E0
6.365240750E0,1.575666013E0,3.912584832E0,7.834131691E0,8.897452602E0
6.375266750E0,1.776248752E0,4.625428247E0,8.077000471E0,9.475630993E0
6.385293750E0,1.726096891E0,5.346022148E0,8.211054906E0,9.948908782E0
6.395320750E0,1.316625150E0,5.375496207E0,7.718683680E0,9.497764949E0
6.405346750E0,6.818701297E-1,4.872266117E0,6.866624492E0,8.447156676E0
6.415373750E0,4.452321428E-1,4.379622996E0,6.175261992E0,7.583745112E0
6.425400750E0,4.734101674E-1,4.214871263E0,6.095802425E0,7.426174261E0
6.435426750E0,6.190610933E-1,4.300792589E0,6.059320477E0,7.456233511E0
6.445453750E0,8.469159776E-1,4.253170525E0,5.818245623E0,7.256632023E0
6.455480750E0,1.248655946E0,4.011413301E0,5.367877285E0,6.816500928E0
6.465506750E0,2.121221027E0,4.074360332E0,5.021415140E0,6.805483140E0
6.475533750E0,1.495233030E0,3.588292989E0,3.787714618E0,5.427554736E0
6.485560750E0,1.311741848E0,2.920635102E0,2.367151117E0,3.981730840E0
6.495587750E0,1.261686758E0,3.293832471E0,1.834366860E0,3.975687060E0
6.505613750E0,3.856855604E-1,4.638195058E0,2.385318416E0,5.229851881E0
6.515640750E0,-8.985036224E-1,6.344252372E0,3.133478429E0,7.132708741E0
6.525667750E0,-1.877262911E0,7.658662012E0,3.067790224E0,8.461120298E0
6.535693750E0,-2.115230555E0,8.403828835E0,2.658783336E0,9.064638339E0
6.545720750E0,-1.588984070E0,8.822335694E0,1.914621649E0,9.166474433E0
6.555747750E0,-5.458960533E-1,8.863176157E0,1.097750419E-1,8.880650013E0
6.565773750E0,-1.174334326E0,7.838905358E0,-6.700136721E0,1.037879234E1
6.575800750E0,-9.660194335E0,3.394278281E0,-2.646598557E1,2.837761216E1
6.585827750E0,-1.837275148E1,-1.538846359E1,-4.745024390E1,5.315908628E1
6.595853750E0,-9.818372043E0,-5.029509675E1,-1.785489399E1,5.426596010E1
6.605880750E0,8.790742019E-1,-6.317907157E1,5.190514863E-2,6.318520832E1
6.615907750E0,7.026919477E0,-2.901292045E1,4.530875496E1,5.425873594E1
6.625933750E0,4.112836473E0,-7.097280192E-1,3.549299662E1,3.573754254E1
6.635960750E0,-6.139712090E0,1.325716284E1,3.621189424E0,1.505195814E1
6.645987750E0,-6.880440293E0,2.247378973E1,-2.015648671E1,3.096281060E1
6.656013750E0,6.900486302E0,2.130080085E1,-1.272601814E1,2.575446303E1
6.666040750E0,1.126272436E1,1.353105928E1,1.989881395E1,2.656880355E1
6.676067750E0,6.074862961E0,5.789078541E0,2.237103778E1,2.389311034E1
6.686095333E0,2.947003413E0,2.688401238E0,1.199282408E1,1.263883537E1
6.696121333E0,-4.410838357E-1,-3.782277877E0,4.335515694E0,5.770344636E0
6.706148333E0,-2.512337189E0,-1.005671508E1,-1.205850526E0,1.043568071E1
6.716175333E0,-2.001825561E0,-1.090007887E1,1.255135538E0,1.115322331E1
6.726201333E0,7.008871754E-1,-9.641328294E0,-2.579238984E-1,9.670210899E0
6.736228333E0,3.519312801E0,-8.437991193E0,1.952502251E-1,9.144582036E0
6.746255333E0,5.750593922E0,-7.281462223E0,1.807366757E0,9.452808956E0
6.756281333E0,6.492795623E0,-5.592670568E0,1.357323525E0,8.676213819E0
6.766308333E0,4.990027871E0,-4.527745832E0,2.364570156E-1,6.742163777E0
6.776335333E0,3.245898167E0,-3.240857282E0,5.523617582E-1,4.619969085E0
6.786361333E0,2.216579174E0,-1.128003913E0,1.666161761E0,2.993611711E0
6.796388333E0,2.162796192E0,1.004614799E0,2.027548925E0,3.130158607E0
6.806415333E0,2.197624401E0,2.933368583E0,1.388716056E0,3.919532694E0
6.816441333E0,1.736594982E0,4.658276736E0,8.005972588E-1,5.035500000E0
6.826468333E0,6.916136375E-1,5.913027234E0,-2.679264379E-1,5.959362807E0
6.836495333E0,-5.045703816E-1,6.531424084E0,-1.612621146E0,6.746453794E0
6.846521333E0,-1.943111622E0,6.760032674E0,-2.372443432E0,7.423086445E0
6.856548333E0,-2.592468017E0,5.831918167E0,-1.062019766E0,6.469933996E0
6.866575333E0,-2.241423116E0,4.672824023E0,-3.392770138E-1,5.193685669E0
6.876601333E0,-1.410996579E0,3.428678620E0,-7.417532925E-1,3.781130303E0
6.886628333E0,-8.270870461E-1,1.951612304E0,-6.559891838E-1,2.218825225E0
6.896655333E0,-1.161705802E0,4.593824047E-1,-1.134444036E0,1.687470248E0
6.906682333E0,-1.495052205E0,-3.252677429E-1,-1.577450144E0,2.197573470E0
6.916708333E0,-1.441492732E0,-3.329825592E-1,-2.104391425E0,2.572400037E0
6.926735333E0,-1.611485617E0,-1.742236376E-2,-2.766838127E0,3.201965436E0
6.936762333E0,-1.586832440E0,2.594842279E-1,-3.502189815E0,3.853660955E0
6.946788333E0,-1.079033190E0,3.478029120E-1,-3.327759771E0,3.515574574E0
6.956815333E0,-8.993967846E-3,-1.519527626E-1,-2.212776437E0,2.218005883E0
6.966842333E0,7.852551151E-1,-3.511650610E-1,-1.566774298E0,1.787379142E0
6.976868333E0,1.674054041E0,-7.863744915E-2,-2.548284409E0,3.049982657E0
6.986895333E0,2.784655178E0,1.847059411E-1,-3.013231609E0,4.107065312E0
6.996922333E0,3.266702268E0,-4.462133056E-1,-3.112155096E0,4.533868035E0
7.006948333E0,3.769138891E0,-1.734493493E0,-3.587063612E0,5.484696984E0
7.016975333E0,4.185481695E0,-3.196017909E0,-4.532271577E0,6.947968994E0
7.027002333E0,4.201472953E0,-4.077437137E0,-5.630210277E0,8.122631122E0
7.037028333E0,2.935578538E0,-3.965854136E0,-6.175035120E0,7.904219071E0
7.047055333E0,1.360608198E0,-3.240947914E0,-7.131152528E0,7.950366937E0
7.057082333E0,5.874859826E-1,-2.454609091E0,-8.719381430E0,9.077326593E0
7.067108333E0,-1.294427365E-4,-1.949700265E0,-9.950330837E0,1.013954708E1
7.077135333E0,1.876457749E-1,-1.663956192E0,-9.241774600E0,9.392249938E0
7.087162333E0,1.832126791E0,-1.996990206E0,-6.227655383E0,6.791785482E0
7.097188333E0,3.916490479E0,-3.383952098E0,-3.296415187E0,6.136479655E0
7.107215333E0,5.537548281E0,-4.800713155E0,-1.690213991E0,7.521177507E0
7.117242333E0,7.200419229E0,-5.716901681E0,2.822804752E-1,9.198297895E0
7.127268333E0,8.379270530E0,-6.017625736E0,1.296535579E0,1.039735537E1
7.137295333E0,7.959981898E0,-7.270168326E0,2.965814198E0,1.118090842E1
7.147322333E0,4.460453151E0,-6.947782091E0,3.513635155E0,8.972900885E0
7.157349333E0,-2.122863510E0,-5.928228241E0,-2.671041439E0,6.839948971E0
7.167375333E0,-7.350578066E0,-5.943587122E0,-8.777380546E0,1.289959825E1
7.177402333E0,-6.124612826E0,-6.881512088E0,-3.035225911E0,9.699416849E0
7.187429333E0,-3.589696321E0,-7.652864497E0,1.387353655E0,8.566037874E0
7.197455333E0,-2.523974610E0,-8.059375209E0,2.420224539E0,8.785298140E0
7.207482333E0,-1.874334333E0,-8.399608900E0,2.389267040E0,8.931693896E0
7.217509333E0,-1.613470455E0,-8.367334024E0,2.288179207E0,8.823340051E0
7.227535333E0,-1.510050167E0,-8.004219008E0,1.978792648E0,8.382326275E0
7.237562333E0,-1.932667910E0,-6.784341888E0,1.491590653E0,7.210224878E0
7.247589333E0,-2.729377648E0,-5.245854666E0,1.599518559E0,6.125924676E0
7.257615333E0,-3.199211366E0,-4.225798540E0,4.228945219E0,6.780582890E0
7.267642333E0,-2.159341511E0,-2.938993020E0,6.287846621E0,7.268937396E0
7.277669333E0,-1.095816380E0,-1.221403243E0,4.656503275E0,4.937171475E0
7.287695333E0,-2.891780335E-1,3.056462413E-1,1.838851674E0,1.886377226E0
7.297722333E0,3.950323712E-1,9.152594036E-1,6.621802157E-1,1.196759369E0
7.307749333E0,8.083446003E-1,9.026528066E-1,1.267047778E0,1.753172311E0
7.317775333E0,2.004265312E0,7.679399747E-1,2.685072710E0,3.437502975E0
7.327802333E0,4.159042925E0,5.271381855E-1,3.876574462E0,5.709933649E0
7.337829333E0,5.186475021E0,4.356754535E-1,4.602668545E0,6.947941708E0
7.347855333E0,3.865291090E0,7.091795504E-1,5.017189942E0,6.373037404E0
7.357882333E0,1.619007329E0,1.145475978E0,5.524093838E0,5.869319609E0
7.367909333E0,4.428542264E-1,1.839364475E0,6.073418698E0,6.361273161E0
7.377935333E0,5.746589456E-1,2.128780015E0,6.864131239E0,7.209593256E0
7.387962333E0,8.505095302E-1,2.645620669E0,7.724053763E0,8.208756405E0
7.397989333E0,1.124026491E0,3.138922772E0,8.090742012E0,8.750792994E0
7.408016333E0,7.911427496E-1,3.964556054E0,7.688585722E0,8.686654245E0
7.418042333E0,4.631972744E-1,4.992907625E0,7.036095513E0,8.640041570E0
7.428069333E0,3.048714852E-1,5.766404793E0,6.388025213E0,8.611111251E0
7.438096333E0,2.629223907E-1,6.073850808E0,5.530372578E0,8.218625960E0
7.448122333E0,1.188086978E-1,5.667305013E0,4.801214846E0,7.428601861E0
7.458149333E0,7.090944734E-1,5.065791414E0,4.846074684E0,7.046239952E0
7.468176333E0,7.587721252E-1,4.109143079E0,4.991791976E0,6.509898549E0
7.478202333E0,5.848595595E-1,2.974910127E0,4.558699822E0,5.474842010E0
7.488229333E0,9.985921669E-1,2.202405816E0,3.914933074E0,4.601573499E0
7.498256333E0,1.268050575E0,1.956894094E0,3.450396933E0,4.164447833E0
7.508282333E0,1.437147667E0,2.251275090E0,3.078778312E0,4.075844555E0
7.518309333E0,1.430196789E0,2.878447441E0,2.773943079E0,4.245666347E0
7.528336333E0,1.205736798E0,3.740273818E0,2.586060930E0,4.704376749E0
7.538362333E0,8.501620594E-1,4.624556428E0,2.316187955E0,5.241566972E0
7.548389333E0,3.877800331E-1,5.365795092E0,1.546646428E0,5.597700018E0
7.558416333E0,-2.089014271E-1,5.726771781E0,3.228592747E-1,5.739668366E0
7.568442333E0,-1.067348114E0,6.461279131E0,-1.351862810E0,6.686919549E0
7.578469333E0,-1.220512712E0,6.763399501E0,-2.259744197E0,7.234615949E0
7.588496333E0,-9.311720163E-1,6.910631806E0,-2.652796372E0,7.460646210E0
7.598523333E0,-5.411688718E-1,6.685275437E0,-2.975297797E0,7.337449721E0
7.608549333E0,-1.510131443E0,5.617689634E0,-5.867996072E0,8.262706076E0
7.618576333E0,-5.367494878E0,2.049048552E0,-1.296060843E1,1.417695215E1
7.628603333E0,-1.268743119E1,-8.125444068E0,-2.565943936E1,2.975568147E1
7.638629333E0,-1.417621065E1,-2.787855125E1,-2.000851707E1,3.712841666E1
7.648656333E0,-4.072831577E0,-4.776915104E1,-5.712871780E0,4.828163887E1
7.658683333E0,3.463810446E0,-3.742914070E1,2.053727377E1,4.283361029E1
7.668709333E0,3.126270859E0,-9.991060202E0,3.313274931E1,3.474728666E1
7.678736333E0,-6.917946088E-1,5.435004491E0,1.947095681E1,2.022711084E1
7.688762875E0,-5.381900663E0,1.512906941E1,-1.784854392E0,1.615671071E1
7.698788875E0,-1.446256167E-1,2.013812880E1,-1.569175632E1,2.553030287E1
7.708815875E0,8.451577199E0,1.527218001E1,3.577543760E0,1.781761653E1
7.718842875E0,6.278403953E0,6.954415172E0,2.069885573E1,2.272058263E1
7.728868875E0,1.283620541E0,1.978885472E0,1.534967784E1,1.552985123E1
7.738895875E0,-1.585680100E0,-2.664327081E0,9.857263044E0,1.033337577E1
7.748922875E0,-7.020368841E-1,-6.728575239E0,2.233414477E0,7.124234749E0
7.758948875E0,1.638562903E0,-9.260900842E0,-1.806281514E0,9.576629141E0
7.768975875E0,3.547014863E0,-9.720798386E0,-2.243105945E-1,1.035014739E1
7.779002875E0,5.223726463E0,-9.039391941E0,6.649655369E-1,1.046136243E1
7.789028875E0,5.999827981E0,-6.888793041E0,6.523770663E-1,9.158547985E0
7.799055875E0,5.516243951E0,-4.654857284E0,-1.612749785E-2,7.217818490E0
7.809082875E0,3.400846458E0,-2.526707599E0,-8.591884062E-2,4.237616071E0
7.819108875E0,1.444318692E0,-6.689600623E-1,1.294854212E0,2.051879986E0
7.829135875E0,3.618507745E-1,9.367578614E-1,2.039052298E0,2.272924449E0
7.839162875E0,-5.109801359E-2,2.327096520E0,9.641615684E-1,2.519443738E0
7.849189875E0,-1.966831584E-1,3.388260326E0,-4.116053903E-1,3.418831862E0
7.859215875E0,-6.145405378E-1,4.065991797E0,-1.244809062E0,4.296451904E0
7.869242875E0,-1.201928506E0,4.506543244E0,-1.486971499E0,4.895370096E0
7.879269875E0,-1.852566903E0,4.319578523E0,-1.437092410E0,4.914875110E0
7.889295875E0,-2.215316614E0,4.043308108E0,-7.167014086E-1,4.665793509E0
7.899322875E0,-1.939267224E0,3.782276123E0,-4.168503793E-1,4.270847021E0
7.909349875E0,-1.252814778E0,3.273066670E0,-9.417642474E-2,3.505906372E0
7.919375875E0,-7.925212307E-1,2.549310011E0,-2.368707518E-2,2.669762632E0
7.929402875E0,-4.533488090E-1,1.929222731E0,-6.167654765E-1,2.075530087E0
7.939429875E0,1.266892918E-1,1.089687109E0,-1.471703249E0,1.835586725E0
7.949455875E0,1.399300101E-1,4.535158932E-1,-2.174816898E0,2.226002159E0
7.959482875E0,-3.511895462E-1,3.166764289E-1,-2.282379938E0,2.330853114E0
7.969509875E0,-2.950814921E-1,4.311076087E-1,-1.789348708E0,1.864053555E0
7.979535875E0,-1.704260903E-1,6.709030920E-1,-7.092732520E-1,9.910724278E-1
7.989562875E0,-1.185888653E-2,9.177842313E-1,-8.334518865E-2,9.216371026E-1
7.999589875E0,4.379922666E-2,9.160353291E-1,-7.205656873E-1,1.166299278E0
8.009615875E0,-1.652540088E-2,7.166335809E-1,-1.857403574E0,1.990925617E0
8.019642875E0,-2.224460362E-2,3.466077411E-1,-3.055528613E0,3.075205172E0
8.029669875E0,4.202102990E-1,-1.129091495E-1,-2.888315787E0,2.920906239E0
8.039695875E0,1.131006166E0,-3.805864960E-1,-1.662403902E0,2.046364523E0
8.049722875E0,1.525898167E0,-7.691193581E-1,-1.569377625E0,2.320098259E0
8.059749875E0,1.731495333E0,-1.269047526E0,-2.417972484E0,3.233442228E0
8.069775875E0,1.463158713E0,-2.028537104E0,-3.312407906E0,4.150643605E0
8.079802875E0,6.709880228E-1,-2.472512096E0,-4.459227574E0,5.142786361E0
8.089829875E0,4.466962125E-2,-2.330061643E0,-5.954386345E0,6.394208268E0
8.099856875E0,-4.129236085E-1,-1.996080379E0,-6.867369427E0,7.163491163E0
8.109882875E0,-3.591066762E-1,-1.804373567E0,-6.646501966E0,6.896427332E0
8.119909875E0,-9.151338346E-2,-1.828879833E0,-5.956529349E0,6.231646494E0
8.129936875E0,5.662853674E-1,-1.978439915E0,-5.219108332E0,5.610168927E0
8.139962875E0,1.902207133E0,-2.652637328E0,-4.288048874E0,5.389085258E0
8.149989875E0,3.455956466E0,-4.304598541E0,-3.025111397E0,6.294799652E0
8.160016875E0,4.723665856E0,-6.085076292E0,-1.612317822E0,7.870244047E0
8.170042875E0,5.678062720E0,-7.440270261E0,1.501651226E-1,9.360585846E0
8.180069875E0,6.267994739E0,-7.561282482E0,5.505293870E-1,9.836860954E0
8.190096875E0,6.566422008E0,-8.077422640E0,4.329243386E-1,1.041873687E1
8.200122875E0,4.336253028E0,-6.925313580E0,3.715787141E-1,8.179311050E0
8.210149875E0,-7.297507860E-1,-4.273175020E0,-3.329842549E0,5.466297866E0
8.220176875E0,-5.426720740E0,-2.705660464E0,-8.913490863E0,1.078054803E1
8.230202875E0,-5.796062456E0,-2.340377301E0,-5.602342447E0,8.393923206E0
8.240229875E0,-4.640136334E0,-3.322558088E0,-3.370650852E-1,5.716980874E0
8.250256875E0,-3.639482731E0,-5.405222282E0,1.128431929E0,6.613291245E0
8.260282875E0,-3.039902514E0,-6.633684869E0,8.163940235E-1,7.342566406E0
8.270309875E0,-2.498733057E0,-6.917678871E0,6.237211780E-1,7.381529378E0
8.280336875E0,-1.509078652E0,-6.358963382E0,8.724079375E-1,6.593544515E0
8.290362875E0,-4.287739484E-1,-4.944798489E0,1.860141825E0,5.300472319E0
8.300389875E0,-3.806195328E-1,-3.727950227E0,3.242588643E0,4.955488394E0
8.310416875E0,-8.457691924E-1,-3.266129533E0,5.552887282E0,6.497498351E0
8.320443875E0,6.724353549E-1,-2.897469603E0,4.712045684E0,5.572331104E0
8.330469875E0,-1.673000592E-1,-2.230466604E0,3.151968495E0,3.864954847E0
8.340496875E0,-1.176169329E0,-1.062192332E0,2.456079373E0,2.923004059E0
8.350523875E0,-3.270808548E-1,-2.936512631E-1,1.777574608E0,1.831115627E0
8.360549875E0,1.012222100E0,-9.011377931E-2,1.582054534E0,1.880321946E0
8.370576875E0,2.183105034E0,4.213503599E-3,1.764861300E0,2.807258583E0
8.380603875E0,2.954466214E0,2.568535656E-1,2.318198520E0,3.764158438E0
8.390629875E0,3.372548858E0,3.974691617E-1,2.568467828E0,4.257827441E0
8.400656875E0,3.068446866E0,6.090758032E-1,2.821221618E0,4.212556341E0
8.410683875E0,2.083866090E0,9.013225651E-1,3.787088381E0,4.415531526E0
8.420709875E0,1.154503933E0,1.414734412E0,5.013376388E0,5.335568910E0
8.430736875E0,7.308627802E-1,1.941032352E0,6.051346044E0,6.396917691E0
8.440763875E0,8.452540527E-1,2.347052482E0,6.659899106E0,7.111776562E0
8.450789875E0,1.008595730E0,2.748760875E0,7.036394890E0,7.621273171E0
8.460816875E0,1.422256855E0,2.981820366E0,7.227526921E0,7.946773726E0
8.470843875E0,1.356714391E0,3.277461437E0,6.901408408E0,7.759630496E0
8.480869875E0,8.430802041E-1,3.927489969E0,6.287594022E0,7.461219757E0
8.490896875E0,1.150770047E0,4.874740659E0,5.979907687E0,7.800427176E0
8.500923875E0,8.535566604E-1,5.259965751E0,5.710235270E0,7.810415195E0
8.510949875E0,-5.346761236E-1,4.504890820E0,4.596349459E0,6.458045232E0
8.520976875E0,-5.114287636E-1,3.876237370E0,3.871161402E0,5.502060171E0
8.531003875E0,3.883384421E-1,3.430698248E0,3.865848622E0,5.183173042E0
8.541029875E0,1.240728583E0,3.099709589E0,3.832600769E0,5.082955401E0
8.551056875E0,1.817523370E0,2.933298417E0,3.575333220E0,4.968967543E0
8.561083875E0,2.089167176E0,2.925218734E0,3.512648730E0,5.025955156E0
8.571110875E0,1.803025199E0,2.700931236E0,3.156502426E0,4.528734589E0
8.581136875E0,1.556160140E0,2.534555147E0,2.594487938E0,3.946767263E0
8.591163875E0,1.231612774E0,2.632260951E0,2.053996466E0,3.558731406E0
8.601190875E0,9.040070218E-1,3.100864415E0,1.406307405E0,3.522824056E0
8.611216875E0,5.363305932E-1,3.970096875E0,7.613963556E-1,4.077872499E0
8.621243875E0,-4.075193560E-1,5.081995803E0,2.552069896E-1,5.104692348E0
8.631270875E0,-1.355317345E0,6.060443142E0,-7.520934355E-1,6.255517622E0
8.641296875E0,-1.902128195E0,6.723272399E0,-2.385728306E0,7.383236619E0
8.651323875E0,-2.416094943E0,6.663851824E0,-5.294642079E0,8.847466906E0
8.661350875E0,-4.048762976E0,4.731295595E0,-1.138511126E1,1.297684083E1
8.671376875E0,-7.152620580E0,-1.075141575E0,-2.105360864E1,2.226140937E1
8.681403875E0,-1.096269086E1,-1.391737196E1,-3.014506536E1,3.496568029E1
8.691430833E0,-8.900308900E0,-3.204938889E1,-1.398304554E1,3.608191222E1
8.701456833E0,-2.743065103E0,-4.116219496E1,5.794587203E0,4.165846782E1
8.711483833E0,4.868854559E0,-2.282444258E1,2.538388815E1,3.448191847E1
8.721510833E0,1.609497271E0,-8.825658667E-1,2.859775410E1,2.865660384E1
8.731536833E0,-5.047263926E0,1.072807835E1,1.391842563E1,1.828357487E1
8.741563833E0,-7.292536849E0,1.794485224E1,-7.822798033E0,2.089006904E1
8.751590833E0,1.305346163E0,1.945354497E1,-1.393951419E1,2.396777830E1
8.761616833E0,9.729987286E0,1.325843285E1,8.604401196E0,1.856056072E1
8.771643833E0,7.045058709E0,4.635725194E0,2.095449366E1,2.258790837E1
8.781670833E0,2.006158640E0,5.198320895E-1,1.610492994E1,1.623772355E1
8.791696833E0,-5.291912891E-1,-4.056428091E0,7.850492785E0,8.852394549E0
8.801723833E0,-1.109782674E0,-8.165126781E0,-8.553385994E-1,8.284474459E0
8.811750833E0,-1.575292960E0,-9.236490471E0,1.601406187E-2,9.369875163E0
8.821776833E0,7.428741306E-3,-9.336608251E0,2.842990218E0,9.759861792E0
8.831803833E0,3.524827603E0,-9.739230564E0,2.811592424E0,1.073229116E1
8.841830833E0,6.333006422E0,-9.390963968E0,2.432277989E-1,1.132944546E1
8.851857833E0,3.454546117E0,-6.480494251E0,-3.854417315E-1,7.353860207E0
8.861883833E0,5.584849624E-1,-3.132877336E0,2.626756382E-1,3.193090093E0
8.871910833E0,1.145221478E0,-8.862870347E-1,5.202070422E-1,1.538717748E0
8.881937833E0,2.308667850E0,4.296487284E-1,1.489874057E0,2.781055551E0
8.891963833E0,3.342878332E0,1.516066074E0,2.386823197E0,4.378380620E0
8.901990833E0,3.367224968E0,2.868914725E0,2.449523767E0,5.056584062E0
8.912017833E0,3.269394034E0,3.525906122E0,1.494990370E0,5.035468949E0
8.922043833E0,2.658394496E0,3.884402422E0,1.644774985E-1,4.709850987E0
8.932070833E0,1.586706579E0,3.696010396E0,-7.918006345E-1,4.099399817E0
8.942097833E0,3.814488872E-1,3.058793698E0,-8.312214661E-1,3.192593188E0
8.952123833E0,-1.014072890E0,2.588391631E0,-9.289179146E-1,2.931041377E0
8.962150833E0,-1.867899034E0,2.388358383E0,-1.567700497E0,3.413354276E0
8.972177833E0,-1.900530444E0,2.106857634E0,-1.762861260E0,3.340440821E0
8.982203833E0,-1.744274423E0,2.154194353E0,-1.819529550E0,3.315680075E0
8.992230833E0,-1.616767846E0,2.063844931E0,-1.732820604E0,3.142620151E0
9.002257833E0,-1.441616986E0,1.622911077E0,-1.490559350E0,2.633223704E0
9.012283833E0,-1.104600213E0,1.192635527E0,-1.575075005E0,2.263488989E0
9.022310833E0,-5.659637705E-1,4.717510200E-1,-1.669403458E0,1.824766264E0
9.032337833E0,-7.408159107E-2,-8.212355912E-2,-1.663266805E0,1.666939958E0
9.042363833E0,3.541953074E-1,-5.031488138E-1,-1.986704954E0,2.079809996E0
9.052390833E0,6.004010567E-1,-5.714080399E-1,-2.266764949E0,2.413547578E0
9.062417833E0,7.719068719E-1,-5.039288324E-1,-2.077616878E0,2.272944429E0
9.072443833E0,7.773091145E-1,-4.646700418E-1,-1.614347829E0,1.851012323E0
9.082470833E0,1.137873282E0,-3.149684572E-1,-8.819140483E-1,1.473680130E0
9.092497833E0,1.660352406E0,-1.460692942E-1,-3.324419841E-1,1.699595253E0
9.102523833E0,1.866921233E0,1.156199187E-1,-8.012774362E-1,2.034897635E0
9.112550833E0,1.755989027E0,2.688619924E-1,-2.020280397E0,2.690226220E0
9.122577833E0,1.209299945E0,1.846936619E-1,-3.746237394E0,3.940915213E0
9.132604833E0,6.411363789E-1,-4.280232024E-1,-5.027326090E0,5.086085660E0
9.142630833E0,2.122357287E-1,-1.287931108E0,-5.817926949E0,5.962556879E0
9.152657833E0,1.955164196E-1,-1.910744945E0,-6.504856090E0,6.782501431E0
9.162684833E0,3.583871763E-1,-1.966983465E0,-6.811944255E0,7.099299250E0
9.172710833E0,8.908342682E-1,-1.675941229E0,-6.492606173E0,6.764340294E0
9.182737833E0,1.869320930E0,-1.576483015E0,-5.833441951E0,6.325243429E0
9.192764833E0,3.127262839E0,-2.227881550E0,-5.117048106E0,6.397453430E0
9.202790833E0,4.595809469E0,-3.705233209E0,-3.428661663E0,6.826854225E0
9.212817833E0,5.465829257E0,-5.193720306E0,-1.834970292E0,7.759970107E0
9.222844833E0,5.830805442E0,-6.734619505E0,-3.148827955E-1,8.913615605E0
9.232870833E0,5.976914497E0,-7.231412981E0,4.768411674E-1,9.393839369E0
9.242897833E0,5.981757161E0,-7.905614487E0,1.163448565E0,9.981671789E0
9.252924833E0,4.017299693E0,-6.677056591E0,2.048373199E0,8.057146784E0
9.262950833E0,-3.857941724E-2,-4.022279767E0,-1.287958006E0,4.223630987E0
9.272977833E0,-5.502294248E0,-2.553715303E0,-9.079688028E0,1.091958967E1
9.283004833E0,-7.612316396E0,-2.638319836E0,-8.652588100E0,1.182266355E1
9.293030833E0,-5.571808872E0,-3.582728779E0,-2.403744162E0,7.046913196E0
9.303057833E0,-2.858862777E0,-4.837071142E0,5.311160463E-1,5.643796405E0
9.313084833E0,-1.707358612E0,-5.905069174E0,7.398657382E-1,6.191309771E0
9.323110833E0,-1.166865751E0,-6.555325747E0,5.789001870E-1,6.683486871E0
9.333137833E0,-7.415895704E-1,-6.484266874E0,1.239926637E0,6.643274046E0
9.343164833E0,-4.283410717E-1,-5.686006747E0,2.095849081E0,6.075091125E0
9.353190833E0,-3.142124853E-1,-4.466198040E0,2.578231509E0,5.166520312E0
9.363217833E0,-5.014735135E-1,-3.513242807E0,2.923928254E0,4.598228696E0
9.373244833E0,-4.826751902E-1,-2.847137940E0,3.832484994E0,4.798657210E0
9.383270833E0,3.683815297E-2,-2.324476967E0,3.355673794E0,4.082290635E0
9.393297833E0,-7.158211834E-1,-1.250734631E0,2.145498959E0,2.584550805E0
9.403324833E0,-8.663113381E-1,-6.844493365E-1,1.862672646E0,2.165298043E0
9.413351833E0,-2.931877251E-1,-4.075597018E-1,1.525881795E0,1.606355878E0
9.423377833E0,8.155648153E-1,2.514928383E-1,1.373436697E0,1.617010506E0
9.433404833E0,2.023138808E0,6.559336352E-1,2.007210262E0,2.924420047E0
9.443431833E0,3.413671156E0,7.433348912E-1,2.605126069E0,4.358024709E0
9.453457833E0,4.247399908E0,5.992074573E-1,2.598432177E0,5.015107709E0
9.463484833E0,3.916295475E0,5.332146120E-1,3.301350237E0,5.149815672E0
9.473511833E0,2.670523668E0,6.912385386E-1,4.531783335E0,5.305333879E0
9.483537833E0,1.511933847E0,1.071737326E0,5.670534430E0,5.965695733E0
9.493564833E0,1.453703765E0,1.669954265E0,6.422979868E0,6.793870198E0
9.503591833E0,1.627666178E0,2.116146521E0,6.473432568E0,7.002335503E0
9.513617833E0,1.478021312E0,2.574395735E0,6.396682600E0,7.051922340E0
9.523644833E0,1.720862171E0,2.914471552E0,6.490929192E0,7.320360156E0
9.533671833E0,1.819779519E0,3.220355775E0,6.364642782E0,7.361451389E0
9.543697833E0,1.530227154E0,3.641651756E0,5.754526175E0,6.979813332E0
9.553724833E0,1.125234964E0,3.964463668E0,5.216802190E0,6.648168995E0
9.563751833E0,7.808412713E-1,4.213461499E0,5.089048129E0,6.652922798E0
9.573777833E0,8.759380478E-1,4.539301684E0,5.056911832E0,6.851633712E0
9.583804833E0,-6.022050324E-1,3.794872195E0,4.293280086E0,5.761593510E0
9.593831833E0,-1.231739074E0,3.061281688E0,3.902896580E0,5.110893115E0
9.603857833E0,-5.855585942E-1,2.646607094E0,3.846164555E0,4.705357560E0
9.613884833E0,4.518240014E-1,2.162671062E0,3.776556961E0,4.375348389E0
9.623911833E0,9.605452117E-1,1.989340879E0,3.511023204E0,4.148181309E0
9.633938833E0,1.144170880E0,2.274907197E0,3.292065443E0,4.161973647E0
9.643964833E0,9.811972851E-1,3.061434301E0,2.837136278E0,4.287711551E0
9.653991833E0,5.773146048E-1,4.231620612E0,2.129579914E0,4.772317652E0
9.664017833E0,6.322184980E-2,5.642587663E0,1.253312083E0,5.780448401E0
9.674044833E0,-5.460761476E-1,6.836382692E0,4.700687760E-1,6.874248478E0
9.684071833E0,-1.171617710E0,7.522178643E0,-3.985976744E-1,7.623302414E0
9.694098458E0,-1.472968294E0,7.768705441E0,-1.694969239E0,8.086738560E0
9.704124458E0,-1.288813453E0,7.463121765E0,-3.708571385E0,8.432836314E0
9.714151458E0,-1.604165634E0,5.964268139E0,-6.704631475E0,9.115806329E0
9.724178458E0,-3.243623892E0,2.227894413E0,-1.131369103E1,1.197848964E1
9.734204458E0,-5.077698684E0,-5.165487025E0,-1.715064716E1,1.861746433E1
9.744231458E0,-9.696675113E0,-1.984639250E1,-2.765922453E1,3.539685728E1
9.754258458E0,-9.326279730E0,-3.856809645E1,-1.534679048E1,4.254411282E1
9.764284458E0,-6.632847548E-1,-4.117371632E1,1.270111836E1,4.309330887E1
9.774311458E0,4.439673901E0,-1.929070937E1,2.800848106E1,3.429748072E1
9.784338458E0,9.046465610E-1,8.854625773E-1,2.706476151E1,2.709434895E1
9.794364458E0,-1.772885872E0,1.062994102E1,1.713933630E1,2.024587907E1
9.804391458E0,-5.121518887E0,1.676780773E1,-4.398786660E0,1.807591369E1
9.814418458E0,-9.362835060E-1,1.947647658E1,-1.801772959E1,2.654898014E1
9.824444458E0,5.707598761E0,1.274149689E1,6.326125419E0,1.532782729E1
9.834471458E0,4.111572889E0,5.266289515E0,1.995487238E1,2.104366338E1
9.844498458E0,8.437426937E-1,9.813656849E-1,1.513990547E1,1.519512152E1
9.854524458E0,-2.792103654E0,-4.242049121E0,1.006243950E1,1.127135805E1
9.864551458E0,-2.029142729E0,-6.903855468E0,1.787477160E0,7.414561021E0
9.874578458E0,1.187878086E0,-9.236659455E0,-1.249601733E0,9.396192672E0
9.884604458E0,4.058307094E0,-1.071643303E1,6.811082375E-1,1.147935982E1
9.894631458E0,6.404002730E0,-1.151883357E1,4.975252542E-1,1.318871901E1
9.904658458E0,5.675681149E0,-9.313256811E0,5.121213663E-1,1.091844207E1
9.914684458E0,2.462893426E0,-5.527522645E0,3.971358705E-1,6.064409907E0
9.924711458E0,1.762765950E0,-2.245516167E0,5.466366032E-1,2.906630047E0
9.934738458E0,2.080882548E0,4.310304254E-1,2.125383075E0,3.005513704E0
9.944764458E0,2.271690351E0,2.223865097E0,2.762890087E0,4.211854064E0
9.954791458E0,2.226250469E0,3.329813313E0,1.663965401E0,4.337352730E0
9.964818458E0,1.731698816E0,4.079947931E0,4.142285974E-1,4.451554924E0
9.974845458E0,6.302844583E-1,4.405673511E0,-3.973487091E-1,4.468232713E0
9.984871458E0,-5.558959615E-1,3.952442377E0,-8.170478153E-1,4.074111952E0
9.994898458E0,-1.060788269E0,3.190338508E0,-1.356994911E0,3.625598811E0
1.000492546E1,-1.585551169E0,3.364919411E0,-8.664741831E-1,3.819349770E0
1.001495146E1,-1.903598039E0,3.309403022E0,-7.991611826E-1,3.900575913E0
1.002497846E1,-1.839984865E0,2.716129319E0,-1.468824080E0,3.594488414E0
1.003500546E1,-1.668354760E0,2.277324436E0,-1.606892045E0,3.248340535E0
1.004503146E1,-1.221814302E0,2.183674845E0,-1.250926419E0,2.797513704E0
1.005505846E1,-6.862548105E-1,7.505702358E-1,-1.123143708E0,1.515174291E0
1.006508546E1,-8.177955280E-1,-5.522209865E-1,-1.055959200E0,1.445263773E0
1.007511146E1,4.899930172E-2,-7.236180800E-1,-1.557916936E0,1.718467118E0
1.008513846E1,1.005672122E0,1.344099462E-1,-2.227261160E0,2.447475174E0
1.009516546E1,1.025524808E0,1.044067132E0,-2.134761132E0,2.588239247E0
1.010519146E1,8.529233339E-1,1.226519557E0,-1.334108909E0,2.002916628E0
1.011521846E1,7.593689798E-1,9.766692013E-1,-7.072763548E-1,1.425048707E0
1.012524546E1,7.919943966E-1,8.787423724E-1,-5.691387355E-1,1.312768899E0
1.013527146E1,9.108264101E-1,7.344342595E-1,-7.416216570E-1,1.385280157E0
1.014529846E1,1.148798220E0,7.632598633E-1,-1.231169847E0,1.848805604E0
1.015532546E1,1.202250615E0,6.936949539E-1,-1.754288072E0,2.236994830E0
1.016535146E1,7.002270247E-1,2.854715931E-1,-1.845935430E0,1.994815663E0
1.017537846E1,5.878047290E-1,4.562061971E-1,-2.494128667E0,2.602751679E0
1.018540546E1,1.806222091E-1,3.985772091E-1,-3.251043132E0,3.280361203E0
1.019543146E1,-3.707856489E-1,2.064377028E-1,-4.288855498E0,4.309800460E0
1.020545846E1,-5.984389870E-1,-9.112949914E-1,-4.904926910E0,5.024628919E0
1.021548546E1,-1.762733790E-1,-1.553435045E0,-4.777580985E0,5.026879033E0
1.022551146E1,9.950396179E-1,-3.193509454E-1,-4.322787475E0,4.447311595E0
1.023553846E1,1.553877387E0,1.816582553E0,-4.636561346E0,5.216532203E0
1.024556546E1,7.826585128E-1,1.249634770E0,-4.236559170E0,4.485819324E0
1.025559146E1,7.872177330E-1,-5.878147423E-1,-3.099476870E0,3.251460410E0
1.026561846E1,1.261563674E0,-1.338717685E0,-2.284612551E0,2.933114804E0
1.027564546E1,1.136344747E0,-1.170741212E0,-2.641251045E0,3.104532405E0
1.028567146E1,1.480864228E0,-1.751158642E0,-2.509645423E0,3.399681691E0
1.029569846E1,2.267594377E0,-3.381041939E0,1.281918417E0,4.268107739E0
1.030572546E1,2.959449504E0,-5.703085295E0,2.727710314E0,6.980252632E0
1.031575246E1,4.227550073E0,-1.046427420E1,1.059376239E0,1.133558521E1
1.032577846E1,4.083352180E0,-1.394168234E1,3.249408835E0,1.488633364E1
1.033580546E1,2.040925015E0,-1.285666833E1,5.214280286E0,1.402312427E1
1.034583246E1,-3.286697991E-1,-8.575512443E0,4.381336230E0,9.635535514E0
1.035585846E1,-1.768902457E0,-5.227987913E0,1.904946846E0,5.838638198E0
1.036588546E1,-1.540591636E0,-3.808988543E0,7.624090934E-1,4.178885489E0
1.037591246E1,-1.706374964E0,-3.755014649E0,8.640138940E-1,4.214068170E0
1.038593846E1,-2.290756806E0,-4.751971934E0,9.816166035E-1,5.365852697E0
1.039596546E1,-2.541507486E0,-4.679316187E0,1.554145189E0,5.547127865E0
1.040599246E1,-2.134241022E0,-4.533098373E0,2.071185818E0,5.421602742E0
1.041601846E1,-1.538101745E0,-5.567263831E0,2.449664100E0,6.273837561E0
1.042604546E1,-3.781090307E-1,-4.591848273E0,2.905844277E0,5.447198176E0
1.043607246E1,-3.699594739E-1,-1.820136491E0,3.377961333E0,3.854917590E0
1.044609846E1,-2.337680419E0,-5.913721883E-1,4.388421886E0,5.007266465E0
1.045612546E1,-3.314398298E0,4.675725996E-1,5.673460962E0,6.587261912E0
1.046615246E1,-3.125756596E0,1.444933527E0,4.271840100E0,5.486966834E0
1.047617846E1,-3.262125360E0,2.419525797E0,2.768172462E0,4.915114009E0
1.048620546E1,-3.287225410E0,3.420595429E0,2.719794939E0,5.468419195E0
1.049623246E1,-3.184614377E0,3.984880391E0,3.239734325E0,6.042923047E0
1.050625846E1,-2.828457548E0,3.757320206E0,3.383070630E0,5.793340497E0
1.051628546E1,-2.169778791E0,3.656790197E0,3.550261529E0,5.539351178E0
1.052631246E1,-2.199225077E0,4.048860040E0,3.681632677E0,5.897819744E0
1.053633846E1,-1.941494429E0,4.009139904E0,3.910208523E0,5.927253502E0
1.054636546E1,-1.587866082E0,3.855860408E0,4.410148093E0,6.069463270E0
1.055639246E1,-1.720029820E0,3.670762119E0,4.717590891E0,6.220020975E0
1.056641846E1,-1.255232309E0,3.288612077E0,3.293971927E0,4.820874257E0
1.057644546E1,-4.616007652E-1,2.812132999E0,1.929475331E0,3.441517444E0
1.058647246E1,-2.813793462E-1,1.897087603E0,2.377364156E0,3.054500948E0
1.059649846E1,-1.168973891E-1,6.374979490E-1,3.647484646E0,3.704620476E0
1.060652546E1,3.302636039E-1,8.260069191E-2,3.882711407E0,3.897607573E0
1.061655246E1,1.011989307E0,-6.324594033E-1,3.423559090E0,3.625587414E0
1.062657946E1,1.803713124E0,-1.980758336E0,3.451813129E0,4.369416265E0
1.063660546E1,1.087373877E0,-5.306909537E0,2.809302069E0,6.102282270E0
1.064663246E1,7.340342369E-1,-3.886862930E0,1.622589772E0,4.275430653E0
1.065665946E1,4.167624883E-1,-7.309370399E-2,1.521225657E0,1.578974719E0
1.066668546E1,-1.927251781E-1,3.031033457E0,2.051830072E0,3.665284908E0
1.067671246E1,-1.010088085E0,2.892509995E0,2.494097385E0,3.950621947E0
1.068673946E1,-9.723027930E-1,3.405248827E0,3.350349611E0,4.875031775E0
1.069676646E1,-7.290261698E-1,4.688377617E0,3.674242381E0,6.001034987E0
1.070679346E1,-1.494364572E0,3.458147417E0,3.556975302E0,5.181117865E0
1.071682046E1,-2.283181299E0,8.674747878E-1,2.579507956E0,3.552364093E0
1.072684646E1,-1.223415635E0,-1.143566862E0,2.047766258E0,2.645342630E0
1.073687346E1,7.073319764E-1,-1.856914308E0,2.424293616E0,3.134589098E0
1.074690046E1,1.295267171E0,-3.372514944E0,1.601735677E0,3.951851626E0
1.075692646E1,6.707560346E-2,-4.708783815E0,1.109123254E0,4.838108984E0
1.076695346E1,-6.109859423E-1,-4.649411187E0,1.057859545E0,4.807223214E0
1.077698046E1,-1.707877113E0,-5.060275735E0,-6.130627272E-1,5.375786515E0
1.078700646E1,-2.823106176E0,-4.268233538E0,-2.252446580E0,5.591177122E0
1.079703346E1,-1.470982872E0,-1.813128018E0,-3.289541785E0,4.033895013E0
1.080706046E1,4.136539623E-1,1.512942492E0,-2.395561861E0,2.863358380E0
1.081708646E1,1.237104186E0,2.315278128E0,-8.734328082E-1,2.766554617E0
1.082711346E1,1.604589411E0,1.035181119E0,1.367053292E0,2.348433910E0
1.083714046E1,6.409226632E-1,6.805317020E-1,3.063342247E0,3.202806735E0
1.084716646E1,-1.081522642E0,4.941131115E-2,2.802702609E0,3.004542331E0
1.085719346E1,-2.093443683E0,-2.128371879E0,1.482199147E0,3.333074800E0
1.086722046E1,-1.360090574E0,-2.119829682E0,4.142497936E-1,2.552474709E0
1.087724646E1,1.190118593E0,-7.565648013E-1,-2.105360162E-1,1.425867447E0
1.088727346E1,2.764063039E0,-6.947053528E-1,-5.280541518E-1,2.898534319E0
1.089730046E1,2.596702863E0,-1.147457600E-1,-5.949293420E-2,2.599917644E0
1.090732646E1,9.715466018E-1,6.608581603E-1,7.688711438E-1,1.404207657E0
1.091735346E1,-2.321687407E0,8.979551536E-1,1.117897586E0,2.728781942E0
1.092738046E1,-4.823795038E0,1.218653297E0,3.373080370E-1,4.986771615E0
1.093740646E1,-4.096808962E0,3.752304465E-1,-2.547194196E0,4.838681621E0
1.094743346E1,-3.924291542E0,-6.152522171E-1,-4.145511298E0,5.741416491E0
1.095746046E1,-3.541633378E0,-1.120896038E0,-3.385800987E0,5.026253400E0
1.096748646E1,-1.452373816E0,-4.054641182E0,-2.148940776E0,4.813257865E0
1.097751346E1,1.754998655E0,-7.812915654E0,1.613500568E0,8.168540590E0
1.098754046E1,2.036481131E0,-7.147687284E0,4.730840682E0,8.810081865E0
1.099756746E1,2.445265825E0,-7.220628376E0,4.728030510E0,8.970566961E0
1.100759346E1,4.333703350E0,-9.170802850E0,3.385598674E0,1.069331043E1
1.101762046E1,4.587449997E0,-1.036337113E1,6.578560536E-1,1.135239769E1
1.102764746E1,3.740183479E0,-1.032824808E1,-7.106764376E-1,1.100757656E1
1.103767346E1,2.349003698E0,-1.015361280E1,-1.059095646E0,1.047546442E1
1.104770046E1,1.260791549E0,-9.975836391E0,-1.424821297E0,1.015563995E1
1.105772746E1,2.383506364E-1,-8.887187748E0,6.687109709E-2,8.890634895E0
1.106775346E1,9.696022564E-1,-4.971667614E0,1.971693982E0,5.435548230E0
1.107778046E1,-1.375282663E-1,-3.744350497E0,4.614377010E-1,3.775182038E0
1.108780746E1,-1.134070692E0,-3.336941653E0,-8.430445361E-1,3.623812912E0
1.109783346E1,6.481550843E-2,-3.327533484E-1,-1.025020558E-2,3.391620670E-1
1.110786046E1,-3.794638306E-2,2.347164749E0,2.502579063E0,3.431256950E0
1.111788746E1,-2.925810472E0,-5.413135904E-1,-1.143431792E0,3.187604678E0
1.112791346E1,-7.446166009E0,-2.980709980E0,-4.878523808E0,9.387758772E0
1.113794046E1,-6.734909527E0,4.887570620E-2,-3.310675376E0,7.504796241E0
1.114796746E1,-5.852703849E0,5.816968006E-1,-7.007963973E0,9.148992981E0
1.115799346E1,1.484847205E0,2.767536870E0,-1.079622589E-1,3.142560643E0
1.116802046E1,2.389100687E0,4.155705042E0,-4.209353538E-1,4.811951066E0
1.117804746E1,5.800369515E0,5.173052738E0,-6.399282272E0,1.006755058E1
1.118807346E1,9.726792952E0,5.249383460E0,-2.111508510E-1,1.105491350E1
1.119810046E1,1.396394152E1,8.371167458E0,-4.332013212E0,1.684738692E1
1.120812746E1,1.479625057E1,8.822951991E0,-1.867220610E0,1.732801274E1
1.121815346E1,1.427230146E1,8.432443355E0,1.548519291E0,1.664940244E1
1.122818046E1,1.097779422E1,7.629160470E0,1.834708337E0,1.349378412E1
1.123820746E1,9.447763821E0,6.264168906E0,1.506443896E0,1.143544606E1
1.124823346E1,8.976162490E0,5.949931936E0,1.603323489E0,1.088778349E1
1.125826046E1,8.233589491E0,6.526489034E0,1.065908237E0,1.056045526E1
1.126828746E1,7.407680805E0,7.394450310E0,4.655000541E-1,1.047703778E1
1.127831346E1,7.267130113E0,7.308126111E0,2.223234183E0,1.054337031E1
1.128834046E1,7.590931374E0,5.338171091E0,6.423759302E0,1.128640746E1
1.129836746E1,7.170503705E0,2.351368897E0,1.117867180E1,1.348731857E1
1.130839446E1,4.487607620E0,-9.514706254E-2,1.414870418E1,1.484363517E1
1.131842046E1,1.923909366E0,-2.430219769E0,1.485008004E1,1.517011116E1
1.132844746E1,-8.327013963E-1,-3.873249150E0,1.341908159E1,1.399168330E1
1.133847446E1,-3.924850536E0,-4.671500798E0,1.076812593E1,1.237658707E1
1.134850046E1,-6.314263757E0,-5.183316940E0,7.093501137E0,1.081917093E1
1.135852746E1,-7.595426713E0,-5.331878902E0,3.412016979E0,9.887431388E0
1.136855446E1,-7.766160733E0,-5.293273246E0,7.976713121E-2,9.398848705E0
1.137858046E1,-7.023759642E0,-5.110427889E0,-2.347621416E0,8.997833018E0
1.138860746E1,-6.771990230E0,-4.448702002E0,-3.336294951E0,8.762514775E0
1.139863446E1,-6.656366218E0,-4.790854164E0,-3.534062988E0,8.930234938E0
1.140866046E1,-6.670249262E0,-5.315452319E0,-2.725736879E0,8.954099626E0
1.141868746E1,-6.582239896E0,-5.952715210E0,-1.428662480E0,8.988980860E0
1.142871446E1,-6.340055240E0,-6.484803649E0,-8.171051180E-1,9.105857433E0
1.143874046E1,-6.011305481E0,-6.081828164E0,-8.173354983E-1,8.590254054E0
1.144876746E1,-5.378368360E0,-4.980094621E0,-1.546002649E0,7.491215712E0
1.145879446E1,-4.374153218E0,-3.936126891E0,-2.784182723E0,6.509837534E0
1.146882046E1,-3.606510867E0,-3.489729398E0,-3.769829155E0,6.276682544E0
1.147884746E1,-2.861701308E0,-3.922476859E0,-4.087426520E0,6.346827132E0
1.148887446E1,-1.815059646E0,-4.821749682E0,-3.706150053E0,6.346594341E0
1.149890046E1,-1.230088405E0,-4.707902347E0,-1.821291316E0,5.195629322E0
1.150892746E1,-1.046444318E0,-4.449396066E0,-8.596810341E-2,4.571603830E0
1.151895446E1,-6.328999910E-1,-4.609508033E0,7.686065573E-1,4.715811992E0
1.152898046E1,-6.671442094E-1,-4.797717041E0,7.036849219E-1,4.894726006E0
1.153900746E1,-9.272730929E-1,-4.713323593E0,9.176152468E-2,4.804547311E0
1.154903446E1,-6.796221676E-1,-4.695332295E0,-7.532131773E-1,4.803682103E0
1.155906046E1,1.217811298E-1,-4.886067885E0,-1.360809635E0,5.073489222E0
1.156908746E1,1.095648053E0,-4.655682911E0,-1.164918555E0,4.922688621E0
1.157911446E1,1.692902248E0,-4.051451526E0,-6.453718096E-1,4.438094440E0
1.158914046E1,1.944175377E0,-3.698867930E0,-3.114940417E-1,4.190282854E0
1.159916746E1,1.675170128E0,-3.652539856E0,-2.575160551E-1,4.026606124E0
1.160919446E1,1.544488659E0,-3.842806499E0,-5.956926960E-1,4.184191295E0
1.161922046E1,1.690551667E0,-3.755793498E0,-1.022634163E0,4.243787268E0
1.162924746E1,2.189763551E0,-3.474495063E0,-9.483838803E-1,4.215045947E0
1.163927446E1,3.248453108E0,-3.239201936E0,5.437910557E-5,4.587469539E0
1.164930146E1,3.873658455E0,-3.167382925E0,1.053546638E0,5.113463106E0
1.165932746E1,6.458726821E0,-3.395245410E0,4.353421623E0,8.496771350E0
1.166935446E1,4.446458717E0,-2.579576368E0,2.692046977E0,5.802786080E0
1.167938146E1,2.003573002E0,-1.827884637E0,2.173351586E-1,2.720790618E0
1.168940658E1,2.039462627E0,-1.857969146E0,3.224727738E-1,2.777669138E0
1.169943358E1,5.847145486E-1,-1.557873666E0,-9.098559916E-1,1.896496609E0
1.170946058E1,8.021722063E-1,-1.348592463E0,-7.287805867E-1,1.730116476E0
1.171948658E1,1.513146560E0,-1.301594882E0,-3.489969134E-1,2.026218299E0
1.172951358E1,1.995829242E0,-1.365195631E0,-8.900736916E-1,2.576688699E0
1.173954058E1,2.093359629E0,-1.554900942E0,-1.133707872E0,2.843442459E0
1.174956658E1,1.581167804E0,-1.571625148E0,-1.200569029E0,2.532086733E0
1.175959358E1,1.258428690E0,-1.605436088E0,-1.012397443E0,2.277282675E0
1.176962058E1,1.379416060E0,-1.733025842E0,-8.297052830E-1,2.365286048E0
1.177964658E1,1.898501752E0,-1.695624712E0,-4.341545928E-1,2.582235906E0
1.178967358E1,2.572089886E0,-1.512355431E0,-1.412839329E-1,2.987110055E0
1.179970058E1,2.847866503E0,-1.132598071E0,-9.998095572E-2,3.066450423E0
1.180972658E1,2.515886157E0,-9.278344256E-1,-3.212314099E-1,2.700694261E0
1.181975358E1,1.482182337E0,-1.032616530E0,-2.356498075E-1,1.821727809E0
1.182978058E1,6.911875948E-1,-1.026609685E0,-2.365841925E-1,1.260015800E0
1.183980658E1,1.008736209E0,-9.817112553E-1,1.037670279E-1,1.411408277E0
1.184983358E1,1.381081639E0,-6.607195812E-1,3.870061541E-1,1.579148702E0
1.185986058E1,1.405978499E0,-2.580937600E-1,1.928540361E-1,1.442421785E0
1.186988658E1,1.413381658E0,-1.891743833E-1,-5.097427189E-2,1.426896295E0
1.187991358E1,1.187441445E0,-3.356067896E-1,-1.392853546E-1,1.241792862E0
1.188994058E1,7.433875161E-1,-4.586778152E-1,-2.843126750E-1,9.186098380E-1
1.189996658E1,7.447700903E-1,-3.392472661E-1,-3.111163116E-1,8.755367235E-1
1.190999358E1,1.253484869E0,-2.245874602E-1,-2.692625266E-1,1.301601380E0
1.192002058E1,1.272959605E0,-3.486870110E-1,-8.559154272E-2,1.322624172E0
1.193004658E1,8.708123785E-1,-4.508495629E-1,1.778629446E-1,9.966016025E-1
1.194007358E1,7.534362486E-1,-2.832098901E-1,2.213130194E-1,8.347775004E-1
1.195010058E1,8.574131915E-1,-1.679384655E-1,1.355735421E-1,8.841611247E-1
1.196012658E1,7.681060356E-1,-1.827898085E-1,1.648844647E-1,8.065890420E-1
1.197015358E1,6.939370286E-1,-2.079287428E-1,3.400366402E-1,8.002548834E-1
1.198018058E1,8.623640290E-1,-1.210864806E-1,3.258764380E-1,9.298005739E-1
1.199020758E1,9.314266625E-1,5.145549774E-3,7.356674373E-2,9.343415704E-1
1.200023358E1,8.512896949E-1,1.880300832E-1,-1.683705747E-1,8.879178494E-1
1.201026058E1,8.206850758E-1,2.284612405E-1,-8.541612625E-2,8.561626287E-1
1.202028758E1,6.549825856E-1,1.738558477E-1,2.338857025E-1,7.168895069E-1
1.203031358E1,4.062899789E-1,1.309080487E-1,5.690106815E-1,7.113238502E-1
1.204034058E1,2.428006598E-1,5.143093944E-2,8.060573888E-1,8.434013374E-1
1.205036758E1,2.111181065E-2,-4.212275684E-2,7.836444265E-1,7.850596298E-1
1.206039358E1,-2.647360508E-1,-1.034027463E-1,5.884240222E-1,6.534677761E-1
1.207042058E1,-3.005021533E-1,-1.121683073E-1,4.661143041E-1,5.658142962E-1
1.208044758E1,8.552926987E-2,-7.320480108E-2,5.657110977E-1,5.768043386E-1
1.209047358E1,3.952492663E-1,-5.498546183E-2,5.101204491E-1,6.476636906E-1
1.210050058E1,2.701941343E-1,-1.491349894E-1,3.097989339E-1,4.372888001E-1
1.211052758E1,-2.039672542E-1,-2.537580496E-1,4.270572424E-2,3.283589003E-1
1.212055358E1,-5.311577077E-1,-2.616716713E-1,-1.702603948E-1,6.161080880E-1
1.213058058E1,-3.329767120E-1,-2.778304517E-1,7.869767547E-2,4.407454762E-1
1.214060758E1,-1.450233735E-1,-1.960056853E-1,1.150533235E-1,2.696057766E-1
1.215063358E1,-1.938506940E-1,-1.443279934E-1,-1.937182546E-3,2.416866027E-1
1.216066058E1,-2.393927564E-1,-1.497811067E-1,9.203517437E-2,2.970079882E-1
1.217068758E1,-1.557493597E-2,-1.573906732E-1,2.274695528E-1,2.770501761E-1
1.218071358E1,1.475996567E-1,-2.604887795E-1,2.121399075E-1,3.669378739E-1
1.219074058E1,1.392948563E-1,-4.029912722E-1,3.218716800E-1,5.342344063E-1
1.220076758E1,3.763048723E-2,-4.964303631E-1,5.961973107E-1,7.767305789E-1
1.221079358E1,-3.561742245E-1,-4.002155989E-1,5.166564667E-1,7.442892639E-1
1.222082058E1,-6.823721132E-1,-2.457052642E-1,2.704816711E-1,7.740562719E-1
1.223084758E1,-3.491825625E-1,-1.597792608E-1,2.887425256E-1,4.804478330E-1
1.224087358E1,2.754313391E-1,-1.565416574E-2,4.129666221E-1,4.966376007E-1
1.225090058E1,4.274731256E-1,9.501140714E-3,4.206013316E-1,5.997741449E-1
1.226092758E1,1.496432586E-1,-1.065742761E-1,3.623256415E-1,4.062401404E-1
1.227095358E1,-2.483601925E-1,-2.309427989E-1,2.811358827E-1,4.405164538E-1
1.228098058E1,-4.324238169E-1,-2.532622057E-1,3.349285126E-1,6.027513673E-1
1.229100758E1,-2.800107323E-1,-2.148202711E-1,4.391288191E-1,5.633718833E-1
1.230103358E1,-1.468365951E-1,-1.405775893E-1,3.389128053E-1,3.952023961E-1
1.231106058E1,-2.126016913E-1,-1.122080684E-1,2.653074700E-1,3.580198086E-1
1.232108758E1,-2.386662398E-1,-1.082348853E-1,2.946868050E-1,3.943560288E-1
1.233111358E1,-1.326883797E-1,-4.095623732E-2,2.347417349E-1,2.727403556E-1
1.234114058E1,-1.915226251E-1,-4.557144463E-2,2.131924063E-1,2.901873095E-1
1.235116758E1,-2.038691671E-1,-9.440855920E-2,3.515082926E-1,4.171734568E-1
1.236119358E1,-1.969929877E-1,-1.064181554E-1,3.167916191E-1,3.879278166E-1
1.237122058E1,-2.913762577E-1,-1.055691397E-1,2.536229789E-1,4.004617113E-1
1.238124758E1,-3.413918786E-1,-1.232025880E-1,2.448860693E-1,4.378315651E-1
1.239127458E1,-1.040990035E-1,-1.288983607E-1,3.980644083E-1,4.311689496E-1
1.240130058E1,-8.804152608E-3,-6.895329058E-2,2.340289593E-1,2.441344367E-1
1.241132758E1,-9.127503633E-2,-2.154932857E-2,-1.236820596E-1,1.552184193E-1
1.242135458E1,5.847215652E-6,1.354098201E-2,-1.480051904E0,1.480113846E0
1.243138058E1,6.045836797E-1,1.871278578E-1,-2.729990728E0,2.802389630E0
1.244140758E1,8.749242868E-1,1.037763834E-2,1.269886601E-1,8.841528842E-1
1.245143458E1,2.810762411E-1,-9.913720250E-2,1.130528156E0,1.169156085E0
1.246146058E1,-6.937823698E-2,-1.183815587E-1,1.162122416E0,1.170194874E0
1.247148758E1,-5.062402368E-2,2.874374270E-2,1.389242306E0,1.390461498E0
1.248151458E1,-2.624262545E-1,1.980679983E-1,1.502986438E0,1.538527446E0
1.249154058E1,-4.056725129E-1,7.199793577E-2,1.219736786E0,1.287443870E0
1.250156758E1,-5.132796997E-1,2.204903162E-1,4.960134566E-1,7.470618306E-1