"Time (s)","Linear Acceleration x (m/s^2)","Linear Acceleration y (m/s^2)","Linear Acceleration z (m/s^2)","Absolute acceleration (m/s^2)"
4.989333334E-3,1.010106504E-1,-5.230392873E-2,-2.841904682E-1,3.061095795E-1
1.501633332E-2,5.037610173E-2,-2.752284408E-3,-4.898352885E-1,4.924265799E-1
2.504333330E-2,-9.634691119E-2,-4.426400721E-2,-6.999339330E-1,7.079191622E-1
3.507033328E-2,-2.742323676E-1,-1.783120108E-1,-7.347353911E-1,8.042603183E-1
4.509633337E-2,-3.735274449E-1,-3.180265510E-1,-6.154562849E-1,7.870515090E-1
5.512333335E-2,-2.387099478E-1,-4.674123859E-1,-2.811271119E-1,5.953899821E-1
6.515033334E-2,3.967853299E-1,-6.490146250E-1,4.912017828E-1,9.055041540E-1
7.517733332E-2,1.390483670E0,-3.017847401E-1,4.361356294E-1,1.488197955E0
8.520433330E-2,8.386626327E-1,-2.709769303E-1,-3.481227547E-1,9.476143522E-1
9.523033327E-2,5.480642009E-1,-5.302272695E-1,-1.291717181E0,1.500016200E0
1.052573334E-1,6.048125982E-1,-5.290484709E-1,-1.603142810E0,1.793253310E0
1.152843334E-1,6.349547026E-1,-4.705932713E-1,-1.760835199E0,1.930068937E0
1.253113333E-1,6.216271439E-1,-5.188520962E-1,-2.025215886E0,2.181083948E0
1.353383333E-1,5.474715856E-1,-5.567420536E-1,-2.261918192E0,2.392897983E0
1.453653333E-1,3.714218625E-1,-5.983642888E-1,-2.529944032E0,2.626139910E0
1.553923333E-1,-4.259901255E-2,-8.039196467E-1,-2.755158314E0,2.870365623E0
1.654183334E-1,-4.450719291E-1,-1.240884411E0,-2.995301122E0,3.272569626E0
1.754453334E-1,-1.277463131E0,-2.090847958E0,-3.033434908E0,3.899395412E0
1.854723333E-1,-2.064875503E0,-3.182342441E0,-3.402502390E0,5.095884297E0
1.954993333E-1,-1.303356063E0,-2.612747038E0,-3.076069881E0,4.241154327E0
2.055263333E-1,1.144896519E0,-3.198660266E0,-2.321476761E0,4.114786737E0
2.155523333E-1,1.710851153E0,-3.794063232E0,-3.011158771E0,5.137022934E0
2.255793334E-1,-1.756506506E0,-2.044088359E0,-1.912754048E0,3.304881295E0
2.356063334E-1,-2.874363745E0,-1.629625434E0,-1.034781754E0,3.462429678E0
2.456333333E-1,-2.750832544E0,-2.572890662E0,-1.773489743E0,4.163185309E0
2.556603333E-1,-2.596873602E0,-3.729109145E0,-2.767914015E0,5.320841617E0
2.656863333E-1,-2.826288815E0,-4.081063580E0,-3.525214396E0,6.088524037E0
2.757133333E-1,-3.151404238E0,-3.739351420E0,-4.089085960E0,6.374536980E0
2.857403334E-1,-3.328362619E0,-3.346500974E0,-4.473769600E0,6.503205434E0
2.957673334E-1,-3.342787115E0,-3.375156716E0,-4.590917981E0,6.606242234E0
3.057933333E-1,-3.531601894E0,-3.780749999E0,-4.305542282E0,6.730822895E0
3.158203333E-1,-3.914806189E0,-4.178293421E0,-3.960948907E0,6.962252484E0
3.258473333E-1,-4.186384213E0,-4.429408529E0,-3.830261883E0,7.198359451E0
3.358743333E-1,-4.111155691E0,-4.566010596E0,-3.764059122E0,7.205428159E0
3.459003334E-1,-3.700023925E0,-4.794135329E0,-3.357815629E0,6.924509831E0
3.559273334E-1,-3.382010822E0,-4.824956880E0,-2.553777868E0,6.421836770E0
3.659543333E-1,-3.089135485E0,-4.501785072E0,-1.409882392E0,5.638846977E0
3.759813333E-1,-2.815878725E0,-3.999911243E0,-1.892275929E-1,4.895331453E0
3.860083333E-1,-2.436991430E0,-3.707485849E0,7.575790009E-1,4.500922627E0
3.960343333E-1,-2.224506537E0,-3.896770745E0,1.498290246E0,4.730552318E0
4.060613334E-1,-2.094596608E0,-4.111479626E0,1.922200810E0,4.998645378E0
4.160883334E-1,-1.599036895E0,-4.403650667E0,2.135287966E0,5.148641849E0
4.261153333E-1,-9.692081541E-1,-4.753965835E0,2.660226137E0,5.533205102E0
4.361423333E-1,-1.718099070E-1,-5.029486052E0,3.991322853E0,6.423076109E0
4.461683333E-1,5.065559864E-1,-5.297351094E0,5.422585589E0,7.597562902E0
4.561953333E-1,1.173377137E0,-5.133361838E0,5.961398910E0,7.954023801E0
4.662223334E-1,1.967739510E0,-4.593510051E0,5.240831323E0,7.241453330E0
4.762493334E-1,3.284282799E0,-3.784839834E0,3.814719691E0,6.297905397E0
4.862753333E-1,5.379626096E0,-3.278389975E0,2.902894942E0,6.936498886E0
4.963023333E-1,7.519708779E0,-2.584666077E0,3.000471815E0,8.498785205E0
5.063293333E-1,8.652960568E0,-2.130642646E0,3.805884840E0,9.690104442E0
5.163563333E-1,8.239859460E0,-2.350353528E0,4.351514553E0,9.610157363E0
5.263833334E-1,7.664414502E0,-2.871484869E0,5.202520366E0,9.698190201E0
5.364093333E-1,7.960464878E0,-3.556568921E0,5.580018362E0,1.035155971E1
5.464363333E-1,8.940907288E0,-3.952208489E0,4.880883159E0,1.092624343E1
5.564633333E-1,9.695113322E0,-3.557696849E0,4.873408663E0,1.141939321E1
5.664903333E-1,1.076411591E1,-2.966469086E0,4.420788271E0,1.200872595E1
5.765163333E-1,1.178239799E1,-2.444119771E0,3.463956918E0,1.252188569E1
5.865433334E-1,1.168442087E1,-1.872117653E0,2.015437002E0,1.200385363E1
5.965703333E-1,1.185089110E1,-1.226152936E0,4.605728978E-1,1.192305323E1
6.065973333E-1,1.181114875E1,-2.813124686E-1,-4.376126361E-1,1.182260023E1
6.166243333E-1,1.118523939E1,4.030152458E-1,-1.390065886E0,1.127848770E1
6.266503333E-1,1.059298895E1,7.190046269E-1,-1.948700976E0,1.079471251E1
6.366773333E-1,9.319615073E0,1.299891003E0,-2.010083292E0,9.622129524E0
6.467043334E-1,8.102511288E0,1.339610555E0,-2.262959581E0,8.518581553E0
6.567313334E-1,7.004480202E0,1.319744639E0,-2.899502095E0,7.694906186E0
6.667573333E-1,5.940359459E0,8.087061775E-1,-3.503094379E0,6.943597512E0
6.767843333E-1,5.085690658E0,5.864038092E-1,-5.094863770E0,7.222586499E0
6.868113333E-1,2.978906699E0,-2.458420891E-1,-5.983845202E0,6.688850937E0
6.968383333E-1,9.169673753E-1,-1.116859120E0,-4.046701248E0,4.296975035E0
7.068653334E-1,-4.293563676E-1,-1.552015341E0,-2.331024095E0,2.833155809E0
7.168913333E-1,-1.498212771E0,-2.065422510E0,-9.745677119E-1,2.731372160E0
7.269183333E-1,-1.345853627E0,-2.439734944E0,3.008544481E-1,2.802524215E0
7.369453333E-1,-4.624533623E-1,-2.747054073E0,1.886570216E0,3.364419173E0
7.469723333E-1,1.637863576E-1,-2.660412955E0,3.068113575E0,4.064227352E0
7.569983334E-1,2.732672846E-1,-2.254179402E0,2.392014647E0,3.298140970E0
7.670253334E-1,-2.591749102E-1,-1.123126751E0,4.940789053E-1,1.254073083E0
7.770523333E-1,-5.159167939E-1,2.937062269E-1,-2.067521076E0,2.151064128E0
7.870793333E-1,5.547808975E-1,-1.604616308E-1,-4.085098743E-2,5.789633688E-1
7.971063333E-1,1.185475026E0,-1.701344458E0,4.523152260E0,4.975824592E0
8.071323333E-1,-1.497944384E0,1.367827463E-1,6.782337463E0,6.947132384E0
8.171593333E-1,-1.244076406E0,2.730260285E0,-7.211607876E-1,3.085793287E0
8.271863334E-1,9.920848006E-1,4.047554356E0,-7.225943495E0,8.341533907E0
8.372133333E-1,7.190765476E-1,2.597520304E0,-4.600826672E0,5.332146742E0
8.472403333E-1,-1.487847996E0,4.411683279E-1,-1.652010622E0,2.266596623E0
8.572663333E-1,-2.123136867E0,8.389345282E-1,-1.036171052E0,2.507024481E0
8.672933333E-1,-3.092397062E0,1.662885566E0,-2.283150601E-1,3.518555920E0
8.773203333E-1,-2.991068323E0,4.366132885E0,-3.302618498E0,6.238340726E0
8.873473334E-1,-7.595626688E-1,5.070758623E0,-3.957956886E-1,5.142585215E0
8.973733333E-1,-2.586422288E-1,4.686474933E0,-4.208758584E-1,4.712438815E0
9.074003333E-1,-1.983069155E0,4.717055286E0,-1.800146030E0,5.424361675E0
9.174273333E-1,-2.804852630E0,4.738790556E0,-1.356633261E0,5.671312725E0
9.274543333E-1,-2.611094030E0,4.910819149E0,-8.870921963E-1,5.632130087E0
9.374813333E-1,-2.648230866E0,4.520362553E0,-1.321128383E0,5.402979228E0
9.475073334E-1,-3.524716798E0,3.591773252E0,-2.427768617E0,5.587353940E0
9.575343333E-1,-4.495527674E0,2.197133381E0,-3.171233316E0,5.924009192E0
9.675615833E-1,-4.660608605E0,2.833828508E0,-2.443326888E0,5.976763578E0
9.775885834E-1,-4.324459194E0,3.544414313E0,-2.414988942E0,6.090647891E0
9.876145833E-1,-6.236213368E-1,2.411267189E0,-1.358310535E0,2.836920961E0
9.976415833E-1,-5.557854491E-1,1.841561274E0,-9.585260220E-1,2.149189970E0
1.007668583E0,-6.527977735E-1,1.651865319E0,3.592296578E0,4.007417955E0
1.017695583E0,-8.453284585E-1,-4.321367186E-1,4.541257578E0,4.639433450E0
1.027722583E0,-1.463537028E0,-2.411042656E0,1.684120753E0,3.285015987E0
1.037748583E0,-1.235031348E0,-1.512020971E0,-1.085621832E-1,1.955324933E0
1.047775583E0,7.305400139E-1,-1.076466554E-1,-2.465626999E0,2.573828474E0
1.057802583E0,2.445888553E0,-3.269494021E-1,-2.706392536E0,3.662489220E0
1.067829583E0,4.764497840E0,3.770933694E-1,-1.818983274E0,5.113838013E0
1.077855583E0,7.665778658E0,1.198338901E0,1.923092218E-1,7.761260296E0
1.087882583E0,7.952558858E0,-9.827017736E-1,1.836266182E-1,8.015149025E0
1.097909583E0,6.704766546E0,-2.755516748E0,-1.068423709E0,7.327229777E0
1.107936583E0,7.124804206E0,-3.898297160E0,4.198172931E-1,8.132392162E0
1.117963583E0,2.115050168E0,-3.650775166E0,-4.115089697E0,5.893688127E0
1.127989583E0,-7.477822834E-1,2.662845397E-1,-5.340006532E0,5.398680909E0
1.138016583E0,-2.735411390E0,1.513938857E0,-6.334721410E-1,3.189948791E0
1.148043583E0,-3.431534985E-1,6.659692115E-1,2.252363257E0,2.373691125E0
1.158070583E0,2.017991651E0,7.732287812E-1,3.263738022E0,3.914352938E0
1.168096583E0,1.241441651E0,2.234874820E0,2.148500919E0,3.339445917E0
1.178123583E0,-5.127171975E-1,3.947931250E0,8.916371640E-1,4.079712847E0
1.188150583E0,-1.689821350E0,4.760345147E0,-4.776596314E-1,5.073907847E0
1.198177583E0,-2.163198188E0,4.962326102E0,-1.061340392E0,5.516389233E0
1.208204583E0,-2.276227498E0,4.841505670E0,-5.024670285E-1,5.373440415E0
1.218230583E0,-2.242470353E0,4.423174227E0,-6.749745083E-1,5.004871039E0
1.228257583E0,-1.618531512E0,4.290788003E0,-4.385937989E-2,4.586112688E0
1.238284583E0,-1.296313092E0,3.991822205E0,8.516095376E-1,4.282558926E0
1.248311583E0,-1.042133458E0,3.647421203E0,6.036642051E-1,3.841111044E0
1.258337583E0,-8.618094206E-1,3.527320563E0,4.627006996E-1,3.660436828E0
1.268364583E0,-1.153332297E0,3.286947960E0,-4.582697526E-1,3.513433284E0
1.278391583E0,-1.539746128E0,3.213906296E0,-9.023821536E-1,3.676180813E0
1.288418583E0,-2.486060094E0,3.503581452E0,3.012941587E-1,4.306548032E0
1.298445583E0,-3.425709696E0,3.584978203E0,8.020532886E-1,5.023031466E0
1.308471583E0,-3.633954481E0,3.697069327E0,9.667184097E-1,5.273375699E0
1.318498583E0,-3.555823985E0,4.056512876E0,1.200825868E0,5.526406037E0
1.328525583E0,-3.183136785E0,4.396213886E0,8.386848521E-1,5.492035015E0
1.338552583E0,-2.424535106E0,4.991182112E0,-4.222730505E-1,5.564942397E0
1.348578583E0,-2.412876051E0,4.436384257E0,-1.603656195E0,5.298602580E0
1.358605583E0,-2.870537035E0,2.706224720E0,-1.928795738E0,4.391342404E0
1.368632583E0,-1.758622467E0,4.487850280E0,4.422350062E-1,4.840364130E0
1.378659583E0,-2.154945647E-1,5.431778582E0,3.573171505E0,6.505244889E0
1.388686583E0,9.009225424E-1,4.755697196E0,3.257062840E0,5.834104523E0
1.398712583E0,1.616302700E0,-7.925916020E0,-7.125873077E-1,8.120366977E0
1.408739583E0,-1.865313102E0,-4.837528277E1,-6.136773865E0,4.879864106E1
1.418766583E0,-1.725605287E0,-5.182585570E1,-9.734783757E-1,5.186371268E1
1.428793583E0,2.536942419E-1,-2.819104049E1,3.340495006E0,2.838939999E1
1.438820583E0,-5.740262038E-1,-1.085558507E1,1.722391511E0,1.100635570E1
1.448846583E0,-1.603554015E0,-5.138188130E-1,1.009127826E0,1.963093024E0
1.458873583E0,-2.375891242E0,7.313436552E0,-1.092138993E0,7.766851420E0
1.468900583E0,-1.788028114E0,1.108902229E1,-2.913866365E0,1.160405434E1
1.478927583E0,-2.073780081E0,1.150774725E1,-2.734015367E0,1.200848245E1
1.488953583E0,-2.708912686E0,9.767692471E0,-2.831097858E0,1.052431182E1
1.498980583E0,-1.525167558E0,6.696819595E0,-2.414829313E0,7.280448433E0
1.509007583E0,-4.965012971E-1,4.639042320E0,-2.024183121E0,5.085719663E0
1.519034583E0,-1.047998216E0,-2.441292057E0,-1.759580387E0,3.186585995E0
1.529061583E0,1.702681789E-1,-8.218979053E0,-2.031833326E0,8.468113992E0
1.539087583E0,2.669925498E0,-6.220880799E0,-1.505448115E0,6.935000657E0
1.549114583E0,1.854525720E0,-3.292834352E0,-7.370720847E-1,3.850363486E0
1.559141583E0,-6.644935935E-1,-1.357825216E0,-5.771419658E-1,1.618126664E0
1.569168583E0,-1.856631010E0,3.221312964E-1,-8.912565833E-1,2.084510873E0
1.579194583E0,-1.749941106E0,1.050716586E0,-9.915819401E-1,2.269258461E0
1.589221583E0,-1.378451123E0,9.258820403E-1,-7.957067207E-1,1.841340337E0
1.599248583E0,-9.988329260E-1,4.602045232E-1,-6.935728202E-1,1.300191784E0
1.609275583E0,-4.261477080E-1,-2.157376993E-1,-7.744765770E-1,9.099223001E-1
1.619302583E0,1.334275043E-1,-7.842507827E-1,-7.152180431E-1,1.069761206E0
1.629328583E0,2.306377204E-1,-1.008092138E0,-7.979297590E-1,1.306191187E0
1.639355583E0,1.049892421E-1,-1.216805577E0,-8.221787471E-1,1.472282733E0
1.649382583E0,2.574076258E-1,-1.206746027E0,-6.907725155E-1,1.414093819E0
1.659409583E0,3.952946188E-1,-1.158638061E0,-5.676693668E-1,1.349425249E0
1.669435583E0,4.142084976E-1,-8.851228541E-1,-2.108926598E-1,9.997433973E-1
1.679462583E0,1.943001987E-1,-4.985289288E-1,-2.432377392E-1,5.877484647E-1
1.689489583E0,-9.664848134E-2,-4.001851934E-1,4.999193966E-2,4.147147357E-1
1.699516583E0,-6.463295835E-1,-1.725513339E-1,1.743637880E-2,6.691934852E-1
1.709543583E0,-8.029020850E-1,2.973893881E-3,-2.914363378E-1,8.541637672E-1
1.719569583E0,-9.018764426E-1,-1.160847723E-2,-6.612113321E-1,1.118354282E0
1.729596583E0,-9.646354122E-1,-1.925868183E-1,-1.010808755E0,1.410441597E0
1.739623583E0,-9.757799128E-1,-3.676764286E-1,-1.208607781E0,1.596266006E0
1.749650583E0,-1.041346350E0,-4.773777956E-1,-9.418192112E-1,1.483008836E0
1.759676583E0,-1.271600420E0,-7.364866322E-1,-1.067615039E0,1.816365068E0
1.769703583E0,-1.287000524E0,-8.457705081E-1,-6.896662223E-1,1.687405582E0
1.779730583E0,-1.273669311E0,-8.359658968E-1,-6.380972886E-1,1.651738673E0
1.789757583E0,-1.445632123E0,-8.268734765E-1,-8.342175794E-1,1.862656960E0
1.799784583E0,-1.714357436E0,-8.788487917E-1,-1.068583265E0,2.203013121E0
1.809810583E0,-1.991808696E0,-8.538402504E-1,-9.660079730E-1,2.372660207E0
1.819837583E0,-2.060189544E0,-8.148872691E-1,-5.307283759E-1,2.278177962E0
1.829864583E0,-1.938232121E0,-8.482158136E-1,-3.616551121E-1,2.146394242E0
1.839891583E0,-1.786963482E0,-7.926064539E-1,-7.092087865E-1,2.079528933E0
1.849918583E0,-1.756148656E0,-5.977438992E-1,-1.326232856E0,2.280405547E0
1.859944583E0,-2.005323073E0,-2.889185268E-1,-1.180646396E0,2.344935064E0
1.869971583E0,-2.336843829E0,-1.275470692E-1,-7.060850577E-1,2.444517016E0
1.879998583E0,-2.388911822E0,-8.276675284E-2,-8.286812894E-1,2.529913577E0
1.890025583E0,-2.343858733E0,-6.974091053E-2,-9.581070690E-1,2.533082453E0
1.900051583E0,-2.252003653E0,-9.801687598E-3,-1.092693455E0,2.503117159E0
1.910078583E0,-2.103341119E0,9.974999070E-2,-1.124747014E0,2.387268265E0
1.920105583E0,-1.965157672E0,2.347680473E-1,-7.973117083E-1,2.133697887E0
1.930132583E0,-1.896996825E0,3.746135652E-1,-2.521164438E-1,1.949998713E0
1.940159583E0,-1.732345957E0,6.359098452E-1,1.620517811E-1,1.852475270E0
1.950185583E0,-1.643069060E0,9.248383123E-1,4.190608826E-1,1.931479708E0
1.960212583E0,-1.605026783E0,1.161863970E0,6.226208782E-1,2.076943816E0
1.970238958E0,-1.593300776E0,1.370989637E0,9.278151298E-1,2.297620697E0
1.980265958E0,-1.685332004E0,1.498132079E0,1.420859078E0,2.665254999E0
1.990291958E0,-1.690182562E0,1.479814507E0,1.750026914E0,2.847659085E0
2.000318958E0,-1.593495196E0,1.620548801E0,1.332775744E0,2.634709954E0
2.010345958E0,-1.251227113E0,2.162108560E0,7.031004927E-1,2.595117148E0
2.020372958E0,-1.181418228E0,2.586402408E0,-3.403222767E-1,2.863746794E0
2.030399958E0,-8.139593160E-1,3.085560497E0,1.362985969E-2,3.191143858E0
2.040425958E0,-8.412009090E-2,4.026154132E0,1.174342220E0,4.194767328E0
2.050452958E0,2.708136468E-1,5.371746388E0,1.640247486E0,5.623114004E0
2.060479958E0,-5.303053299E-1,6.882608441E0,7.826112235E-1,6.947229881E0
2.070506958E0,-2.553343712E0,7.616793609E0,-1.857330630E0,8.245288719E0
2.080532958E0,-4.107709926E0,6.358340653E0,-5.460022388E0,9.333467800E0
2.090559958E0,-6.996221302E-1,4.942323947E0,-1.201176262E0,5.134088189E0
2.100586958E0,3.094840321E0,4.409447304E0,6.225417069E0,8.232683634E0
2.110613958E0,2.831537861E0,4.624914862E0,9.262738622E0,1.073339513E1
2.120640958E0,2.428216806E0,5.244219784E0,9.410273228E0,1.104315717E1
2.130666958E0,3.543669963E0,4.827202796E0,9.622241228E0,1.133344651E1
2.140693958E0,3.755604048E0,2.586949707E0,7.982534609E0,9.193352454E0
2.150720958E0,1.406620231E0,-3.019579346E0,1.486863910E0,3.647904082E0
2.160747958E0,-3.801237766E0,-1.120610928E1,-3.749757417E0,1.241317745E1
2.170773958E0,-7.893794925E0,-1.577716310E1,-3.792863091E0,1.804485201E1
2.180800958E0,-3.998925110E0,-1.595064063E1,-3.105860860E0,1.673501450E1
2.190827958E0,7.020891436E-1,-1.151689697E1,4.739618522E0,1.247380571E1
2.200854958E0,1.757553742E0,-5.969137700E0,5.669109464E0,8.417743293E0
2.210881958E0,1.797733030E0,-2.150093116E0,3.761814376E0,4.691054450E0
2.220907958E0,7.835571568E-1,-6.765526718E-1,2.240584041E0,2.468177907E0
2.230934958E0,-3.876404308E-1,-3.638371468E-2,-4.627755439E-1,6.047727526E-1
2.240961958E0,3.955784646E-1,9.332436848E-1,-1.258364078E0,1.615829895E0
2.250988958E0,1.648203793E0,1.041500790E0,-1.609399513E-1,1.956323415E0
2.261015958E0,1.685421759E0,-3.920230651E-1,1.120155196E0,2.061328758E0
2.271041958E0,1.940533439E0,-2.318092393E0,2.307525305E0,3.803142832E0
2.281068958E0,1.882933394E0,-3.775876345E0,3.042827291E0,5.202064808E0
2.291095958E0,1.350167995E0,-4.145698117E0,2.205079747E0,4.885912728E0
2.301122958E0,1.498270512E0,-3.135086414E0,-2.512621656E-2,3.474796782E0
2.311148958E0,1.567057596E0,-1.296608961E0,-2.418365855E0,3.159961664E0
2.321175958E0,4.453610008E-1,5.853010243E-1,-3.169728827E0,3.253936777E0
2.331202958E0,-1.137419831E0,1.864932595E0,-2.918817202E0,3.645708616E0
2.341229958E0,-2.407911765E0,2.094177362E0,-2.879525375E0,4.298288529E0
2.351256958E0,-2.385338150E0,1.860680500E0,-3.694762600E0,4.775273886E0
2.361282958E0,-1.648405522E0,1.272596201E0,-5.014154068E0,5.429409072E0
2.371309958E0,-8.400169940E-1,4.468412966E-1,-5.946218369E0,6.021860891E0
2.381336958E0,-2.958894676E-1,5.011531591E-1,-5.711460847E0,5.741035627E0
2.391363958E0,3.344081104E-2,2.484318209E-1,-5.502776059E0,5.508482642E0
2.401389958E0,5.125826750E-1,-4.586012167E-1,-5.753559630E0,5.794523664E0
2.411416958E0,9.522792222E-1,-5.483571464E-1,-5.759610913E0,5.863501441E0
2.421443958E0,1.231562488E0,2.974654019E-2,-5.358510631E0,5.498296754E0
2.431470958E0,1.251600750E0,6.418231344E-1,-5.497991282E0,5.675063833E0
2.441497958E0,1.042977211E0,1.158987724E0,-6.939104823E0,7.112118514E0
2.451523958E0,8.261672790E-1,1.764601976E0,-9.711939855E0,9.905460527E0
2.461550958E0,1.148599342E0,2.161353684E0,-1.239338174E1,1.263276063E1
2.471577958E0,1.827028312E0,2.249522679E0,-1.415734637E1,1.445091142E1
2.481604958E0,2.074288935E0,2.280902932E0,-1.442248953E1,1.474833540E1
2.491631958E0,1.337849373E0,2.143640129E0,-1.206247728E1,1.232430087E1
2.501657958E0,4.733856091E-1,1.226789698E0,-7.858244439E0,7.967503534E0
2.511684958E0,1.207016096E0,-9.200102663E-1,-2.669235234E0,3.070524952E0
2.521711958E0,2.581196047E0,-4.195265549E0,5.879837269E-1,4.960700648E0
2.531738958E0,3.605843407E0,-6.971195512E0,8.019061580E-1,7.889406000E0
2.541764958E0,3.906218091E0,-8.172232318E0,1.551634687E0,9.189749237E0
2.551791958E0,1.905753615E0,-9.274923050E0,3.111427117E0,9.966798540E0
2.561818958E0,-7.878093982E-1,-9.992220290E0,5.119630237E0,1.125503104E1
2.571845958E0,-3.153753065E0,-9.828692379E0,5.326612315E0,1.161559947E1
2.581872958E0,-5.768523239E0,-1.014179207E1,3.358058288E0,1.214118454E1
2.591898958E0,-9.543651141E0,-1.099010144E1,-3.135451865E0,1.488941453E1
2.601925958E0,-9.033122556E0,-1.153277684E1,-3.865353947E0,1.515068335E1
2.611952958E0,-4.354487278E0,-1.062604911E1,1.653105513E0,1.160203590E1
2.621979958E0,-3.331695239E0,-9.265856942E0,2.102820717E0,1.006867186E1
2.632005958E0,-4.259205144E0,-7.404539096E0,9.493422389E-2,8.542660018E0
2.642032958E0,-3.631202196E0,-5.396848485E0,-7.403697681E-1,6.546735855E0
2.652059958E0,-2.689297616E0,-3.569418762E0,1.226453483E-1,4.470806845E0
2.662086958E0,-2.131742215E0,-2.016227546E0,1.611410919E0,3.347557846E0
2.672113958E0,-1.513117031E0,-1.037408908E0,2.470860257E0,3.077481243E0
2.682139958E0,-1.243004904E0,-2.021323979E-2,2.445751144E0,2.743568556E0
2.692166958E0,-1.017200931E0,4.186132783E-1,2.488189065E0,2.720481508E0
2.702193958E0,2.881807543E-2,-2.830134237E-1,3.523981218E0,3.535444909E0
2.712220958E0,2.668101752E0,-5.747087932E-1,2.750892770E0,3.875108797E0
2.722246958E0,2.992748812E0,-4.452789205E-1,1.233616322E0,3.267510980E0
2.732273958E0,2.670667802E0,1.938001156E-1,1.538719357E0,3.088313821E0
2.742300958E0,2.534499598E0,1.489184670E0,2.411970609E0,3.802494104E0
2.752327958E0,2.491095132E0,2.541433811E0,4.112448510E0,5.438444035E0
2.762354958E0,2.802930066E0,3.406070945E0,5.429836721E0,6.995774658E0
2.772380958E0,3.093295194E0,4.254537020E0,6.496938960E0,8.359412435E0
2.782407958E0,2.699400435E0,4.866760379E0,6.623633505E0,8.651279680E0
2.792434958E0,2.033640262E0,5.441748084E0,6.033625472E0,8.375735864E0
2.802461958E0,2.216372329E0,5.718698530E0,5.782059544E0,8.428999451E0
2.812488958E0,2.546320914E0,6.104261007E0,5.795589416E0,8.794009854E0
2.822514958E0,2.549019696E0,6.319085371E0,6.041708663E0,9.106623134E0
2.832541958E0,2.445123737E0,6.352247270E0,6.009078861E0,9.079576214E0
2.842568958E0,2.188044762E0,6.445201042E0,5.190370436E0,8.559678827E0
2.852595958E0,1.723550136E0,6.768267308E0,4.031520122E0,8.064317821E0
2.862621958E0,1.205592372E0,7.531667504E0,2.820772260E0,8.132418122E0
2.872648958E0,-6.356288865E-1,8.161506186E0,9.829666525E-1,8.245024605E0
2.882675958E0,-1.743845237E0,8.934054351E0,-9.977276561E-1,9.157171170E0
2.892702958E0,-1.958260881E0,9.575932449E0,-2.599943098E0,1.011399882E1
2.902729958E0,-1.657805505E0,9.948041067E0,-3.745278450E0,1.075820389E1
2.912755958E0,-1.524910573E0,9.621954714E0,-4.133759272E0,1.058278463E1
2.922782958E0,-3.007949819E0,7.672110608E0,-5.449852325E0,9.879773968E0
2.932809958E0,-4.600020049E0,3.028962373E0,-9.864579080E0,1.129799619E1
2.942836958E0,-6.251112074E0,-4.084109395E0,-1.852464460E1,1.997295194E1
2.952862958E0,-6.326230084E0,-1.168786605E1,-1.443396294E1,1.962056793E1
2.962889958E0,1.616529425E0,-1.448538452E1,9.619270842E0,1.746338752E1
2.972917500E0,6.247484461E0,-1.271537621E1,3.188043242E1,3.488658518E1
2.982944500E0,3.106281568E0,-9.290148030E0,2.537057755E1,2.719599310E1
2.992971500E0,2.037605551E-1,-8.385176218E0,4.661670460E0,9.596034079E0
3.002997500E0,8.135329370E0,-9.517652666E0,-1.138199586E1,1.692096705E1
3.013024500E0,8.602179254E0,-8.930384638E0,7.973757938E0,1.474211903E1
3.023051500E0,5.613010692E0,-6.082269044E0,1.625027184E1,1.823653532E1
3.033078500E0,7.017741687E0,-4.246718123E0,1.118875825E1,1.387341430E1
3.043104500E0,9.336771973E0,-6.401644548E0,4.245788416E0,1.209061963E1
3.053131500E0,8.894022558E0,-9.178345758E0,-3.146151392E-1,1.278454734E1
3.063158500E0,6.270724220E0,-9.151331622E0,7.561853170E-1,1.111938258E1
3.073185500E0,5.455019510E0,-6.894422155E0,1.520168481E0,8.921950847E0
3.083212500E0,5.289689487E0,-4.129707152E0,2.442778419E0,7.141600831E0
3.093238500E0,4.713732314E0,-1.836104068E0,3.719768218E0,6.279110292E0
3.103265500E0,3.198401527E0,-7.006660044E-2,4.684740064E0,5.672871506E0
3.113292500E0,1.565621227E0,9.891968608E-1,4.202016159E0,4.592016992E0
3.123319500E0,-4.278866699E-1,2.139691504E0,1.199694870E0,2.490107330E0
3.133346500E0,-2.378960592E0,2.602566451E0,-2.089507776E0,4.098639820E0
3.143372500E0,-3.790724764E0,2.772477182E0,-2.635144798E0,5.385184497E0
3.153399500E0,-3.309758240E0,3.092843789E0,-1.663231722E0,4.825611057E0
3.163426500E0,-1.644334836E0,2.984265672E0,-1.253788632E0,3.630656220E0
3.173453500E0,-2.600473148E-1,2.710028919E0,-1.512414488E0,3.114366538E0
3.183479500E0,-1.056928083E-2,2.405759697E0,-2.666932016E0,3.591701241E0
3.193506500E0,-1.894024247E-1,1.880554016E0,-3.481682460E0,3.961624596E0
3.203533500E0,-2.287462923E-1,1.329899499E0,-3.148361347E0,3.425366654E0
3.213560500E0,-1.014376433E-1,8.156175864E-1,-3.172087010E0,3.276836529E0
3.223587500E0,1.021491033E-1,1.192685813E-1,-3.891202734E0,3.894370058E0
3.233613500E0,2.813063291E-1,-4.424710876E-1,-4.080097035E0,4.113648713E0
3.243640500E0,4.069609469E-1,-4.070036316E-1,-3.742859457E0,3.786854379E0
3.253667500E0,8.262073325E-1,1.394660336E-1,-3.427125015E0,3.528066779E0
3.263694500E0,1.455088824E0,6.129121614E-1,-3.379763153E0,3.730381183E0
3.273721500E0,2.113390290E0,8.522767049E-1,-3.684045238E0,4.331856809E0
3.283747500E0,2.121838785E0,8.883891088E-1,-4.139889493E0,4.736044769E0
3.293774500E0,1.794559600E0,7.245893025E-1,-4.985403893E0,5.347871146E0
3.303801500E0,1.411104899E0,5.504826093E-1,-6.872440717E0,7.037378031E0
3.313828500E0,4.123200662E-1,5.979146379E-1,-9.946085758E0,9.972568960E0
3.323854500E0,-6.078242067E-1,7.389734530E-1,-1.251461323E1,1.255113845E1
3.333881500E0,-1.008247674E0,7.869399172E-1,-1.302826423E1,1.309089403E1
3.343908500E0,-4.518596694E-1,6.294451636E-1,-1.179914792E1,1.182456215E1
3.353935500E0,4.523004033E-1,5.973720163E-1,-8.882219954E0,8.913768018E0
3.363962500E0,1.734416456E0,9.713230920E-1,-5.416022090E0,5.769312287E0
3.373988500E0,3.261059412E0,1.306442224E0,-3.212136928E0,4.760160021E0
3.384015500E0,4.185251607E0,1.348250985E-1,-6.331224775E-1,4.235015100E0
3.394042500E0,5.337243723E0,-2.332026308E0,2.477544209E0,6.329513612E0
3.404069500E0,6.828534560E0,-5.085636864E0,3.982339191E0,9.399553818E0
3.414095500E0,8.187419876E0,-7.704588382E0,3.702876781E0,1.183663055E1
3.424122500E0,8.005290803E0,-1.000146591E1,3.690395899E0,1.333165492E1
3.434149500E0,6.422109218E0,-1.127874222E1,5.572233964E0,1.412456386E1
3.444176500E0,3.744313660E0,-1.121143960E1,6.669702548E0,1.357207408E1
3.454203500E0,1.457285331E0,-1.062979484E1,6.125442545E0,1.235464549E1
3.464229500E0,-5.558611706E-1,-9.126808400E0,4.175335314E0,1.005191714E1
3.474256500E0,-1.010220232E0,-7.420033633E0,-2.119090740E0,7.782543902E0
3.484283500E0,5.845701224E-1,-6.498790773E0,-2.996647736E0,7.180243826E0
3.494310500E0,1.602442606E0,-6.251061203E0,3.609930611E-1,6.463273509E0
3.504336500E0,3.022712284E0,-5.572691801E0,4.454691889E0,7.748287765E0
3.514363500E0,5.339032386E0,-4.401750614E0,6.362367046E0,9.400020729E0
3.524390500E0,7.382821367E0,-3.699951419E0,3.566222966E0,8.995200837E0
3.534417500E0,6.566289861E0,-2.755810863E0,5.802522460E-1,7.144742733E0
3.544444500E0,4.554729855E0,-2.209314886E0,9.722633243E-1,5.154797017E0
3.554470500E0,3.580403341E0,-1.911010993E0,2.463009785E0,4.747385418E0
3.564497500E0,3.849582545E0,-1.641055571E0,4.014215287E0,5.798816563E0
3.574524500E0,5.230259557E0,-1.180384440E0,4.589635102E0,7.057880193E0
3.584551500E0,6.974923112E0,-3.570783502E-1,5.340595347E0,8.791985897E0
3.594578500E0,7.041922263E0,4.056926858E-1,5.096288152E0,8.702034741E0
3.604604500E0,5.109826795E0,1.280747219E0,4.558433482E0,6.966344746E0
3.614631500E0,4.073153467E0,2.556345965E0,4.601828593E0,6.655998066E0
3.624658500E0,3.298868093E0,3.289899634E0,4.856255564E0,6.729724244E0
3.634685500E0,2.461650892E0,3.415872633E0,4.955642735E0,6.502792160E0
3.644711500E0,1.166064463E0,3.247990301E0,5.098126516E0,6.156300943E0
3.654738500E0,-1.124451730E-1,2.910962638E0,5.749984642E0,6.445825842E0
3.664765500E0,-9.149644116E-1,2.870397579E0,5.634458864E0,6.389324598E0
3.674792500E0,-1.415559162E0,2.794397224E0,4.888365256E0,5.805908927E0
3.684819500E0,-1.779588389E0,2.832235141E0,4.285589243E0,5.436429517E0
3.694845500E0,-2.027860874E0,3.263712294E0,4.361506568E0,5.812639435E0
3.704872500E0,-2.330691681E0,4.034865314E0,4.875536465E0,6.744117261E0
3.714899500E0,-1.959747828E0,4.490737050E0,5.134816625E0,7.097441270E0
3.724926500E0,-1.231244692E0,4.533983057E0,4.956011109E0,6.828983231E0
3.734952500E0,-2.914585572E-1,4.586975788E0,4.736396121E0,6.599904786E0
3.744979500E0,3.314008874E-1,4.948188120E0,4.416321875E0,6.640654420E0
3.755006500E0,6.800712338E-1,5.592539005E0,3.346197796E0,6.552558973E0
3.765033500E0,1.086087563E0,6.257925249E0,1.994376501E0,6.657233077E0
3.775060500E0,1.662980876E0,6.873617762E0,1.064888483E0,7.151651139E0
3.785086500E0,2.668946089E0,7.566957790E0,4.736007866E-1,8.037811961E0
3.795113500E0,2.655678757E0,8.053891105E0,-7.020164189E-1,8.509442910E0
3.805140500E0,1.478386324E0,7.730124342E0,-3.478726400E0,8.604765299E0
3.815167500E0,5.082095790E-1,5.449217902E0,-8.798733408E0,1.036194781E1
3.825194500E0,2.063719216E-1,-2.526827466E-1,-2.148364562E1,2.148612267E1
3.835220500E0,1.761419044E0,-1.086552300E1,-2.317754891E1,2.565854557E1
3.845247500E0,2.805171888E0,-2.262487945E1,2.327580962E0,2.291662699E1
3.855274500E0,1.968408724E0,-2.547421126E1,3.087302266E1,4.007435090E1
3.865301500E0,5.728577109E-1,-1.362853588E1,3.346594471E1,3.613910087E1
3.875327500E0,-3.290798351E-1,-3.100046974E0,1.108355982E1,1.151363900E1
3.885354500E0,-5.020139862E0,1.501948557E0,-1.272159881E1,1.375851482E1
3.895381500E0,-7.453976135E0,3.014539046E0,-3.127233603E0,8.627212521E0
3.905408500E0,-5.027546530E0,3.875673113E0,1.151042878E1,1.314484831E1
3.915435500E0,-4.283887703E0,2.813280222E0,1.279116899E1,1.377970404E1
3.925461500E0,-4.103100566E0,-1.761300053E0,7.437224447E0,8.674671152E0
3.935488500E0,-2.535206527E0,-4.638691487E0,5.574868720E0,7.682700832E0
3.945515500E0,-2.756377459E-2,-5.831741581E0,3.328596507E0,6.714873367E0
3.955542500E0,2.897706415E0,-8.235436041E0,-7.499181251E-1,8.762504577E0
3.965568500E0,5.667134274E0,-1.020019756E1,-1.176760336E0,1.172796684E1
3.975595750E0,7.561856679E0,-8.972429627E0,-7.817140413E-1,1.175998498E1
3.985622750E0,7.678237320E0,-6.359450455E0,-1.951436961E-1,9.971761103E0
3.995649750E0,6.122027187E0,-3.995749780E0,-1.478503926E-1,7.312119591E0
4.005676750E0,4.424137849E0,-2.200911267E0,-7.465777570E-1,4.997437789E0
4.015702750E0,3.242471699E0,-3.264518040E-1,-5.943536105E-1,3.312619765E0
4.025729750E0,2.353800462E0,1.574990805E0,-4.657576239E-1,2.870174701E0
4.035756750E0,1.445598063E0,3.095759211E0,-1.479479461E0,3.723216127E0
4.045783750E0,9.302702294E-1,3.884969017E0,-2.760259425E0,4.855658457E0
4.055809750E0,6.481407586E-1,3.782309452E0,-4.336294543E0,5.790457805E0
4.065836750E0,4.860338674E-1,3.063450420E0,-5.804559630E0,6.581327366E0
4.075863750E0,4.105381273E-1,2.510551157E0,-5.833876399E0,6.364394905E0
4.085890750E0,7.646941853E-1,2.314744862E0,-4.633119090E0,5.235321717E0
4.095917750E0,9.992338988E-1,2.015286144E0,-4.585261384E0,5.107295624E0
4.105943750E0,1.171461589E0,1.545719059E0,-3.708143368E0,4.184721843E0
4.115970750E0,1.866041812E0,1.656829605E0,-2.665432205E0,3.651263511E0
4.125997750E0,2.301961825E0,1.788874937E0,-2.952474360E0,4.149241694E0
4.136024750E0,2.646565287E0,1.613416368E0,-3.157101181E0,4.424331368E0
4.146051750E0,2.632993022E0,1.594376079E0,-3.466936367E0,4.636198347E0
4.156077750E0,2.188487542E0,2.363400713E0,-4.236920528E0,5.322277352E0
4.166104750E0,1.677917442E0,3.208038615E0,-5.496245888E0,6.581461659E0
4.176131750E0,1.662929128E0,3.551320460E0,-7.577906116E0,8.532401268E0
4.186158750E0,2.480244454E0,3.584630878E0,-9.838685271E0,1.076108354E1
4.196184750E0,3.228587777E0,3.769896398E0,-1.125743263E1,1.230307633E1
4.206211750E0,3.271325369E0,4.076394578E0,-1.134014032E1,1.248668671E1
4.216238750E0,2.965989615E0,3.961092748E0,-1.017453413E1,1.131408392E1
4.226265750E0,3.410771814E0,2.650092620E0,-7.529684129E0,8.680581682E0
4.236292750E0,4.418105861E0,-1.503804463E-1,-3.025772717E0,5.357011687E0
4.246318750E0,5.807801911E0,-4.675152969E0,1.703416126E0,7.647826150E0
4.256345750E0,8.196462010E0,-9.497026028E0,5.186569161E0,1.357482937E1
4.266372750E0,9.230544437E0,-1.214230230E1,7.024922068E0,1.679249790E1
4.276399750E0,5.495579306E0,-1.190072692E1,7.419948263E0,1.506267989E1
4.286425750E0,4.544591953E-1,-1.065359184E1,6.054433374E0,1.226220680E1
4.296452750E0,-4.341385714E0,-1.015398468E1,5.575501388E-1,1.105721018E1
4.306479750E0,-7.430158671E0,-9.859801905E0,-2.324699746E0,1.256292881E1
4.316506750E0,-8.145339219E0,-9.279978552E0,1.110141035E-1,1.234815278E1
4.326533750E0,-8.003226151E0,-8.568587585E0,8.642336031E-1,1.175666712E1
4.336559750E0,-5.883785893E0,-8.560904928E0,-5.753199734E-2,1.038803829E1
4.346586750E0,-4.618498127E0,-8.324283314E0,-1.432104735E0,9.626792904E0
4.356613750E0,-5.339207802E0,-7.124727023E0,-1.912156463E0,9.106328428E0
4.366640750E0,-4.344927080E0,-5.417238311E0,-1.451426275E0,7.094469711E0
4.376667750E0,-2.271137204E0,-3.230729320E0,-7.779954314E-2,3.949902392E0
4.386693750E0,-9.509743430E-1,-1.692062588E0,1.367044082E0,2.374076141E0
4.396720750E0,-4.180069220E-1,-4.797026485E-1,1.732955675E0,1.846071448E0
4.406747750E0,1.021712350E0,-1.354501659E-1,3.370221666E0,3.524292404E0
4.416774750E0,1.753901571E0,3.095439953E-1,4.036764197E0,4.412193716E0
4.426800750E0,1.811816488E0,1.478877783E-1,4.563505064E0,4.912242691E0
4.436827750E0,1.617853820E0,-4.465027428E-1,4.799416827E0,5.084409264E0
4.446854750E0,1.355736591E0,-9.352983963E-1,4.915400442E0,5.184010639E0
4.456881750E0,9.664225405E-1,-5.085212356E-1,5.180831873E0,5.294675181E0
4.466908750E0,5.601477644E-1,1.046322988E0,5.229340374E0,5.362327672E0
4.476934750E0,3.558641759E-1,2.836985419E0,5.705259290E0,6.381622767E0
4.486961750E0,-3.361271689E-2,4.339702300E0,6.697122481E0,7.980325519E0
4.496988750E0,-5.431829453E-1,5.445268108E0,7.119459851E0,8.979571318E0
4.507015750E0,-8.858958560E-1,6.118819989E0,6.878351083E0,9.248593577E0
4.517041750E0,-1.072259775E0,6.432085152E0,6.691911442E0,9.343614888E0
4.527068750E0,-1.607391104E0,6.731218180E0,6.394255421E0,9.422287766E0
4.537095750E0,-2.583625565E0,7.128659275E0,6.103783289E0,9.733913630E0
4.547122750E0,-3.463414297E0,7.403404151E0,5.552663918E0,9.881179495E0
4.557149750E0,-3.393514342E0,7.756028677E0,4.407668581E0,9.544603855E0
4.567175750E0,-2.546674963E0,8.224413455E0,3.340437704E0,9.234990747E0
4.577202750E0,-1.696922793E0,8.704168729E0,2.569938987E0,9.232913225E0
4.587229750E0,-1.491445788E0,9.004071250E0,1.830645692E0,9.308543026E0
4.597256750E0,-1.310690518E0,8.961978314E0,1.337324293E0,9.155512066E0
4.607283750E0,-9.087916522E-1,8.601694520E0,6.706844062E-1,8.675532748E0
4.617309750E0,-6.935011918E-1,7.820100127E0,-3.025352302E-1,7.856617432E0
4.627336750E0,-8.069533284E-1,6.300095369E0,-1.938205516E0,6.640708995E0
4.637363750E0,-1.836711301E0,3.599474035E0,-4.898513684E0,6.350209291E0
4.647390750E0,-4.133975034E0,-1.410881681E0,-1.561936663E1,1.621866056E1
4.657416750E0,-8.188094645E0,-1.351753000E1,-2.718286357E1,3.144322793E1
4.667443750E0,-5.222969248E0,-2.540728637E1,-7.537797725E-1,2.594952393E1
4.677470750E0,2.576004597E0,-2.420859079E1,2.267026553E1,3.326608794E1
4.687497750E0,1.241416800E0,-1.063841714E1,3.824246267E1,3.971401498E1
4.697524750E0,-7.019290030E-3,1.140015264E0,1.915376875E1,1.918766639E1
4.707550750E0,-4.145364533E0,6.544177446E0,2.327449400E0,8.088715984E0
4.717577750E0,-5.225657798E0,7.872558423E0,-4.812253512E0,1.060388888E1
4.727604750E0,-4.221747004E0,2.890338923E0,4.540099245E0,6.840300286E0
4.737631750E0,-4.024910137E0,-3.638344570E0,1.300044551E1,1.408719406E1
4.747657750E0,-6.972216289E-2,-8.308357837E0,1.034962901E1,1.327209447E1
4.757684750E0,2.845450141E0,-9.742717844E0,5.292121929E0,1.144655809E1
4.767711750E0,2.975381997E0,-1.021493840E1,2.409518580E0,1.090887915E1
4.777738750E0,3.781162228E0,-1.070352004E1,2.352519921E0,1.159296679E1
4.787765750E0,4.053751820E0,-9.909071714E0,1.436616447E0,1.080215131E1
4.797791750E0,2.728795558E0,-7.102017606E0,-3.334011468E-1,7.615519392E0
4.807818750E0,2.664599562E0,-4.230461109E0,9.376384521E-1,5.086851471E0
4.817845750E0,3.334372095E0,-2.225353798E0,1.941764424E0,4.454288481E0
4.827872750E0,2.915773727E0,-6.495964229E-1,1.267340723E0,3.244975261E0
4.837898750E0,2.256006365E0,7.038264245E-1,8.201485938E-1,2.501515554E0
4.847925750E0,1.668067954E0,1.973575616E0,2.354083174E-1,2.594777155E0
4.857952750E0,1.214618719E-1,3.302976932E0,-1.330579238E-1,3.307886638E0
4.867979750E0,-1.382545343E0,4.387088136E0,-1.006876941E0,4.708691444E0
4.878006750E0,-1.492872801E0,4.260474283E0,-2.021792341E0,4.946509333E0
4.888032750E0,-2.491264409E0,3.700829086E0,-1.757283601E0,4.794849313E0
4.898059750E0,-2.895641471E0,2.925638564E0,-1.052531854E0,4.248755564E0
4.908086750E0,-1.672359371E0,2.288747556E0,-7.479005434E-1,2.931638870E0
4.918113750E0,-1.095956055E-1,1.978637550E0,-5.935627015E-1,2.068655223E0
4.928140750E0,5.038991578E-1,1.977573357E0,-1.141537879E0,2.338336903E0
4.938166750E0,3.672443193E-1,2.155195397E0,-2.015410105E0,2.973485073E0
4.948193750E0,-2.260212705E-1,2.176889151E0,-2.392650970E0,3.242639459E0
4.958220750E0,-4.825172058E-1,2.189938967E0,-2.812048214E0,3.596702753E0
4.968247750E0,-4.134248976E-1,1.729805780E0,-3.984438341E0,4.363358463E0
4.978273833E0,-3.139128886E-1,1.052592958E0,-4.167050394E0,4.309385365E0
4.988300833E0,1.872044563E-1,5.381414759E-1,-3.685544757E0,3.729327273E0
4.998327833E0,7.444151643E-1,-1.237802929E-1,-3.306843696E0,3.391856531E0
5.008354833E0,1.031956014E0,-4.638935316E-1,-3.775382840E0,3.941274668E0
5.018381833E0,1.458688370E0,-3.924499118E-1,-3.717611765E0,4.012782816E0
5.028407833E0,1.602570075E0,-3.329240870E-1,-4.256176871E0,4.560056014E0
5.038434833E0,1.591825378E0,2.445539474E-2,-5.343638238E0,5.575748893E0
5.048461833E0,1.492868270E0,4.417629898E-1,-6.987070702E0,7.158419323E0
5.058488833E0,1.487464711E0,6.488304377E-1,-8.890921780E0,9.037810703E0
5.068514833E0,1.362278455E0,5.422579157E-1,-1.024510535E1,1.034949418E1
5.078541833E0,9.809638350E-1,2.608203167E-1,-9.845389688E0,9.897576238E0
5.088568833E0,5.845271453E-1,4.039139628E-2,-8.057440950E0,8.078716365E0
5.098595833E0,3.144877430E-1,1.803398252E-1,-6.108164023E0,6.118912708E0
5.108622833E0,1.522787449E-1,6.874337554E-1,-4.805086872E0,4.856399266E0
5.118648833E0,3.501164360E-1,1.030523227E0,-3.894165225E0,4.043399862E0
5.128675833E0,1.052817271E0,4.106674969E-1,-2.355978257E0,2.612987858E0
5.138702833E0,1.069662807E0,-1.135950279E0,-9.696332467E-1,1.837049317E0
5.148729833E0,2.403021446E-1,-3.022656151E0,-7.238852978E-4,3.032193241E0
5.158755833E0,-7.768888459E-1,-4.971420277E0,6.938317788E-1,5.079367912E0
5.168782833E0,-2.638918006E0,-6.727488826E0,9.222117430E-1,7.285153989E0
5.178809833E0,-6.497365222E0,-9.314852516E0,-1.097126668E0,1.140990443E1
5.188836833E0,-1.300361120E1,-1.176971304E1,-3.478692194E0,1.788075358E1
5.198863833E0,-1.674600112E1,-1.233385942E1,-2.074507914E0,2.090110583E1
5.208889833E0,-1.310974635E1,-1.114353004E1,1.454725274E0,1.726730832E1
5.218916833E0,-8.372823974E0,-9.534752848E0,2.443308177E0,1.292228494E1
5.228943833E0,-8.231894968E0,-8.235627830E0,6.570089382E-1,1.166281790E1
5.238970833E0,-8.706488904E0,-8.052797091E0,-7.872995210E-1,1.188571961E1
5.248997833E0,-5.730248535E0,-7.095441828E0,-9.260188651E-1,9.167254439E0
5.259023833E0,-3.149045472E0,-5.726383526E0,2.967590582E-1,6.541866829E0
5.269050833E0,-2.066594438E0,-4.763534219E0,2.325703129E0,5.689548828E0
5.279077833E0,-2.170628830E0,-4.264840983E0,3.763877274E0,6.088289601E0
5.289104833E0,-2.628519318E0,-4.122688739E0,4.979646724E0,6.978721784E0
5.299130833E0,-2.915857342E0,-3.994482688E0,4.425651108E0,6.636603327E0
5.309157833E0,-2.909914232E0,-3.560793534E0,2.967163736E0,5.472742645E0
5.319184833E0,-3.157076915E0,-3.359509567E0,2.605314350E0,5.295384975E0
5.329211833E0,-2.638104073E0,-3.019343703E0,2.255179568E0,4.600202646E0
5.339238833E0,-1.208636505E0,-2.723320810E0,9.217465970E-1,3.118797080E0
5.349264833E0,3.756290073E-1,-2.551534292E0,7.243428424E-1,2.678823799E0
5.359291833E0,1.589151300E0,-2.109450874E0,1.159370132E0,2.884323829E0
5.369318833E0,1.941504515E0,-1.120847506E0,2.632089043E0,3.457402441E0
5.379345833E0,2.565295714E0,3.133265591E-1,4.741013083E0,5.399640792E0
5.389371833E0,2.880206868E0,2.253898736E0,5.452828558E0,6.565743705E0
5.399398833E0,2.299857412E0,4.264179078E0,4.479006366E0,6.598034962E0
5.409425833E0,2.358360413E0,5.294137464E0,3.941651341E0,7.009020660E0
5.419452833E0,1.886804105E0,6.624999999E0,3.588842627E0,7.767267610E0
5.429479833E0,5.106548846E-1,7.163978212E0,3.330159760E0,7.916648045E0
5.439505833E0,-2.557668605E-1,7.283114061E0,3.376885153E0,8.031968654E0
5.449532833E0,-1.397689778E0,6.962672610E0,3.608847706E0,7.965935498E0
5.459559833E0,-2.651529865E0,6.746539055E0,3.777251318E0,8.173984791E0
5.469586833E0,-3.120824178E0,6.815126894E0,3.133629872E0,8.124354393E0
5.479613833E0,-1.634318117E0,7.419680461E0,2.776505914E0,8.088982565E0
5.489639833E0,1.461391684E-1,8.417554005E0,2.670669264E0,8.832273003E0
5.499666833E0,1.324058423E0,9.071531746E0,2.249846030E0,9.439683580E0
5.509693833E0,2.663943212E0,9.325289211E0,1.826278406E0,9.868784379E0
5.519720833E0,4.140640568E0,9.795759106E0,1.165559995E0,1.069861350E1
5.529746833E0,4.320070274E0,9.693048086E0,-8.188236147E-1,1.064371460E1
5.539773833E0,1.264398112E0,7.757813832E0,-7.474772342E0,1.084687050E1
5.549800833E0,-8.626631141E-2,4.207133642E0,-1.383571208E1,1.446147794E1
5.559827833E0,7.248429548E0,-1.140733302E-1,-2.276850811E0,7.598473087E0
5.569854833E0,3.177271736E0,-3.536048702E0,7.433940650E0,8.823954312E0
5.579880833E0,-1.343391657E0,-5.128574722E0,1.697947343E1,1.778790313E1
5.589907833E0,1.156975405E0,-5.343047669E0,1.386759461E1,1.490627152E1
5.599934833E0,3.377746156E0,-9.123674292E0,3.882683048E0,1.047500975E1
5.609961833E0,4.808777342E0,-1.357645239E1,3.527548312E0,1.482862084E1
5.619987833E0,-5.819792211E-1,-1.098254449E1,1.187236909E1,1.618357597E1
5.630014833E0,6.301830822E-1,-7.905590513E0,5.305743018E0,9.541823780E0
5.640041833E0,4.165124322E0,-6.810272536E0,-3.266697882E0,8.625507966E0
5.650068833E0,2.405670527E0,-5.273428380E0,1.705043114E0,6.041810125E0
5.660095833E0,1.196725654E0,-4.647877463E0,5.340469047E0,7.180217743E0
5.670121833E0,1.590104981E-1,-4.436752047E0,4.170494989E0,6.091229886E0
5.680148833E0,3.765317443E-1,-4.572854762E0,1.821947958E0,4.936828050E0
5.690175833E0,3.120310500E0,-5.744209347E0,2.071874328E0,6.857473432E0
5.700202833E0,6.706026036E0,-6.449355488E0,3.053709544E0,9.792349738E0
5.710229833E0,6.719819618E0,-6.830173534E0,1.881815261E0,9.764654366E0
5.720255833E0,4.730824017E0,-7.106775486E0,7.860868084E-1,8.573499062E0
5.730282833E0,3.118420680E0,-5.848313175E0,-2.647724863E-1,6.633055027E0
5.740309833E0,1.989668761E0,-3.619734052E0,-1.744617362E0,4.483853937E0
5.750336833E0,1.075291922E0,-1.601696209E0,-3.767846949E0,4.233007688E0
5.760362833E0,4.570277309E-1,-1.328808993E-1,-5.173933913E0,5.195779423E0
5.770389833E0,-1.492723989E-1,9.591105974E-1,-6.119756713E0,6.196256742E0
5.780416833E0,-6.477163969E-1,2.095975381E0,-6.824350877E0,7.168292281E0
5.790443833E0,-1.050914003E0,3.387297290E0,-6.727232718E0,7.604857869E0
5.800470833E0,-1.493648727E0,3.799968628E0,-6.349730043E0,7.549160199E0
5.810496833E0,-1.299015383E0,3.484440007E0,-6.948255715E0,7.880800760E0
5.820523833E0,-8.318841018E-1,3.482708647E0,-6.701692080E0,7.598287137E0
5.830550833E0,1.141170746E-1,3.453522854E0,-5.308309361E0,6.333876466E0
5.840577833E0,4.185094171E-1,3.189569600E0,-4.201116273E0,5.291302515E0
5.850603833E0,6.634912346E-1,3.607399936E0,-2.516972569E0,4.448449823E0
5.860630833E0,1.159626679E0,4.262925435E0,-1.716606860E0,4.739620915E0
5.870657833E0,1.098744738E0,4.447089924E0,-2.406249694E0,5.174348885E0
5.880684833E0,2.877552232E-1,4.251216386E0,-4.383175764E0,6.112926763E0
5.890711833E0,-5.609462748E-1,4.166376210E0,-6.798687447E0,7.993466235E0
5.900737833E0,-1.150348902E0,4.446497601E0,-9.525936416E0,1.057535381E1
5.910764833E0,-1.573165889E0,4.978839224E0,-1.269650490E1,1.372825290E1
5.920791833E0,-1.946060666E0,5.409592491E0,-1.442738014E1,1.553061946E1
5.930818833E0,-1.790788585E0,5.633632652E0,-1.211505544E1,1.348033045E1
5.940844833E0,-6.171073193E-1,5.066382567E0,-7.389777800E0,8.980972647E0
5.950871833E0,2.824048747E0,2.759087058E0,-1.375445800E0,4.180868794E0
5.960898833E0,6.125457748E0,-1.900101258E0,3.568093783E0,7.339135552E0
5.970926083E0,6.382304297E0,-7.507950028E0,2.821766286E0,1.025014569E1
5.980953083E0,6.976307148E0,-1.122416548E1,8.009913611E-1,1.323980133E1
5.990979083E0,7.472255700E0,-1.524988692E1,2.177807164E0,1.712122952E1
6.001006083E0,7.808613857E0,-1.954815526E1,7.792228789E0,2.244601644E1
6.011033083E0,1.737708877E0,-1.791427949E1,1.257980851E1,2.195888485E1
6.021060083E0,-2.683229960E0,-1.362873468E1,9.522158530E0,1.684083238E1
6.031086083E0,-3.138108255E0,-9.682344757E0,5.587466546E0,1.161099935E1
6.041113083E0,-2.852125030E0,-6.930094264E0,-3.540267468E0,8.288203511E0
6.051140083E0,-1.329269023E0,-7.216596721E0,-1.012626303E1,1.250549589E1
6.061167083E0,-8.983347110E-1,-8.033210673E0,-1.607858005E0,8.241643424E0
6.071194083E0,-9.921477313E-1,-7.966782210E0,2.251027022E0,8.337931311E0
6.081220083E0,-3.467949982E-1,-6.956641792E0,2.465835160E0,7.388875072E0
6.091247083E0,3.469635442E-1,-6.020003799E0,2.884423295E0,6.684364381E0
6.101274083E0,6.991842469E-1,-5.672431852E0,3.734406430E0,6.827234660E0
6.111301083E0,8.202540629E-1,-5.684681768E0,4.587536243E0,7.350776307E0
6.121328083E0,1.021912836E0,-4.939773976E0,3.014165702E0,5.876297104E0
6.131354083E0,-2.983831224E-1,-3.376827850E0,1.315299586E0,3.636208440E0
6.141381083E0,-7.460283380E-1,-1.671655805E0,1.814349209E0,2.577373560E0
6.151408083E0,6.208031251E-1,-5.521455574E-1,4.383157053E0,4.461202415E0
6.161435083E0,2.326688677E0,4.844219363E-1,5.605468369E0,6.088466181E0
6.171461083E0,3.144750692E0,1.464142215E0,5.614701122E0,6.599851364E0
6.181488083E0,2.525807127E0,2.362003228E0,5.549553784E0,6.538830790E0
6.191515083E0,2.500685150E0,3.586784407E0,5.609188952E0,7.112063646E0
6.201542083E0,2.777645244E0,4.760207153E0,5.958229719E0,8.116365358E0
6.211569083E0,2.702360880E0,5.820646489E0,6.485183133E0,9.123611135E0
6.221595083E0,2.463481363E0,6.361154918E0,6.826607317E0,9.650678721E0
6.231622083E0,2.014731682E0,6.503745119E0,6.473440754E0,9.394853885E0
6.241649083E0,1.352836372E0,6.832569138E0,5.779490277E0,9.050783123E0
6.251676083E0,7.806594229E-1,7.227126387E0,5.226246028E0,8.952900786E0
6.261702083E0,-1.345792231E-1,7.867523970E0,4.592090640E0,9.110616962E0
6.271729083E0,-8.773361170E-1,8.208280402E0,4.469764257E0,9.387458567E0
6.281756083E0,-8.770303077E-1,8.281620859E0,4.627636741E0,9.527300143E0
6.291783083E0,-5.135384390E-1,8.403370414E0,4.541530058E0,9.565869083E0
6.301810083E0,-2.742357297E-1,8.593189160E0,4.130802628E0,9.538429406E0
6.311836083E0,-2.322769873E-1,8.753391175E0,3.362516498E0,9.379889490E0
6.321863083E0,1.299496901E-1,8.887735047E0,2.566432412E0,9.251772615E0
6.331890083E0,9.870664278E-1,8.859862540E0,1.947361963E0,9.124893587E0
6.341917083E0,1.617902352E0,8.470445579E0,1.077199795E0,8.690593519E0
6.351944083E0,1.522402117E0,7.345029058E0,3.404892147E-1,7.508867623E0
6.361970083E0,7.815736350E-1,5.582958927E0,-6.051806805E-1,5.669791124E0
6.371997083E0,-9.916325185E-1,3.477106429E0,-2.845786064E0,4.601315300E0
6.382024083E0,-2.784824163E0,1.590180117E0,-5.814281795E0,6.640014399E0
6.392051083E0,-4.207097974E0,1.441613477E-1,-8.109539641E0,9.137017514E0
6.402077083E0,-5.254940069E0,-1.062813891E0,-9.171099304E0,1.062323072E1
6.412104083E0,-4.917265704E0,-1.311850898E0,-9.175294096E0,1.049221028E1
6.422131083E0,-4.143077687E0,-1.091524304E0,-9.538728955E0,1.045676184E1
6.432158083E0,-9.026937371E0,-7.194918169E0,-2.368057552E1,2.634429925E1
6.442185083E0,-1.272072173E1,-2.558455290E1,-2.155035768E1,3.578832246E1
6.452211083E0,-2.233006342E0,-4.024287701E1,2.163227483E1,4.574309545E1
6.462238083E0,9.625392292E0,-4.290739237E1,2.198983908E1,4.916549114E1
6.472265083E0,1.551736078E1,-1.834026201E1,3.471428081E1,4.221652506E1
6.482292083E0,4.941304777E0,5.058888191E0,2.714343696E1,2.804951003E1
6.492318083E0,1.204655063E-1,1.452000004E1,-1.420437786E-1,1.452119449E1
6.502345083E0,8.015129328E0,2.028408465E1,-2.123204695E1,3.043823592E1
6.512372083E0,1.398694447E1,1.494527972E1,1.255082913E0,2.050783350E1
6.522399083E0,9.159386162E0,4.800984465E0,1.796100342E1,2.072538179E1
6.532426083E0,2.016714911E0,-4.281993790E0,2.059484545E1,2.113173607E1
6.542452083E0,-3.296844665E0,-1.263160783E1,1.801415110E1,2.224716478E1
6.552479083E0,-1.414069876E0,-1.468286604E1,1.516510931E1,2.115577200E1
6.562506083E0,7.024671807E0,-1.656688336E1,2.862982433E-1,1.799693321E1
6.572533083E0,1.433259560E1,-1.585232788E1,-1.408291482E1,2.559390720E1
6.582559083E0,8.009907764E0,-1.171034976E1,-4.773232995E0,1.496912380E1
6.592586083E0,4.724946396E-1,-6.820910960E0,5.774740584E0,8.949620457E0
6.602613083E0,2.565481947E-1,-2.206216446E0,6.981790667E0,7.326568699E0
6.612640083E0,1.475576006E0,1.689179910E0,5.205933970E0,5.668544948E0
6.622667083E0,1.301674843E0,4.386087093E0,2.752623546E0,5.339387022E0
6.632693083E0,-1.327111839E-1,5.706673146E0,-1.203275120E0,5.833661087E0
6.642720083E0,-1.872638494E0,5.725386575E0,-3.034413732E0,6.744960568E0
6.652747083E0,-2.568006483E0,4.486328250E0,-2.284701283E0,5.651695180E0
6.662774083E0,-1.957349592E0,3.293831302E0,-1.663846118E0,4.177191159E0
6.672801083E0,-9.856490627E-1,2.690553013E0,-1.338943387E0,3.162807137E0
6.682827083E0,-3.662959009E-2,2.229036959E0,-1.653904828E0,2.775850982E0
6.692854083E0,3.280168113E-1,2.390701947E0,-1.784288528E0,3.001122520E0
6.702881083E0,9.027782294E-1,3.062245894E0,-1.341754729E0,3.463042622E0
6.712908083E0,1.429899166E0,3.351213537E0,-1.728482555E0,4.032728077E0
6.722934083E0,2.261648051E0,3.251550086E0,-1.915416870E0,4.399596760E0
6.732961083E0,3.393084279E0,2.812697840E0,-1.350358322E0,4.609529006E0
6.742988083E0,4.100909907E0,2.188004124E0,-5.558012366E-2,4.648431269E0
6.753015083E0,3.933826012E0,1.436236378E0,1.065025892E0,4.321115849E0
6.763042083E0,3.609320746E0,7.921696669E-1,1.649748627E0,4.046776441E0
6.773068083E0,3.912281361E0,-4.951480687E-2,1.336909726E0,4.134697665E0
6.783095083E0,4.012170223E0,-3.339239609E-1,7.748127919E-1,4.099920728E0
6.793122083E0,3.453035781E0,1.743411666E-1,4.110147850E-1,3.481778871E0
6.803149083E0,2.241136603E0,6.891838270E-1,-1.064380360E-1,2.347125194E0
6.813175083E0,1.058179387E0,8.911764765E-1,-1.380616493E0,1.954492525E0
6.823202083E0,-4.387711157E-1,5.690030801E-1,-2.640346481E0,2.736368786E0
6.833229083E0,-2.199505012E0,-1.780529791E-1,-3.341194333E0,4.004135954E0
6.843256083E0,-2.853316693E0,-9.944190091E-1,-2.893159035E0,4.183378362E0
6.853283083E0,-1.799261346E0,-1.721972265E0,-2.958643173E0,3.867311637E0
6.863309083E0,3.564841269E-1,-2.083098643E0,-3.358878068E0,3.968430768E0
6.873336083E0,2.722628207E0,-2.357320193E0,-3.526228303E0,5.040233020E0
6.883363083E0,4.755073882E0,-2.720931637E0,-3.853373002E0,6.697960891E0
6.893390083E0,6.333495834E0,-3.221607664E0,-4.687209928E0,8.512453367E0
6.903416083E0,7.140150808E0,-3.081427685E0,-5.807489085E0,9.705868308E0
6.913443083E0,7.452206182E0,-2.419666715E0,-6.714176470E0,1.031844609E1
6.923470083E0,7.227818112E0,-1.509877966E0,-7.521558838E0,1.054015813E1
6.933497083E0,6.678570435E0,-5.959727776E-1,-8.124814323E0,1.053428186E1
6.943524083E0,6.238614820E0,2.599110746E-1,-8.218826441E0,1.032167509E1
6.953550083E0,5.517226868E0,4.514898330E-1,-7.658419937E0,9.449604823E0
6.963577083E0,5.136783044E0,2.647636789E-1,-6.036043881E0,7.930350911E0
6.973603958E0,5.090136881E0,-4.728058577E-1,-4.114773363E0,6.562347040E0
6.983630958E0,5.396160268E0,-2.367182107E0,-2.337849403E0,6.339371940E0
6.993657958E0,6.047427825E0,-4.427385977E0,-1.316173745E0,7.609562616E0
7.003683958E0,6.747765216E0,-6.308984891E0,-6.386622027E-1,9.259779434E0
7.013710958E0,6.693607720E0,-7.655833713E0,3.723273039E-1,1.017618798E1
7.023737958E0,4.964510622E0,-7.465494565E0,1.673758464E0,9.120386078E0
7.033764958E0,1.760143766E0,-6.724732448E0,2.271063237E0,7.312855859E0
7.043790958E0,-1.992745274E0,-6.681641977E0,2.050178819E0,7.267641050E0
7.053817958E0,-4.959639307E0,-7.052735519E0,8.352466893E-1,8.662374812E0
7.063844958E0,-6.030370327E0,-7.071395153E0,6.876289793E-1,9.318950011E0
7.073871958E0,-5.560927788E0,-6.346701186E0,2.854008418E0,8.907855963E0
7.083898958E0,-4.266277644E0,-5.841756107E0,3.544340054E0,8.055407238E0
7.093924958E0,-4.507265959E0,-5.343552868E0,1.414437812E0,7.132295424E0
7.103951958E0,-5.126472648E0,-4.566500008E0,4.326986361E-1,6.879016808E0
7.113978958E0,-3.622804425E0,-3.354903131E0,1.780044765E0,5.248680433E0
7.124005958E0,-1.347279616E0,-2.763054979E0,4.895635976E0,5.780734105E0
7.134031958E0,5.145470106E-1,-2.152400427E0,3.615445704E0,4.238989723E0
7.144058958E0,2.381865635E0,-2.239270172E0,1.135603247E0,3.460810532E0
7.154085958E0,3.832094692E0,-2.928142342E0,-3.642116609E-1,4.836488131E0
7.164112958E0,5.196983052E0,-3.683089803E0,-4.996784914E-1,6.389324060E0
7.174139958E0,6.217651967E0,-4.321368356E0,1.207086920E0,7.667494981E0
7.184165958E0,6.304055688E0,-3.579408730E0,4.255486900E0,8.406096224E0
7.194192958E0,4.317772318E0,-1.332519051E0,6.114971352E0,7.603396573E0
7.204219958E0,1.812745318E0,1.222097307E0,6.688230035E0,7.036475568E0
7.214246958E0,-4.478970113E-1,3.425854999E0,6.356606369E0,7.234883464E0
7.224272958E0,-1.745356450E0,4.973655667E0,6.546502883E0,8.404773634E0
7.234299958E0,-1.594824269E0,5.686238297E0,6.829350831E0,9.028665637E0
7.244326958E0,-2.046516415E0,6.205233650E0,6.572553983E0,9.267773193E0
7.254353958E0,-3.116142020E0,6.596869045E0,6.655993166E0,9.875791984E0
7.264380958E0,-3.610878444E0,6.879563795E0,6.488096216E0,1.012236305E1
7.274406958E0,-4.064827616E0,7.053852922E0,6.028582833E0,1.013032455E1
7.284433958E0,-4.614416479E0,7.047640255E0,5.762874244E0,1.020650734E1
7.294460958E0,-4.848420002E0,6.998459909E0,5.362689636E0,1.006201062E1
7.304487958E0,-3.833944167E0,7.324825759E0,4.712981239E0,9.516532584E0
7.314514958E0,-2.285507468E0,7.980036678E0,3.840207412E0,9.146131572E0
7.324540958E0,-1.183983694E0,8.632629215E0,2.778896255E0,9.145838887E0
7.334567958E0,-2.417733040E-1,9.049733326E0,1.123830171E0,9.122451527E0
7.344594958E0,8.552188776E-1,9.017937337E0,-1.265802321E0,9.146411792E0
7.354621958E0,1.993833295E0,8.167079751E0,-3.843611076E0,9.243911995E0
7.364647958E0,2.609469381E0,6.468189370E0,-5.912969931E0,9.143851354E0
7.374674958E0,1.873485902E0,4.956570103E0,-6.459167701E0,8.354542717E0
7.384701958E0,7.854620335E-1,4.639297843E0,-6.154679793E0,7.747265223E0
7.394728958E0,-9.492903449E-1,4.196305184E0,-7.262086304E0,8.440854628E0
7.404755958E0,-4.095396275E0,-1.324307806E0,-1.513167843E1,1.573193421E1
7.414781958E0,-7.441305803E0,-1.794267941E1,-1.180028228E1,2.272794400E1
7.424808958E0,-7.852969666E0,-3.781700990E1,2.103951217E1,4.398245608E1
7.434835958E0,-9.700464694E0,-3.760167099E1,3.315139024E1,5.105878329E1
7.444862958E0,-5.111582129E0,-1.814636132E1,2.677831343E1,3.274899649E1
7.454888958E0,-8.620100970E0,-1.641827989E-1,6.469217311E0,1.077886215E1
7.464915958E0,-1.002173820E1,9.911163847E0,-1.029058733E1,1.745172178E1
7.474942958E0,-3.117279303E0,1.308670832E1,-9.048145223E-1,1.348325087E1
7.484969958E0,1.591787517E-1,7.427175422E0,1.577167724E1,1.743370516E1
7.494996958E0,-8.285402253E-1,-9.328226852E-1,1.718652333E1,1.723175038E1
7.505022958E0,-1.936445796E0,-8.277147739E0,1.312746809E1,1.563941864E1
7.515049958E0,4.519926935E-1,-1.093921896E1,5.098829352E0,1.207761854E1
7.525076958E0,4.223829782E0,-9.865169649E0,-4.311634496E-2,1.073145700E1
7.535103958E0,4.364212659E0,-7.831629667E0,9.975175948E-1,9.020854545E0
7.545129958E0,2.675128351E0,-5.632005957E0,1.608833466E0,6.439266100E0
7.555156958E0,1.337235123E0,-3.261190975E0,2.316734669E0,4.217917007E0
7.565183958E0,1.363760725E0,-1.638863450E0,2.312915268E0,3.145678585E0
7.575210958E0,1.784947363E0,-4.997328705E-1,1.765735166E0,2.559998185E0
7.585237958E0,2.654619534E0,1.104463608E0,6.573070731E-1,2.949389313E0
7.595263958E0,2.784917718E0,2.169642112E0,-4.683929640E-1,3.561250561E0
7.605290958E0,1.322000495E0,3.025359319E0,-6.039443598E-1,3.356372016E0
7.615317958E0,1.729901674E-1,3.325102796E0,3.791553900E-2,3.329815579E0
7.625344958E0,-9.998445674E-1,3.628656319E0,6.615525171E-2,3.764467075E0
7.635371958E0,-1.564541392E0,3.775858803E0,-2.636414520E-1,4.095657003E0
7.645397958E0,-1.246642165E0,3.493449397E0,-1.089141125E0,3.865816054E0
7.655424958E0,-4.653753622E-1,2.741761174E0,-1.275483556E0,3.059523960E0
7.665451958E0,6.706023990E-1,1.776240274E0,-1.425745304E0,2.374339226E0
7.675478958E0,1.628026221E0,1.107016502E0,-1.755905704E0,2.638021940E0
7.685504958E0,2.110130028E0,6.814877218E-1,-1.823192831E0,2.870732720E0
7.695531958E0,2.022578791E0,7.224650091E-1,-2.673437043E0,3.429292388E0
7.705558958E0,1.279338917E0,7.112512189E-1,-3.760961852E0,4.035767636E0
7.715585958E0,3.739263712E-1,6.793932492E-1,-4.461369410E0,4.528268226E0
7.725612958E0,7.040332697E-2,4.074363256E-1,-5.205592493E0,5.221987571E0
7.735638958E0,4.211044845E-1,-3.654118019E-1,-5.484640920E0,5.512906746E0
7.745665958E0,1.188227969E0,-1.187552542E0,-5.553594210E0,5.802118182E0
7.755692958E0,1.855354856E0,-1.465395273E0,-5.610770624E0,6.088552532E0
7.765719958E0,2.319766304E0,-1.200057397E0,-5.303389513E0,5.911632075E0
7.775745958E0,2.940667955E0,-8.039751953E-1,-4.913911741E0,5.782770334E0
7.785772958E0,2.750367983E0,-5.727113843E-2,-5.389365218E0,6.050872787E0
7.795799958E0,2.450938209E0,9.491013336E-1,-6.904360667E0,7.387698401E0
7.805826958E0,2.330811987E0,1.404557333E0,-8.379147738E0,8.809970638E0
7.815853958E0,2.087831672E0,1.208321267E0,-9.075054109E0,9.390191077E0
7.825879958E0,1.455367883E0,5.432998896E-1,-8.682901236E0,8.820773453E0
7.835906958E0,5.035511754E-1,3.165653318E-1,-7.552549081E0,7.575933937E0
7.845933958E0,-5.100772528E-1,9.531516999E-1,-6.793239012E0,6.878718866E0
7.855960958E0,-1.611018132E0,2.136573184E0,-6.641254674E0,7.160068997E0
7.865987958E0,-2.222505473E0,2.452264942E0,-6.254278341E0,7.075954458E0
7.876013958E0,-8.916897158E-1,1.282972085E0,-4.198044146E0,4.479364081E0
7.886040958E0,6.815567189E-1,-5.401464862E-1,-1.249676577E0,1.522487877E0
7.896067958E0,4.676836237E-1,-4.432774771E0,2.681747983E-1,4.465438149E0
7.906094958E0,5.021265744E-1,-8.227539961E0,1.782287464E0,8.433332290E0
7.916120958E0,9.028326816E-1,-1.157210521E1,3.034507288E0,1.199737306E1
7.926147958E0,-1.045439766E0,-1.439381946E1,3.954797636E0,1.496380324E1
7.936174958E0,-6.059728028E0,-1.515961760E1,2.751671619E0,1.655614708E1
7.946201958E0,-1.215393241E1,-1.448820054E1,1.138121935E0,1.894521970E1
7.956228958E0,-1.417692401E1,-1.284509552E1,9.101629704E-1,1.915228576E1
7.966254958E0,-1.250213995E1,-1.065605702E1,1.722088040E0,1.651728312E1
7.976280958E0,-8.237014790E0,-9.305533808E0,1.427672546E0,1.250918147E1
7.986307958E0,-6.079852390E0,-8.061127619E0,1.207501561E0,1.016879755E1
7.996334958E0,-7.238634877E0,-6.885663611E0,1.710356479E0,1.013585307E1
8.006360958E0,-3.405466636E0,-5.704546514E0,1.388696468E0,6.787306669E0
8.016387958E0,-4.579800962E-1,-4.986452299E0,3.016729413E0,5.845948054E0
8.026414958E0,4.106609919E-1,-4.648783781E0,5.492241715E0,7.207256909E0
8.036441958E0,-6.479297472E-1,-3.531417707E0,4.731923586E0,5.939850571E0
8.046468958E0,-8.313837994E-1,-2.411042072E0,4.114210861E0,4.840563387E0
8.056494958E0,-1.197824492E0,-1.305581514E0,2.692627020E0,3.223285106E0
8.066521958E0,-1.455151828E0,1.005124676E-1,2.099864072E0,2.556755506E0
8.076548958E0,-1.015571239E0,1.391550786E0,3.107462120E0,3.553043676E0
8.086575958E0,-8.728504986E-1,2.208887454E0,4.189550773E0,4.815951355E0
8.096601958E0,-1.019140160E0,2.627643405E0,5.287979761E0,5.992152074E0
8.106628958E0,-1.335433888E0,3.150379806E0,5.526157905E0,6.499745978E0
8.116655958E0,-1.206923052E0,3.896461135E0,4.720739909E0,6.238946860E0
8.126682958E0,-6.153446031E-1,4.578706071E0,4.230791769E0,6.264407175E0
8.136709958E0,1.836212826E-1,4.950898304E0,5.005199642E0,7.042523287E0
8.146735958E0,8.076086551E-1,4.746930465E0,5.256170323E0,7.128317266E0
8.156762958E0,1.712536760E0,4.557703457E0,4.035348879E0,6.323723865E0
8.166789958E0,2.703749886E0,4.594497646E0,3.302292515E0,6.270949523E0
8.176816958E0,2.851241224E0,4.818678140E0,2.272152573E0,6.042508821E0
8.186843958E0,1.981493915E0,5.131513533E0,1.171564793E0,5.624172236E0
8.196869958E0,1.697694918E0,5.061148725E0,2.043616489E-1,5.342205362E0
8.206896958E0,2.369716875E0,4.804327903E0,7.649523398E-1,5.411310077E0
8.216923958E0,2.988138283E0,4.613504021E0,2.413075148E0,6.003026022E0
8.226950958E0,3.160380884E0,4.248319675E0,3.434578460E0,6.311303874E0
8.236976958E0,2.615462485E0,3.784764113E0,3.687700333E0,5.896118821E0
8.247003958E0,1.515130520E0,3.249015318E0,3.523484497E0,5.026595670E0
8.257030958E0,8.865524983E-1,2.911668981E0,3.445618004E0,4.597398723E0
8.267057958E0,6.036273676E-1,2.923524211E0,3.187858997E0,4.367356729E0
8.277084958E0,3.014853626E-1,3.346314740E0,2.602501839E0,4.249909597E0
8.287110958E0,-8.959571600E-2,4.179020230E0,1.849720771E0,4.570963181E0
8.297137958E0,-5.413638765E-1,5.292508430E0,1.114470825E0,5.435601673E0
8.307164958E0,-1.020730310E0,6.513076106E0,5.816427138E-1,6.618183963E0
8.317191958E0,-1.573678690E0,7.499159909E0,-6.504398838E-1,7.690054356E0
8.327217958E0,-2.429880046E0,7.990331871E0,-2.063013457E0,8.602659180E0
8.337244958E0,-3.207594227E0,8.398418992E0,-2.483541114E0,9.326847203E0
8.347271958E0,-3.958836892E0,8.723499039E0,-2.748716144E0,9.966306511E0
8.357298958E0,-5.450285604E0,8.440326571E0,-2.934911664E0,1.046701640E1
8.367325958E0,-8.820958675E0,6.666871911E0,-5.002060272E0,1.213577768E1
8.377351958E0,-1.749029203E1,1.842030805E-1,-1.597333718E1,2.368737526E1
8.387378958E0,-2.139488957E1,-1.699419905E1,-1.867534138E1,3.309550539E1
8.397405958E0,-6.221592990E0,-3.787170476E1,2.675969473E0,3.847252336E1
8.407432958E0,5.499681128E0,-4.661456919E1,1.008081613E1,4.800820146E1
8.417459958E0,1.752139103E1,-2.623683553E1,2.537498869E1,4.048778499E1
8.427485958E0,1.640450151E1,-2.479594243E0,6.279431309E0,1.773942826E1
8.437512958E0,1.421082734E1,8.655783019E0,-6.208345538E0,1.775989154E1
8.447539958E0,1.617489070E1,1.219957811E1,-3.242567593E0,2.051757880E1
8.457566958E0,1.386759695E1,1.015443492E1,3.534202736E0,1.754746086E1
8.467592958E0,8.607501390E0,5.214797180E0,1.186955191E1,1.556179463E1
8.477619958E0,2.852005455E0,3.170945048E-2,1.198650908E1,1.232117448E1
8.487646958E0,-1.600113660E0,-5.442863733E0,6.535293771E0,8.654200946E0
8.497673958E0,-3.062627425E0,-9.629967154E0,-7.129969051E-1,1.013036617E1
8.507700958E0,-1.217156995E0,-1.239066161E1,-2.082006091E0,1.262318168E1
8.517726958E0,9.248935685E-1,-1.503125134E1,2.413677119E0,1.525187799E1
8.527753958E0,5.461639727E0,-1.536209966E1,4.189871492E0,1.683385392E1
8.537780958E0,7.098852509E0,-1.049053170E1,2.135976476E0,1.284551898E1
8.547807958E0,2.731005220E0,-2.680625610E0,1.440005493E0,4.088735623E0
8.557833958E0,1.000358903E0,1.344617525E0,2.744169057E0,3.215459227E0
8.567860958E0,1.260877503E0,3.874805387E0,2.822058063E0,4.956605751E0
8.577887958E0,2.087407602E0,5.604191921E0,9.431570542E-1,6.054236766E0
8.587914958E0,3.122249729E0,6.785945195E0,-1.817893353E0,7.687797591E0
8.597941958E0,3.644906901E0,6.073823910E0,-2.522714535E0,7.519359802E0
8.607967958E0,3.115489470E0,3.675748624E0,-1.316169652E0,4.994967982E0
8.617994958E0,3.029657022E0,1.404932140E0,-1.091288150E0,3.513341119E0
8.628021958E0,3.604614907E0,4.422874850E-1,-1.629761674E0,3.980576587E0
8.638048958E0,4.388095611E0,2.185812002E-1,-2.457473642E0,5.034117354E0
8.648074958E0,3.923240213E0,3.214524347E-1,-2.947851552E0,4.917822100E0
8.658101958E0,2.061582351E0,8.275470757E-1,-3.041288888E0,3.766217473E0
8.668128958E0,5.111485358E-1,1.695544020E0,-3.382579172E0,3.818112649E0
8.678155958E0,-7.083338968E-1,2.370343696E0,-3.658739659E0,4.416632432E0
8.688182958E0,-1.619771999E0,2.539258062E0,-3.065904497E0,4.297820752E0
8.698208958E0,-1.771767446E0,2.335606558E0,-2.562867365E0,3.893906394E0
8.708235958E0,-1.177087926E0,1.915692859E0,-2.635789745E0,3.464506126E0
8.718262958E0,8.247146845E-2,1.255358024E0,-2.707768970E0,2.985755869E0
8.728289958E0,1.209233579E0,6.457015926E-1,-2.357463450E0,2.727051579E0
8.738316958E0,2.352821784E0,2.237478000E-1,-1.221354126E0,2.660364510E0
8.748342958E0,3.191229917E0,-5.023401439E-2,2.329004467E-2,3.191710241E0
8.758369958E0,3.249836267E0,-4.080730873E-1,8.372101112E-1,3.380662683E0
8.768396958E0,2.999271966E0,-6.240212864E-1,1.142574005E0,3.269634574E0
8.778423958E0,2.825002136E0,-7.036170942E-1,6.417126220E-1,2.981192575E0
8.788449958E0,2.694509239E0,-9.610547966E-1,-5.512889403E-1,2.913404513E0
8.798476958E0,2.304303635E0,-1.139898904E0,-2.274521865E0,3.432584226E0
8.808503958E0,1.765316359E0,-1.071649033E0,-4.527176898E0,4.975952589E0
8.818530958E0,1.394407882E0,-8.766894150E-1,-5.943122853E0,6.167144146E0
8.828557958E0,1.126180167E0,-5.535711086E-1,-6.461928756E0,6.582647339E0
8.838583958E0,7.540545917E-1,-2.183724546E-1,-8.854188402E0,8.888922157E0
8.848610958E0,4.506107041E-1,-4.184267521E-2,-1.192081678E1,1.192940374E1
8.858637958E0,3.310082468E-1,-5.729628146E-2,-1.306286337E1,1.306718213E1
8.868664958E0,8.845363784E-1,-4.670884502E-1,-1.216030704E1,1.220137876E1
8.878690958E0,2.784436492E0,-1.835574310E0,-9.704400455E0,1.026147201E1
8.888717958E0,4.270400516E0,-3.931609333E0,-7.379107216E0,9.388561967E0
8.898744958E0,5.471099938E0,-5.789706532E0,-5.716180719E0,9.804507039E0
8.908771958E0,6.318864346E0,-7.265362499E0,-2.218620729E0,9.881083787E0
8.918798958E0,6.828208870E0,-8.034312873E0,1.782524861E0,1.069355014E1
8.928824958E0,6.104167451E0,-9.219112546E0,4.048081191E0,1.177454278E1
8.938851958E0,4.240979081E0,-8.986314425E0,4.918764346E0,1.108756029E1
8.948878958E0,1.148126667E0,-7.498591560E0,5.231669905E0,9.215065937E0
8.958905958E0,-1.625307558E0,-6.772243415E0,3.903982408E0,7.984108226E0
8.968931958E0,-2.285130176E0,-6.323394184E0,3.190521526E0,7.442214828E0
8.978959958E0,-3.944616464E-1,-5.113898796E0,5.033437600E0,7.186310247E0
8.988986958E0,2.126827776E0,-4.047854319E0,6.884697651E0,8.264840151E0
8.999013958E0,2.206292168E0,-2.894717318E0,6.016945120E0,7.032122159E0
9.009040958E0,1.207588757E0,-1.974746228E0,6.326073378E0,6.736252494E0
9.019066958E0,1.234680954E0,-1.918298963E0,4.339384797E0,4.902506337E0
9.029093958E0,1.648981765E0,-2.033606640E0,1.023499259E0,2.811093659E0
9.039120958E0,2.353477695E0,-1.831734443E0,-6.410339065E-1,3.050415185E0
9.049147958E0,3.503242899E0,-1.799483541E0,-1.822406380E0,4.339587173E0
9.059174958E0,5.547050006E0,-1.981382234E0,-2.512058569E0,6.403598799E0
9.069200958E0,7.995792586E0,-2.325023097E0,-1.862428963E0,8.532706084E0
9.079227958E0,1.011244840E1,-2.933717077E0,1.257004308E0,1.060416750E1
9.089254958E0,1.050755061E1,-3.111185920E0,3.371992495E0,1.146553230E1
9.099281958E0,6.636224899E0,-1.936696642E0,3.563221005E0,7.777327223E0
9.109307958E0,2.774656147E0,-4.681415337E-1,3.902405122E0,4.811095402E0
9.119334958E0,1.201522417E0,8.602534765E-1,5.824022672E0,6.008571564E0
9.129361958E0,1.264070083E-1,1.917260497E0,7.299933577E0,7.548569187E0
9.139388958E0,-7.664648683E-1,2.786514008E0,7.610007915E0,8.140291713E0
9.149415958E0,-1.948415778E0,3.658404028E0,7.259743325E0,8.359672076E0
9.159441958E0,-3.082268807E0,4.630832244E0,6.837287257E0,8.814390807E0
9.169468958E0,-2.894209780E0,5.829675760E0,7.089357215E0,9.623957369E0
9.179495958E0,-2.063645833E0,6.670797147E0,6.708804048E0,9.683295950E0
9.189522958E0,-1.510516482E0,6.813123053E0,6.006948135E0,9.207808191E0
9.199548958E0,-1.901729415E0,7.009169669E0,5.501443478E0,9.111032574E0
9.209575958E0,-2.403883179E0,6.950275344E0,4.812140661E0,8.788724562E0
9.219602958E0,-1.873626674E0,6.588506357E0,4.166633488E0,8.017463910E0
9.229629958E0,-6.167711775E-1,6.287545490E0,3.783885569E0,7.364198868E0
9.239656958E0,6.075413476E-1,6.163751748E0,3.598927613E0,7.163324791E0
9.249682958E0,1.541533622E0,6.565955400E0,3.211660380E0,7.470131098E0
9.259709958E0,1.997923422E0,7.546890146E0,2.023195088E0,8.064773229E0
9.269736958E0,1.948483167E0,8.323245433E0,5.871645319E-1,8.568416620E0
9.279763958E0,1.480417793E0,8.493864262E0,-1.091164408E0,8.690685054E0
9.289789958E0,6.945781758E-1,7.750830503E0,-3.669085722E0,8.603487802E0
9.299816958E0,-4.154345857E-1,5.882726963E0,-7.915336068E0,9.870745031E0
9.309843958E0,-2.297074868E0,1.585605841E0,-2.083618343E1,2.102230337E1
9.319870958E0,-5.270222352E0,-1.167695398E1,-5.077978415E1,5.237091727E1
9.329897958E0,-6.865314131E0,-3.489589299E1,-1.634464005E1,3.914081175E1
9.339923958E0,1.966432073E0,-4.718283903E1,4.122859594E1,6.268878909E1
9.349950958E0,8.677182659E0,-2.364283057E1,5.170977678E1,5.751676235E1
9.359977958E0,5.365598041E-1,4.008137691E-1,2.359006998E1,2.359957520E1
9.370004958E0,-3.008649438E0,7.892489242E0,6.706178648E0,1.078499837E1
9.380031958E0,-9.114824531E0,1.254907087E1,-1.487438691E1,2.148968571E1
9.390057958E0,-1.396017124E1,1.228075150E1,-1.991720695E0,1.869947030E1
9.400084958E0,-1.119321733E1,5.161902097E0,2.002472556E1,2.351431439E1
9.410111958E0,-7.537787200E0,-2.517321063E0,1.545101242E1,1.737495111E1
9.420138958E0,-4.366671998E0,-7.846086908E0,9.300538532E0,1.292783513E1
9.430164958E0,6.235916622E-1,-9.464123746E0,1.325451230E0,9.576811880E0
9.440191958E0,3.904420364E0,-9.300025731E0,-2.687014278E0,1.043815227E1
9.450218958E0,2.853808151E0,-8.172751551E0,1.217968150E0,8.741941162E0
9.460245958E0,1.494780309E0,-6.361767706E0,4.118533415E0,7.724556558E0
9.470272958E0,2.592096719E0,-4.527746417E0,3.693881425E0,6.392512260E0
9.480298958E0,6.079581664E0,-2.814880021E0,1.800544810E0,6.937349951E0
9.490325958E0,6.631725467E0,-1.731020831E0,3.745516213E-1,6.864146320E0
9.500352958E0,4.921540604E0,-1.085422150E0,7.160190386E-1,5.090421045E0
9.510379958E0,3.117447411E0,-3.221400672E-1,2.689403450E-1,3.145565369E0
9.520405958E0,2.033325097E0,6.466283762E-1,-4.071006954E-1,2.172157955E0
9.530432958E0,9.735447416E-1,1.741841689E0,-2.871415579E-1,2.015999034E0
9.540459958E0,-1.759672773E-1,2.397935538E0,-4.371834505E-1,2.443806190E0
9.550486958E0,-4.873426205E-1,2.763963636E0,-6.804440669E-1,2.887906152E0
9.560513958E0,3.581156462E-2,3.173086299E0,-1.342737646E0,3.445678962E0
9.570539958E0,6.536342177E-1,3.526276835E0,-2.907144991E0,4.616639254E0
9.580566958E0,8.003317952E-1,3.330283429E0,-4.146100405E0,5.377868283E0
9.590593958E0,6.244729838E-1,2.757479659E0,-4.193986763E0,5.057982359E0
9.600620958E0,5.210260910E-1,2.457269574E0,-2.451945099E0,3.510224596E0
9.610647958E0,4.678287442E-1,2.052412455E0,-1.666838723E0,2.685072056E0
9.620673958E0,3.748278291E-1,1.384601371E0,-2.457058489E0,2.845127990E0
9.630700958E0,-1.423894587E-1,1.014000165E0,-2.499359586E0,2.700975645E0
9.640727958E0,-7.923618941E-1,1.042693037E0,-2.551448337E0,2.867914706E0
9.650754958E0,-7.156657206E-1,1.133490940E0,-2.947285541E0,3.237818895E0
9.660780958E0,-4.162317073E-1,9.290371978E-1,-2.594956884E0,2.787500705E0
9.670807958E0,-1.749263998E-2,8.756942189E-1,-2.843209488E0,2.975060764E0
9.680834958E0,6.317011656E-1,1.054999087E0,-3.836362867E0,4.028616324E0
9.690861958E0,1.069289390E0,1.485677510E0,-4.802429312E0,5.139449850E0
9.700888958E0,1.322510519E0,2.160483618E0,-5.970561497E0,6.485701822E0
9.710914958E0,1.592460678E0,2.581866723E0,-7.985685089E0,8.542431335E0
9.720941958E0,2.161282640E0,2.471894630E0,-9.864041137E0,1.039618744E1
9.730968958E0,2.213038977E0,2.693740330E0,-9.763495924E0,1.036723836E1
9.740995958E0,1.522488802E0,3.018593506E0,-7.831667089E0,8.530233778E0
9.751021958E0,5.786930859E-1,3.031225830E0,-5.967484692E0,6.718190923E0
9.761048958E0,-2.987702081E-1,2.877511886E0,-5.472585715E0,6.190196499E0
9.771075958E0,-6.971472962E-1,2.504368311E0,-5.707329204E0,6.271481614E0
9.781102958E0,-4.530637573E-1,1.750964515E0,-4.875704280E0,5.200349577E0
9.791129958E0,9.578532998E-1,-6.080402613E-2,-2.503090987E0,2.680791779E0
9.801155958E0,2.685657724E0,-2.846490068E0,4.642838332E-1,3.940916467E0
9.811182958E0,3.630987604E0,-6.531241066E0,3.250916832E0,8.149211071E0
9.821209958E0,4.319035317E0,-1.004175205E1,4.869199837E0,1.196661846E1
9.831236958E0,2.676786621E0,-1.416375257E1,4.723835133E0,1.516877358E1
9.841262958E0,-4.154520981E0,-1.819553641E1,9.917918551E-1,1.869013753E1
9.851289958E0,-1.259533872E1,-1.885286870E1,-1.614455418E0,2.273058912E1
9.861316958E0,-1.567973445E1,-1.662026143E1,1.436472605E0,2.289433589E1
9.871343958E0,-1.360530606E1,-1.266461068E1,3.349177537E0,1.888686599E1
9.881370958E0,-9.108530588E0,-9.220676676E0,1.777961694E0,1.308232990E1
9.891396958E0,-5.362922940E0,-7.859913234E0,-9.775280841E-1,9.565288269E0
9.901423958E0,-4.418497624E0,-7.000520468E0,-2.020893624E0,8.521409456E0
9.911450958E0,-2.668657237E0,-5.311326524E0,-9.405256610E-1,6.018015405E0
9.921477958E0,-1.045272682E0,-3.749823491E0,4.827429083E-1,3.922602696E0
9.931504958E0,-1.255963650E0,-2.360029208E0,2.326551121E0,3.544012228E0
9.941530958E0,-1.419420078E0,-1.754197440E0,6.136905427E0,6.538621432E0
9.951557958E0,-1.119292147E0,-1.694351188E0,8.898188699E0,9.126960227E0
9.961584958E0,-1.989868151E0,-9.856300592E-1,7.580377150E0,7.898934080E0
9.971611958E0,-2.688590395E0,6.301795739E-1,3.583602645E0,4.524141082E0
9.981637750E0,-3.175427524E0,2.073124462E0,1.820376227E0,4.206537127E0
9.991664750E0,-2.958306666E0,2.580750489E0,2.473012910E0,4.639789248E0
1.000169175E1,-2.521719339E0,2.685847174E0,3.782482237E0,5.280152965E0
1.001171875E1,-1.169187461E0,2.748327012E0,5.137592883E0,5.942656083E0
1.002174575E1,3.045238683E-1,2.735618089E0,5.899320191E0,6.509863273E0
1.003177175E1,1.462321538E0,2.772912800E0,6.635263617E0,7.338538883E0
1.004179875E1,1.940690583E0,3.127302600E0,6.710191008E0,7.653297646E0
1.005182575E1,2.259803693E0,3.396817726E0,6.092061961E0,7.332005342E0
1.006185275E1,2.646620543E0,3.463397632E0,5.461691183E0,6.987831855E0
1.007187875E1,2.619983552E0,3.573963802E0,4.099022133E0,6.036515015E0
1.008190575E1,2.277968799E0,4.067109784E0,2.738177123E0,5.406305375E0
1.009193275E1,1.840362887E0,5.006315875E0,1.790855974E0,5.626481966E0
1.010195975E1,1.083085895E0,5.140373819E0,2.449655914E-1,5.258947252E0
1.011198675E1,8.809312776E-1,4.806569726E0,-1.861309075E-1,4.890173531E0
1.012201275E1,7.280710271E-1,4.278388397E0,1.303396409E0,4.531394586E0
1.013203975E1,8.948368335E-1,3.778090686E0,3.025205537E0,4.922049444E0
1.014206675E1,8.945260540E-1,3.281242247E0,3.836480689E0,5.126920286E0
1.015209375E1,2.814671275E-1,2.597843655E0,3.901670419E0,4.695854284E0
1.016211975E1,-6.217078355E-1,1.916167653E0,3.869435889E0,4.362425151E0
1.017214675E1,-1.683670956E0,1.363605773E0,4.113328224E0,4.649046963E0
1.018217375E1,-2.577080192E0,1.092349931E0,4.452643025E0,5.259334615E0
1.019220075E1,-2.922798572E0,1.186619911E0,4.377908592E0,5.396007964E0
1.020222775E1,-2.925323984E0,1.638752353E0,3.470537083E0,4.825728684E0
1.021225375E1,-2.876107970E0,2.321079150E0,2.364843221E0,4.387697453E0
1.022228075E1,-3.048962774E0,3.086152235E0,1.307804625E0,4.531099486E0
1.023230775E1,-3.524289367E0,3.835695700E0,1.314249426E-1,5.210609327E0
1.024233475E1,-4.210013689E0,4.458368618E0,-9.403150150E-1,6.203664911E0
1.025236075E1,-4.629785593E0,4.772640672E0,-1.371565003E0,6.789271255E0
1.026238775E1,-4.614660015E0,4.880502505E0,-1.404314674E0,6.861959739E0
1.027241475E1,-4.796452581E0,4.884912475E0,-7.367708069E-1,6.885576118E0
1.028244175E1,-5.805891041E0,4.643656358E0,2.507461488E-2,7.434550684E0
1.029246875E1,-8.848219564E0,3.625119923E0,-1.183776995E0,9.635030456E0
1.030249475E1,-1.207700644E1,1.088509480E0,-6.643925682E0,1.382681040E1
1.031252175E1,-6.894135057E0,-2.828059060E0,-1.006379956E1,1.252226329E1
1.032254875E1,2.933036754E0,-7.201822561E0,9.917310441E-1,7.839163429E0
1.033257575E1,-1.669002923E-1,-1.192398481E1,6.439854348E0,1.355289612E1
1.034260275E1,-2.485135065E0,-1.209666595E1,9.895802042E0,1.582504728E1
1.035262875E1,4.143656562E0,-3.204205180E0,1.047649838E1,1.171297737E1
1.036265575E1,3.236327737E0,3.087862546E0,-8.554890482E0,9.653748675E0
1.037268275E1,2.635876577E0,4.087760396E0,-8.169185919E-1,4.932036736E0
1.038270975E1,4.217395506E0,3.596232339E0,5.987565785E0,8.159059745E0
1.039273575E1,8.048228077E0,2.286028016E0,8.371714758E0,1.183577236E1
1.040276275E1,9.266583751E0,1.108614546E-1,9.044988896E0,1.294965979E1
1.041278975E1,7.421007779E0,-2.371770417E0,4.734495192E0,9.116583575E0
1.042281675E1,4.178971113E0,-5.801019725E0,1.268650500E0,7.261205376E0
1.043284375E1,9.475983068E-1,-7.964487178E0,2.354508852E0,8.359109432E0
1.044286975E1,-7.063445279E-1,-8.487885484E0,4.451530885E0,9.610371991E0
1.045289675E1,-5.267863293E-1,-8.755630074E0,4.675911646E0,9.939955309E0
1.046292375E1,8.760399355E-1,-8.039606357E0,3.332757094E0,8.746998696E0
1.047295075E1,2.437187019E0,-5.908552945E0,8.157400855E-1,6.443315168E0
1.048297675E1,3.113464580E0,-3.547121574E0,-5.094151287E-1,4.747129335E0
1.049300375E1,2.407219601E0,-2.179515721E0,2.364087760E-1,3.255899890E0
1.050303075E1,1.918263879E0,-1.479885843E0,1.156421235E0,2.684605835E0
1.051305775E1,2.169474297E0,-8.754872274E-1,1.611650509E0,2.840865004E0
1.052308475E1,2.758403226E0,-1.540986907E-1,2.302811279E0,3.596592075E0
1.053311075E1,3.283015707E0,3.038031989E-1,1.911577588E0,3.811117604E0
1.054313775E1,2.867000347E0,8.085681832E-1,1.146937197E0,3.192011659E0
1.055316475E1,2.345265281E0,1.409567227E0,5.402114633E-1,2.789081826E0
1.056319175E1,1.704783498E0,2.016124050E0,-8.327429116E-2,2.641586184E0
1.057321775E1,7.897363481E-1,2.422072844E0,-4.453800774E-1,2.586210311E0
1.058324475E1,-6.676206479E-2,2.436547042E0,-4.065510571E-1,2.471133833E0
1.059327175E1,-2.160032725E-1,2.168047577E0,-5.720419512E-1,2.252625069E0
1.060329875E1,-2.296287468E-1,1.983752695E0,-1.792711880E0,2.683620689E0
1.061332575E1,-6.089605399E-1,1.771566010E0,-3.042313905E0,3.572807434E0
1.062335175E1,-7.251280504E-1,1.519134108E0,-2.944442040E0,3.391654177E0
1.063337875E1,-2.851286539E-1,1.051394863E0,-2.836677271E0,3.038662115E0
1.064340575E1,-2.707078122E-2,3.678968686E-1,-2.428736331E0,2.456591358E0
1.065343275E1,7.084212396E-3,-2.652940214E-2,-2.368753254E0,2.368912403E0
1.066345975E1,1.025314089E0,-2.440469939E-1,-3.201424829E0,3.370452322E0
1.067348575E1,2.181067425E0,-3.933036053E-1,-4.466788609E0,4.986375770E0
1.068351275E1,2.364993933E0,-2.205920577E-1,-5.226819055E0,5.741210203E0
1.069353975E1,2.455622706E0,1.064421290E-1,-4.552278410E0,5.173456439E0
1.070356675E1,1.953939935E0,3.526438218E-1,-3.930004272E0,4.403086703E0
1.071359275E1,9.118525965E-1,4.954907155E-1,-4.248949420E0,4.373849264E0
1.072361975E1,7.688373761E-1,5.531027466E-1,-4.190848562E0,4.296538750E0
1.073364675E1,1.351000931E0,5.570297366E-1,-4.403333748E0,4.639486366E0
1.074367375E1,1.715538282E0,7.676505375E-1,-5.612459300E0,5.918788587E0
1.075370075E1,1.715006331E0,1.031524855E0,-7.669658285E0,7.926471375E0
1.076372675E1,1.481211553E0,1.622894120E0,-9.569244404E0,9.818259084E0
1.077375375E1,8.330259899E-1,2.354488971E0,-1.029706020E1,1.059561227E1
1.078378075E1,-6.234900668E-1,2.698242686E0,-9.092846602E0,9.505215031E0
1.079380775E1,-2.271125949E0,2.614148031E0,-6.665740474E0,7.511582994E0
1.080383375E1,-3.125444647E0,2.310745366E0,-5.369684075E0,6.628835151E0
1.081386075E1,-3.155113420E0,1.819471078E0,-6.458019893E0,7.414259007E0
1.082388775E1,-2.427618343E0,8.178266644E-1,-7.072276329E0,7.521918887E0
1.083391475E1,2.308184724E-1,-2.233499554E0,-3.734533314E0,4.357583792E0
1.084394175E1,3.661758868E0,-7.078855616E0,1.656600540E0,8.140208854E0
1.085396775E1,6.635274727E0,-1.098162414E1,3.464432589E0,1.329004261E1
1.086399475E1,8.172790727E0,-1.344976778E1,2.223835861E0,1.589453389E1
1.087402175E1,7.739064735E0,-1.521682442E1,2.196515477E0,1.721248235E1
1.088404875E1,4.399350624E0,-1.340104410E1,4.539996334E0,1.481734915E1
1.089407575E1,3.184840956E-1,-8.706825119E0,5.929266706E0,1.053880636E1
1.090410175E1,-2.079553622E0,-5.411025644E0,3.655418440E0,6.853161734E0
1.091412875E1,-3.916633444E0,-3.790961577E0,-1.037575554E0,5.548690858E0
1.092415575E1,-3.588136576E0,-4.152021881E0,-4.098611659E0,6.849279328E0
1.093418275E1,-1.798648704E0,-4.957574070E0,-2.515514274E0,5.842986384E0
1.094420875E1,-1.168156012E-1,-5.745354817E0,-4.520565744E-1,5.764295534E0
1.095423575E1,7.429707558E-1,-5.975214127E0,7.992991769E-1,6.074048780E0
1.096426275E1,1.804147426E-1,-5.568067823E0,3.131705554E0,6.390892616E0
1.097428975E1,4.368378069E-1,-5.413840494E0,5.202630293E0,7.521160690E0
1.098431683E1,1.008451888E0,-4.810932333E0,3.691848933E0,6.147503043E0
1.099434283E1,1.829243529E0,-3.418989784E0,2.612922162E0,4.675787127E0
1.100436983E1,1.549931686E0,-1.503614429E0,4.977537341E-1,2.216055812E0
1.101439683E1,1.629175930E0,-2.215414116E0,1.230930111E0,3.012882815E0
1.102442383E1,3.113272206E0,3.577735841E-2,5.222216127E0,6.079908316E0
1.103444983E1,1.786825634E0,1.162639895E0,6.147459651E0,6.506591853E0
1.104447683E1,2.036577903E-1,1.420148934E0,7.116577173E0,7.259750006E0
1.105450383E1,7.557286495E-1,2.510252949E0,5.533915991E0,6.123456691E0
1.106453083E1,1.251072746E0,3.177162977E0,3.769164911E0,5.085877675E0
1.107455783E1,1.608450620E0,4.058015610E0,3.933902026E0,5.876239379E0
1.108458383E1,1.904795988E0,4.549627283E0,4.427352940E0,6.627881277E0
1.109461083E1,1.759004436E0,4.497456670E0,4.874441866E0,6.861588491E0
1.110463783E1,8.628233278E-1,4.412214206E0,5.322724501E0,6.967316156E0
1.111466483E1,2.265275663E-1,3.984160014E0,5.915495344E0,7.135680130E0
1.112469083E1,1.316171698E-1,3.979600355E0,6.072227036E0,7.261300382E0
1.113471783E1,4.523941049E-1,4.207946405E0,5.449277544E0,6.899717322E0
1.114474483E1,1.211884561E0,4.512232584E0,4.733102385E0,6.650651492E0
1.115477183E1,2.055415585E0,4.629304367E0,4.342215434E0,6.671583547E0
1.116479883E1,2.566208464E0,4.553583509E0,3.952811629E0,6.553263952E0
1.117482483E1,2.783735996E0,4.893137754E0,3.736877756E0,6.756940027E0
1.118485183E1,2.389932454E0,5.359184230E0,3.470241798E0,6.817272980E0
1.119487883E1,1.487916701E0,5.638548406E0,2.821427733E0,6.478238857E0
1.120490583E1,4.031286818E-1,5.820911953E0,1.715828011E0,6.081907140E0
1.121493183E1,-1.353200653E-1,6.926291234E0,6.519160134E-1,6.958219332E0
1.122495883E1,-4.466541857E-1,7.716083423E0,5.440249443E-3,7.729002067E0
1.123498583E1,-1.918032914E-1,7.879903110E0,-8.942111814E-1,7.932797436E0
1.124501283E1,2.728848767E-1,7.803971168E0,-2.136512665E0,8.095746940E0
1.125503983E1,-3.011775067E-1,6.590999610E0,-2.903391663E0,7.208444138E0
1.126506583E1,-1.216843584E0,4.542570278E0,-4.192521158E0,6.300229099E0
1.127509283E1,-1.698272038E0,2.433688923E0,-5.785376669E0,6.502119108E0
1.128511983E1,-1.717253855E0,8.288381410E-1,-7.368792143E0,7.611506494E0
1.129514683E1,-1.423128967E0,-1.166187401E0,-1.002448289E1,1.019193535E1
1.130517283E1,-1.528023046E0,-3.478438425E0,-1.476105384E1,1.524214876E1
1.131519983E1,-4.210210447E0,-1.132939899E1,-2.406905517E1,2.693326141E1
1.132522683E1,-3.408661262E0,-2.588333158E1,-1.360258827E0,2.614222886E1
1.133525383E1,-1.344232486E0,-3.402851234E1,2.730799165E1,4.365172415E1
1.134528083E1,2.250049514E0,-2.778385443E1,2.705081707E1,3.884265688E1
1.135530683E1,3.720729792E0,-9.473220844E0,1.789130344E1,2.058359740E1
1.136533383E1,8.731679294E-1,5.151344365E0,1.131663452E1,1.246454924E1
1.137536083E1,1.137358581E0,1.267390425E1,-4.860538649E0,1.362153697E1
1.138538783E1,7.196915578E0,1.498086003E1,-6.761576339E0,1.794270536E1
1.139541483E1,9.913358892E0,1.171331547E1,8.016791691E0,1.731315664E1
1.140544083E1,6.571034292E0,6.387652745E0,1.386768466E1,1.662207198E1
1.141546783E1,1.306732392E0,-9.931115717E-1,1.316951541E1,1.327139617E1
1.142549483E1,-3.784277040E0,-1.064865912E1,1.247288048E1,1.683114498E1
1.143552183E1,-1.667163389E0,-1.505643179E1,1.251237374E1,1.964777516E1
1.144554783E1,5.174310474E0,-1.725095497E1,7.693056504E0,1.958448505E1
1.145557483E1,1.321851040E1,-1.549341409E1,-5.617211916E0,2.112647550E1
1.146560183E1,8.568320367E0,-8.966582996E0,-7.498490403E0,1.449286317E1
1.147562883E1,2.536033908E0,-4.899528760E0,2.051954180E0,5.886201322E0
1.148565583E1,2.550757197E0,-1.967233726E0,4.959211875E0,5.913556733E0
1.149568183E1,2.880264171E0,6.735179669E-1,4.574682602E0,5.447684742E0
1.150570883E1,2.104223902E0,3.008569624E0,2.373520343E0,4.371824359E0
1.151573583E1,7.510899071E-1,4.439122508E0,-9.133537229E-1,4.593926394E0
1.152576283E1,-4.342377694E-1,4.601096814E0,-2.608714213E0,5.306980702E0
1.153578883E1,-1.285387570E0,3.997606271E0,-3.049539310E0,5.189678902E0
1.154581583E1,-1.937494202E0,3.475175094E0,-3.781178015E0,5.488900883E0
1.155584283E1,-2.241294478E0,2.887335209E0,-4.739514441E0,5.985240403E0
1.156586983E1,-2.188153520E0,2.420245004E0,-5.673671461E0,6.544933121E0
1.157589683E1,-1.718411019E0,2.369246174E0,-5.724115391E0,6.428978213E0
1.158592283E1,-1.047698253E0,2.567362120E0,-5.400218820E0,6.070534012E0
1.159594983E1,-3.037111053E-1,2.024717118E0,-4.875348185E0,5.287791577E0
1.160597683E1,-3.260287580E-1,1.327216212E0,-4.127786926E0,4.348151622E0
1.161600383E1,-6.330195665E-2,1.339645053E0,-5.164180757E0,5.335486754E0
1.162603083E1,1.511435080E0,1.533590180E0,-4.002562371E0,4.544979689E0
1.163605683E1,2.461027579E0,1.833660516E0,-2.954120352E0,4.259788104E0
1.164608383E1,2.914152586E0,1.761953772E0,-2.718119711E0,4.357171233E0
1.165611083E1,3.500232460E0,1.327950622E0,-2.715118335E0,4.624602437E0
1.166613783E1,3.824968691E0,6.002850991E-1,-3.048677430E0,4.927997743E0
1.167616383E1,3.725267816E0,2.302048802E-3,-3.661558017E0,5.223469413E0
1.168619083E1,3.514714259E0,1.470381778E-1,-4.627882909E0,5.813100443E0
1.169621783E1,3.742504824E0,6.659411448E-1,-5.617524158E0,6.782801606E0
1.170624483E1,4.135863685E0,1.116362107E0,-6.514135621E0,7.796511763E0
1.171627183E1,3.946305140E0,1.366610658E0,-7.243116183E0,8.360842121E0
1.172629783E1,3.252978560E0,1.716892204E0,-8.069387981E0,8.868179674E0
1.173632483E1,3.013594429E0,2.351505722E0,-8.220495236E0,9.065752725E0
1.174635183E1,3.323077028E0,2.041720821E0,-6.498131792E0,7.578732192E0
1.175637883E1,3.942291026E0,4.081567025E-1,-2.608335314E0,4.744645776E0
1.176640483E1,4.701878253E0,-2.425476508E0,1.288945016E0,5.445362674E0
1.177643183E1,6.773736793E0,-5.765235350E0,3.859272258E0,9.696155483E0
1.178645883E1,9.485566070E0,-8.868028761E0,6.024106790E0,1.431459955E1
1.179648583E1,9.507185565E0,-1.106429559E1,6.704565986E0,1.605479428E1
1.180651283E1,4.454517935E0,-1.217788494E1,5.252694154E0,1.399051134E1
1.181653883E1,-1.274484705E0,-1.102456259E1,2.891943984E0,1.146859326E1
1.182656583E1,-4.097912917E0,-9.308336964E0,1.302996021E0,1.025357625E1
1.183659283E1,-4.185181441E0,-7.158819798E0,1.369573588E0,8.404771050E0
1.184661983E1,-3.139799854E0,-5.342303903E0,1.721865992E0,6.431436590E0
1.185664583E1,-1.263212297E0,-4.985203333E0,2.010182987E0,5.521665801E0
1.186667283E1,-1.202723435E0,-5.257586519E0,2.446468597E0,5.922327943E0
1.187669983E1,-1.476133685E0,-6.531990679E0,3.166943506E0,7.407793467E0
1.188672683E1,-6.267756173E-1,-7.769101882E0,3.604195077E0,8.587317036E0
1.189675383E1,4.984010209E-1,-7.762576389E0,3.885058479E0,8.694807368E0
1.190677983E1,2.829332584E0,-6.393809279E0,3.996871568E0,8.053626655E0
1.191680683E1,4.604063691E0,-4.795447152E0,2.645468642E0,7.154873877E0
1.192683383E1,5.175782218E0,-3.396114891E0,1.946746544E0,6.489386722E0
1.193686083E1,4.401746521E0,-2.390720658E0,2.064818785E0,5.417969575E0
1.194688683E1,3.406614152E0,-1.629362310E0,2.230551096E0,4.385795219E0
1.195691383E1,2.971481904E0,-9.432523638E-1,3.669729793E0,4.815220294E0
1.196694083E1,3.029118786E0,-1.088763249E-1,5.470028143E0,6.253688716E0
1.197696800E1,2.671409229E0,6.055394071E-1,6.321618969E0,6.889555257E0
1.198699500E1,1.670372341E0,1.158417036E0,6.472261956E0,6.783969974E0
1.199702100E1,9.376250035E-1,1.471374636E0,6.800363844E0,7.020614815E0
1.200704800E1,8.236461789E-1,1.842660550E0,7.053872218E0,7.336954695E0
1.201707500E1,1.049662918E0,2.031221561E0,7.391760591E0,7.737297842E0
1.202710200E1,1.041331805E0,2.526717539E0,7.530473503E0,8.011036426E0
1.203712900E1,6.078247183E-1,3.043815470E0,7.600406787E0,8.209777514E0
1.204715500E1,-3.368873298E-2,3.192394974E0,7.315202411E0,7.981522845E0
1.205718200E1,-7.745873818E-1,3.528391188E0,6.941882250E0,7.825551685E0
1.206720900E1,-1.318251553E0,3.835568231E0,6.194906298E0,7.404473975E0
1.207723600E1,-1.547014510E0,3.712519425E0,5.216413350E0,6.586882617E0
1.208726200E1,-1.684827828E0,3.393694729E0,4.458925273E0,5.851309538E0
1.209728900E1,-2.151763081E0,3.032187113E0,4.186510513E0,5.599206490E0
1.210731600E1,-2.933652173E0,2.777490000E0,4.299192790E0,5.899476623E0
1.211734300E1,-3.011103515E0,3.073143935E0,4.186420466E0,6.003088733E0
1.212737000E1,-2.440256515E0,3.630477142E0,3.657933912E0,5.702253646E0
1.213739600E1,-1.046772493E0,3.723857176E0,2.960014345E0,4.870783288E0
1.214742300E1,6.452963805E-1,3.686274782E0,2.366562302E0,4.427826365E0
1.215745000E1,1.718906570E0,3.740107757E0,2.045001694E0,4.596202537E0
1.216747700E1,2.230166203E0,3.882986811E0,1.565826464E0,4.743736964E0
1.217750300E1,2.165410775E0,3.501626143E0,6.543993258E-1,4.168768157E0
1.218753000E1,1.926133939E0,2.463830734E0,-6.916940367E-1,3.202950902E0
1.219755700E1,1.198819688E0,1.139311259E0,-2.528409431E0,3.021266794E0
1.220758400E1,-8.763979313E-1,3.501967621E-1,-3.903201220E0,4.015680624E0
1.221761100E1,-3.811888177E0,6.832068032E-1,-5.573005797E0,6.786431803E0
1.222763700E1,-5.271436819E0,1.863611709E0,-6.734731772E0,8.753154104E0
1.223766400E1,-4.927343965E0,3.189571939E0,-7.163854251E0,9.261365743E0
1.224769100E1,-4.322088733E0,1.094823303E0,-9.575898535E0,1.056299777E1
1.225771800E1,-3.906271008E0,-7.374686136E0,-2.152549064E1,2.308661292E1
1.226774400E1,-4.923939131E0,-2.344601797E1,-1.033088166E1,2.608999907E1
1.227777100E1,-4.482089603E-1,-3.082620517E1,2.313786269E1,3.854629044E1
1.228779800E1,8.845112354E0,-1.707661088E1,2.772635057E1,3.374310548E1
1.229782500E1,8.932801877E0,-2.770917730E0,2.115716283E1,2.313219560E1
1.230785200E1,4.504772414E0,6.734506069E0,6.066982668E0,1.012199710E1
1.231787800E1,4.155308601E0,1.254940650E1,-1.254808152E1,1.822658890E1
1.232790500E1,9.099914131E0,9.320190439E0,-5.646433377E0,1.419706297E1
1.233793200E1,1.227124042E1,7.540814888E-1,1.117127040E1,1.661172064E1
1.234795900E1,9.536489471E0,-6.132275602E0,1.885778503E1,2.200376086E1
1.235798500E1,5.211306977E0,-1.097645871E1,1.604851132E1,2.012945806E1
1.236801200E1,5.734433388E0,-1.584990246E1,-2.052466249E-1,1.685660880E1
1.237803900E1,3.724897395E0,-1.640087857E1,-4.443806713E0,1.739572064E1
1.238806600E1,1.178856855E0,-1.157298230E1,2.321853322E-1,1.163518512E1
1.239809300E1,1.323731563E0,-5.284667898E0,2.801438441E0,6.126013172E0
1.240811900E1,1.637786101E-1,-6.713866568E-1,4.198125714E0,4.254626069E0
1.241814600E1,-1.005395402E0,1.529407666E0,3.982541505E0,4.382983523E0
1.242817300E1,-2.027254810E0,2.471752542E0,2.255717804E0,3.912490959E0
1.243820000E1,-2.748966113E0,2.917697461E0,7.123800239E-1,4.071517955E0
1.244822700E1,-3.913931738E-1,2.746093376E0,1.218322930E-1,2.776519503E0
1.245825300E1,2.603166375E0,2.052056944E0,-1.542308378E-1,3.318312829E0
1.246828000E1,4.292331083E0,1.387357748E0,-1.674430601E-1,4.514078513E0
1.247830700E1,4.785900403E0,9.021440989E-1,2.291474113E-1,4.875573318E0
1.248833400E1,4.395056722E0,2.967438555E-1,5.422634706E-1,4.438313889E0
1.249836000E1,4.043690516E0,8.070911765E-3,6.756060076E-1,4.099748969E0
1.250838700E1,3.768821095E0,5.186772645E-2,1.029209650E0,3.907169718E0
1.251841400E1,3.231047409E0,6.669135368E-1,1.604566022E0,3.668660947E0
1.252844100E1,2.778690434E0,1.692864241E0,2.044375896E0,3.842705124E0
1.253846800E1,2.577784489E0,3.918315103E0,2.631461052E0,5.377987857E0
1.254849400E1,2.162709946E0,5.672973304E0,2.748781925E0,6.664513672E0
1.255852100E1,1.513322999E0,2.774442431E0,2.639436946E0,4.117560528E0
1.256854800E1,1.609686429E0,4.778110743E-1,2.292536552E0,2.841675151E0
1.257857500E1,1.435736149E0,1.376357381E0,1.949516662E0,2.785015825E0
1.258860100E1,1.183533458E0,8.258022666E-1,2.501071651E0,2.887569953E0
1.259862800E1,-4.034967640E-1,-3.202994807E0,1.897893934E0,3.744861380E0
1.260865500E1,-2.373205909E0,-5.151937273E0,-5.770523572E-1,5.701539561E0
1.261868200E1,-2.259408567E0,-4.168464251E0,-4.825892727E-1,4.765911633E0
1.262870900E1,-4.102117795E-1,-6.714515609E-1,1.359272840E0,1.570587010E0
1.263873500E1,-1.429313859E-1,2.053518748E0,2.051279265E0,2.906048047E0
1.264876200E1,-1.044030295E0,2.266541001E0,2.134037247E0,3.283492399E0
1.265878900E1,-1.946670238E0,-1.200652644E0,1.935984890E0,2.996519528E0
1.266881600E1,-1.523393220E0,-4.119076329E0,5.466269553E-1,4.425643200E0
1.267884200E1,4.447045047E-1,-3.951677561E0,1.129274221E-1,3.978224510E0
1.268886900E1,3.385172412E0,-1.285510361E0,2.122977823E0,4.197494965E0
1.269889600E1,2.821740266E0,2.001344043E-1,3.180781235E0,4.256717183E0
1.270892300E1,4.602517029E-1,1.536731304E0,4.487721933E0,4.765818176E0
1.271895000E1,-1.881886304E0,2.016628665E-1,2.718949431E0,3.312831113E0
1.272897600E1,-1.611192964E0,-3.824750297E0,8.549588958E-1,4.237406319E0
1.273900300E1,4.451678234E-1,-6.134390540E0,-1.512300467E-1,6.152381020E0
1.274903000E1,5.174592894E-1,-4.328931144E0,-2.070300257E-1,4.364661545E0
1.275905700E1,-1.321614579E0,-8.961740917E-1,-8.757374883E-2,1.599206759E0
1.276908400E1,-1.653702807E0,4.934675789E-1,-2.087397516E-1,1.738336995E0
1.277911000E1,-6.633721706E-1,1.117227495E-1,1.145726751E0,1.328621239E0
1.278913700E1,-4.393703091E-1,2.791010517E-1,2.458832535E0,2.513324710E0
1.279916400E1,-1.629050653E0,5.123055536E-1,2.004418509E0,2.633240697E0
1.280919100E1,-3.179855328E0,3.674723607E-1,1.052854401E0,3.369720794E0
1.281921700E1,-3.051514792E0,-1.208765656E-1,4.415501146E-1,3.085663652E0
1.282924400E1,-2.699213909E0,6.101405811E-1,9.015295565E-1,2.910460925E0
1.283927100E1,-2.562149912E0,1.374760507E0,6.636660663E-1,2.982453900E0
1.284929800E1,-1.896831203E0,1.392372905E0,-3.000346319E-1,2.372064860E0
1.285932500E1,-9.201646328E-1,1.406683381E0,-1.386609889E0,2.179024568E0
1.286935100E1,1.083578596E-2,1.077440116E0,-2.580859247E0,2.796753309E0
1.287937800E1,1.401755640E0,2.760014427E-1,-3.403928525E0,3.691588422E0
1.288940500E1,2.030276358E0,5.595376074E-2,-3.216755644E0,3.804296228E0
1.289943200E1,1.526219764E-1,-1.993461996E-1,-1.176706542E0,1.203191864E0
1.290945800E1,-3.198450351E-1,-2.613730540E0,-4.260959601E-1,2.667479325E0
1.291948500E1,-1.244532197E0,-1.478271427E0,-7.315228578E-1,2.066221791E0
1.292951200E1,-3.655756702E-1,-1.896926805E0,-1.852869204E0,2.676770659E0
1.293953900E1,1.967290005E0,-5.644849366E0,-1.137226288E0,6.085050366E0
1.294956600E1,1.496187588E0,-7.759943973E0,1.866322478E0,8.120250449E0
1.295959200E1,2.531619844E0,-8.905765522E0,5.228103104E0,1.063272405E1
1.296961900E1,5.712185901E0,-1.055112289E1,4.977158149E0,1.298950982E1
1.297964571E1,6.691098679E0,-1.134769142E1,2.042148545E0,1.333083916E1
1.298967271E1,6.412579426E0,-1.239106273E1,-8.262653661E-1,1.397649187E1
1.299969871E1,3.984289237E0,-1.185367788E1,1.435732348E0,1.258751634E1
1.300972571E1,-9.501316130E-2,-1.058851349E1,4.748195218E0,1.160478364E1
1.301975271E1,-2.580682077E0,-1.056228873E1,3.996992021E0,1.158437778E1
1.302977971E1,-3.746507535E0,-9.471640341E0,1.654208883E0,1.031914224E1
1.303980671E1,-3.842249259E0,-7.944372171E0,-5.629675841E-1,8.842672733E0
1.304983271E1,-2.824961497E0,-7.163024531E0,2.688714210E-1,7.704649229E0
1.305985971E1,-8.666813207E-1,-3.562455313E0,9.036053181E-1,3.776072952E0
1.306988671E1,2.844083647E0,-2.349925219E0,4.858603513E-1,3.721158503E0
1.307991371E1,3.562579566E0,-1.886539811E-1,2.163204328E0,4.172171671E0
1.308993971E1,8.280768335E-2,-4.134706521E0,-1.312725642E0,4.338882775E0
1.309996671E1,-3.425618187E0,-1.713027195E0,-1.200131511E0,4.013681325E0
1.310999371E1,-8.304256600E0,-1.531239599E0,-7.647607850E0,1.139259752E1
1.312002071E1,-4.276016766E0,1.582113883E0,4.884489137E-1,4.585410131E0
1.313004771E1,-2.760541261E0,7.430463896E0,-4.970839064E0,9.356368032E0
1.314007371E1,8.346803280E0,7.301172602E0,-8.966177784E0,1.426073597E1
1.315010071E1,1.640522305E1,1.066596220E1,-1.462004707E1,2.442621275E1
1.316012771E1,1.425813950E1,1.199356550E1,-8.121731086E0,2.032492734E1
1.317015471E1,1.278257709E1,1.035490203E1,-3.306701024E0,1.677952755E1
1.318018171E1,1.116876311E1,8.303857820E0,-2.197034856E0,1.408979369E1
1.319020771E1,7.516844813E0,7.209297642E0,-1.271978735E0,1.049260970E1
1.320023471E1,3.857409335E0,5.751721265E0,-2.211457890E0,7.269969071E0
1.321026171E1,2.895286252E0,3.866686528E0,-8.499617922E-1,4.904730598E0
1.322028871E1,3.542147933E0,2.548216581E0,3.715279895E-1,4.379298205E0
1.323031471E1,3.942127889E0,2.357900237E0,2.538117270E0,5.248057269E0
1.324034171E1,3.907200716E0,1.332208564E0,6.070540699E0,7.341148511E0
1.325036871E1,2.882289062E0,5.065822989E-2,8.086467113E0,8.584934878E0
1.326039571E1,1.450235782E0,-1.322840155E0,8.357301371E0,8.584729239E0
1.327042271E1,8.932639325E-1,-3.594102783E0,8.262191731E0,9.054242512E0
1.328044871E1,1.205081325E0,-6.136603126E0,7.348680645E0,9.649519477E0
1.329047571E1,1.350127357E0,-8.087207955E0,4.892907373E0,9.548105516E0
1.330050271E1,8.063822016E-1,-8.868336909E0,1.201254907E0,8.985580958E0
1.331052971E1,-9.257308897E-1,-9.223395631E0,-2.291470605E0,9.548761291E0
1.332055571E1,-3.442760177E0,-9.558214216E0,-4.299867559E0,1.103181389E1
1.333058271E1,-6.364930465E0,-9.273840730E0,-4.782079833E0,1.222230540E1
1.334060971E1,-8.582125643E0,-8.226248311E0,-4.759669794E0,1.280540895E1
1.335063671E1,-9.331434050E0,-6.281601795E0,-4.960936219E0,1.229410715E1
1.336066371E1,-7.935358688E0,-4.011400730E0,-4.928731509E0,1.016629960E1
1.337068971E1,-5.485958297E0,-2.760224049E0,-4.028524008E0,7.344629394E0
1.338071671E1,-3.257948401E0,-2.795476328E0,-2.943992389E0,5.205382491E0
1.339074371E1,-8.314933616E-1,-3.802472990E0,-2.888601131E0,4.847081446E0
1.340077071E1,6.186471105E-1,-4.639546350E0,-2.831958568E0,5.470658453E0
1.341079671E1,2.609787762E-1,-4.528048133E0,-2.022575283E0,4.966099133E0
1.342082371E1,-8.320590797E-1,-4.200602887E0,-1.067317416E0,4.413224829E0
1.343085071E1,-1.698416757E0,-4.288059692E0,-2.774983299E-1,4.620506544E0
1.344087771E1,-2.111545639E0,-4.478567240E0,3.202707124E-1,4.961729824E0
1.345090471E1,-2.642826869E0,-4.623341961E0,-1.244404435E-2,5.325408867E0
1.346093071E1,-2.525131774E0,-4.303461258E0,-1.109522619E0,5.111468450E0
1.347095771E1,-1.230519929E0,-3.598204604E0,-1.775089542E0,4.196688999E0
1.348098471E1,3.958598618E-1,-3.324733252E0,-1.722753453E0,3.765426362E0
1.349101171E1,3.214609716E0,-2.961431710E0,-4.327033138E-1,4.392155002E0
1.350103871E1,7.932157338E0,-2.573173667E0,2.185100981E0,8.620615352E0
1.351106471E1,5.209208411E0,-1.759799657E0,-8.453728974E-1,5.563038957E0
1.352109171E1,5.262390007E0,-2.146634488E0,-5.184667647E-1,5.706977834E0
1.353111871E1,4.047806956E0,-2.084209614E0,-9.858773965E-1,4.658392975E0
1.354114571E1,1.431576878E0,-1.832598077E0,-1.351462861E0,2.689661676E0
1.355117171E1,-3.516114959E-1,-1.363021052E0,-1.366101365E0,1.961552949E0
1.356119871E1,-9.174516709E-1,-1.280232664E0,-1.322797471E0,2.056819484E0
1.357122571E1,-8.499337256E-1,-1.805537163E0,-1.051693071E0,2.255750452E0
1.358125271E1,6.535454862E-2,-2.106305072E0,-5.242268568E-1,2.171544628E0
1.359127971E1,1.525575255E0,-1.958152415E0,-8.277786255E-2,2.483665218E0
1.360130571E1,2.247690747E0,-1.751705357E0,-1.803643835E-1,2.855366292E0
1.361133271E1,1.788223265E0,-1.624517307E0,-6.377452862E-1,2.498703259E0
1.362135971E1,1.073529863E0,-1.904855044E0,-9.570576400E-1,2.386817637E0
1.363138671E1,9.109327564E-1,-2.276897004E0,-8.416914904E-1,2.592779015E0
1.364141271E1,8.563208585E-1,-2.285997611E0,-4.787548149E-1,2.487624703E0
1.365143971E1,8.798840412E-1,-2.204509059E0,-2.405842727E-1,2.385778051E0
1.366146671E1,7.689898422E-1,-1.906920866E0,-3.842638099E-1,2.091734027E0
1.367149371E1,5.110842164E-1,-1.507213975E0,-5.221230286E-1,1.674966716E0
1.368152071E1,7.362394412E-1,-1.216877498E0,-7.743181175E-1,1.619385040E0
1.369154671E1,7.485044876E-1,-9.022721529E-1,-1.165211501E0,1.652898015E0
1.370157371E1,9.557328802E-1,-5.816301423E-1,-1.257687555E0,1.683299423E0
1.371160071E1,1.723738271E0,-4.801388508E-1,-9.433096665E-1,2.022780282E0
1.372162771E1,1.678986752E0,-5.764062399E-1,-1.056473755E0,2.065763167E0
1.373165371E1,9.790746727E-1,-7.112787008E-1,-1.124618375E0,1.652050573E0
1.374168071E1,1.182319430E-1,-8.496238232E-1,-8.438315713E-1,1.203283489E0
1.375170771E1,-2.085553450E-1,-9.236115664E-1,-6.349269283E-1,1.140037658E0
1.376173471E1,-7.512721941E-3,-9.044028783E-1,-2.014137751E-1,9.265897237E-1
1.377176171E1,-5.230889887E-2,-7.955540353E-1,2.437476164E-1,8.336997928E-1
1.378178771E1,4.696205869E-2,-6.471207118E-1,1.213034123E-1,6.600645184E-1
1.379181471E1,2.989212124E-1,-4.959339345E-1,-3.580203366E-1,6.807957990E-1
1.380184171E1,3.197970879E-1,-3.706058836E-1,-6.331312484E-1,8.002962427E-1
1.381186871E1,3.415767968E-1,-2.646864957E-1,-7.480015540E-1,8.638518240E-1
1.382189571E1,4.433565022E-1,-1.528011936E-1,-4.477517080E-1,6.483785814E-1
1.383192171E1,5.478143786E-1,-1.103644413E-1,1.525480092E-2,5.590291694E-1
1.384194871E1,7.452989709E-1,-5.601691067E-2,-1.322347820E-2,7.475181006E-1
1.385197571E1,8.286611165E-1,1.148931098E-1,-4.619908476E-1,9.556752670E-1
1.386200271E1,7.808614442E-1,1.250438762E-1,-7.141607934E-1,1.065554412E0
1.387202871E1,6.201154925E-1,7.507649481E-2,-5.051251727E-1,8.033250552E-1
1.388205571E1,4.717372790E-1,1.605353057E-2,-2.334992015E-1,5.266076845E-1
1.389208271E1,3.679581182E-1,6.624895334E-4,1.794095331E-1,4.093670678E-1
1.390210971E1,2.627224159E-1,2.547514915E-2,6.920273280E-1,7.406577305E-1
1.391213671E1,2.699780796E-1,2.393499255E-2,8.769028383E-1,9.178342090E-1
1.392216271E1,4.876295726E-1,9.064353704E-2,6.034466887E-1,7.811189134E-1
1.393218971E1,1.060550872E0,1.394794822E-2,-1.385210066E0,1.744640256E0
1.394221671E1,1.952498011E0,1.628853017E-1,-3.278881726E0,3.819665624E0
1.395224371E1,1.959949849E0,7.902506107E-1,-5.138720226E-1,2.174848017E0
1.396226971E1,9.941035518E-1,8.289732116E-1,1.128999109E0,1.717578949E0
1.397229671E1,-2.135834388E-1,3.444957268E-1,1.580877782E0,1.632014017E0
1.398232371E1,-5.516359726E-1,1.603663212E-1,1.122751944E0,1.261186557E0
1.399235071E1,-1.665088212E-1,4.417559731E-1,9.537943089E-1,1.064235458E0