"Time (s)","Linear Acceleration x (m/s^2)","Linear Acceleration y (m/s^2)","Linear Acceleration z (m/s^2)","Absolute acceleration (m/s^2)"
5.285999971E-3,4.454888356E-1,-1.075228114E0,-1.463949841E0,1.870220559E0
1.531299995E-2,3.237588689E-1,-1.177546202E0,-1.618965960E0,2.027926439E0
2.533999993E-2,9.599701381E-1,-8.431053472E-1,-1.294712124E0,1.818969152E0
3.536699992E-2,1.227386406E0,-5.893443739E-1,-1.225243109E0,1.831672694E0
4.539300001E-2,1.245516868E0,-3.409458822E-1,-1.018518893E0,1.644669298E0
5.541999999E-2,1.198733003E0,-3.122670436E-1,-7.596772742E-1,1.453128033E0
6.544699997E-2,1.155252815E0,-5.442895308E-1,-8.638384044E-1,1.541777205E0
7.547399995E-2,1.066311110E0,-9.499409938E-1,-1.078120732E0,1.789343899E0
8.550099994E-2,5.569051909E-1,-1.436191647E0,-1.466646577E0,2.126932538E0
9.552699991E-2,-4.294598633E-1,-1.607134412E0,-2.092258306E0,2.672987394E0
1.055540000E-1,-1.103014083E0,-1.633290177E0,-2.664295506E0,3.314022845E0
1.155810000E-1,-8.316100135E-1,-2.022897465E0,-3.095099645E0,3.789898571E0
1.256080000E-1,-1.110335674E0,-2.503175479E0,-3.352878824E0,4.329033287E0
1.356350000E-1,-2.358320067E0,-2.698024001E0,-3.421916900E0,4.954848364E0
1.456609999E-1,-3.686385294E0,-2.385501726E0,-3.426947259E0,5.569921233E0
1.556879999E-1,-4.605488657E0,-1.749508850E0,-3.392662110E0,5.981760877E0
1.657150000E-1,-5.049890496E0,-1.224170145E0,-3.290365657E0,6.150324603E0
1.757420000E-1,-5.265896582E0,-1.127405158E0,-2.984039385E0,6.156719926E0
1.857690000E-1,-4.475995050E0,-1.977273980E0,-2.456268530E0,5.475162023E0
1.957949999E-1,-2.963498701E0,-3.133043396E0,-2.361430201E0,4.916771102E0
2.058219999E-1,-2.606029172E0,-3.844718246E0,-2.832481894E0,5.440238976E0
2.158489999E-1,-3.703235800E0,-4.379215737E0,-3.354164042E0,6.643937258E0
2.258760000E-1,-5.389203250E0,-5.176736484E0,-3.982566063E0,8.467759133E0
2.359020000E-1,-6.970662830E0,-6.566437211E0,-5.120726005E0,1.085956135E1
2.459290000E-1,-6.864996627E0,-7.500950326E0,-5.793556924E0,1.170289436E1
2.559559999E-1,-6.156916938E0,-7.704252167E0,-5.117983661E0,1.111111535E1
2.659829999E-1,-5.548646296E0,-7.183931251E0,-3.388189575E0,9.688971696E0
2.760099999E-1,-4.724951951E0,-7.042830335E0,-1.712324944E0,8.652091469E0
2.860360000E-1,-3.848664240E0,-7.966253037E0,-2.744104153E-1,8.851480382E0
2.960630000E-1,-3.352197624E0,-9.045184777E0,6.816733709E-1,9.670433038E0
3.060900000E-1,-2.728447064E0,-9.625696932E0,1.126213788E0,1.006810917E1
3.161170000E-1,-9.297587442E-1,-9.204396273E0,1.326928236E0,9.345913579E0
3.261439999E-1,1.189450548E0,-8.765225939E0,1.601136338E0,8.989305643E0
3.361699999E-1,2.243853219E0,-8.521481246E0,2.277055756E0,9.101401146E0
3.461970000E-1,2.576664455E0,-8.560268167E0,3.137976985E0,9.474401847E0
3.562240000E-1,2.405196025E0,-8.666564700E0,3.895881968E0,9.801643124E0
3.662510000E-1,3.164244724E0,-8.397875201E0,5.078815502E0,1.031169819E1
3.762780000E-1,5.476810328E0,-7.304490312E0,5.502884817E0,1.065986733E1
3.863039999E-1,8.205639800E0,-6.038875687E0,3.246163046E0,1.069290038E1
3.963309999E-1,1.114791428E1,-4.850484947E0,3.159368731E0,1.256124228E1
4.063580000E-1,1.318807448E1,-4.357911115E0,4.798414614E0,1.469494745E1
4.163850000E-1,1.284284083E1,-4.240584978E0,5.616635966E0,1.464471649E1
4.264120000E-1,1.212066526E1,-4.013083851E0,5.068699819E0,1.373706978E1
4.364379999E-1,1.195967855E1,-3.407350901E0,4.337424518E0,1.317031520E1
4.464649999E-1,1.208945750E1,-3.293048360E0,3.609264320E0,1.303939949E1
4.564919999E-1,1.260052169E1,-4.071751304E0,3.130504535E0,1.360707037E1
4.665190000E-1,1.323583336E1,-4.164018028E0,9.717525700E-1,1.390937217E1
4.765460000E-1,1.379068852E1,-3.558097383E0,-1.555951979E0,1.432704203E1
4.865720000E-1,1.593441110E1,-1.150705143E0,-1.098968044E1,1.939078790E1
4.965989999E-1,1.877247884E1,2.738568594E0,-2.486668789E1,3.127711442E1
5.066259999E-1,1.707264530E1,3.236480057E0,-1.051761834E1,2.031182700E1
5.166532500E-1,1.296236494E1,1.441818715E0,-3.866407031E0,1.360333964E1
5.266802500E-1,9.029527688E0,-1.453464029E0,-9.004986924E-1,9.189985084E0
5.367062499E-1,8.447757797E0,-4.403339887E0,4.416111960E0,1.050028851E1
5.467332499E-1,7.848172025E0,-5.480118683E0,5.367942190E0,1.097452998E1
5.567602500E-1,5.359798772E0,-3.764674249E0,2.419263257E0,6.982338418E0
5.667872500E-1,2.949947779E0,-5.725523400E-1,-1.517222654E0,3.366299550E0
5.768142500E-1,1.838877402E0,2.068806878E0,-3.251534883E0,4.270118393E0
5.868402499E-1,7.022880220E-1,2.792169435E0,-2.306763997E0,3.689251788E0
5.968672499E-1,-5.815348327E-2,2.990335082E0,-9.702963209E-1,3.144353778E0
6.068942499E-1,-2.496064680E0,3.820187715E0,-2.242135892E0,5.084421936E0
6.169212500E-1,-1.311525793E0,1.905269027E0,-2.773006940E-1,2.329602036E0
6.269472500E-1,9.003981203E-1,-5.795076030E-1,7.273179642E0,7.351577242E0
6.369742500E-1,-3.074457804E0,2.509626127E0,1.016052421E1,1.090810553E1
6.470012499E-1,-6.321958693E0,6.592576604E0,-6.240528613E0,1.106225227E1
6.570282499E-1,-4.900064365E0,6.072932210E0,-8.397498055E0,1.146338126E1
6.670552499E-1,-2.653605042E0,3.554384401E0,-2.177232968E0,4.941215598E0
6.770812500E-1,-6.415906491E0,5.909066330E0,-3.834980001E0,9.528273328E0
6.871082500E-1,-4.990985060E0,6.314421047E0,-9.729351693E-1,8.107308300E0
6.971352500E-1,-4.752764817E0,5.838830160E0,1.200920154E0,7.623838945E0
7.071622499E-1,-3.597297117E0,5.068995103E0,1.222131514E0,6.334734670E0
7.171892499E-1,-1.861754048E0,2.558748001E0,5.567514092E-2,3.164872698E0
7.272152500E-1,-1.658845725E0,1.609759519E0,-1.263882095E0,2.634481505E0
7.372422500E-1,-2.191670328E0,2.087313316E0,-2.016743270E0,3.636969772E0
7.472692500E-1,-2.018332543E0,2.230972973E0,-1.744348390E0,3.477593703E0
7.572962500E-1,-1.375977312E0,1.702743112E0,-2.521202445E-2,2.189356827E0
7.673232500E-1,-1.997056280E0,1.122979985E0,6.603664094E-1,2.384408024E0
7.773492499E-1,-1.742674332E0,-5.115857613E-1,-1.525287280E0,2.371736728E0
7.873762499E-1,-6.111053717E-1,-2.571599597E-1,-3.096728679E0,3.166908513E0
7.974032500E-1,-3.140451234E0,3.868079919E0,7.069628710E0,8.648937872E0
8.074302500E-1,-9.696537119E-1,1.853979006E0,5.529839019E-1,2.164083564E0
8.174572500E-1,7.251430339E-1,-6.014826089E-1,-2.616422598E0,2.780877732E0
8.274832499E-1,-1.522610278E0,-1.707914389E0,-2.055181696E0,3.075562619E0
8.375102499E-1,-4.370629393E0,-1.627532131E0,-1.231177010E0,4.823593988E0
8.475372499E-1,-3.540607191E0,-1.356542337E-1,-1.409519865E0,3.813272558E0
8.575642500E-1,-2.057189630E0,1.340266612E0,-1.043871324E0,2.667960102E0
8.675912500E-1,1.328757538E0,1.414380655E0,-1.274843286E0,2.321916156E0
8.776172500E-1,4.412928151E0,7.134807622E-1,-6.799832332E-1,4.521655324E0
8.876442499E-1,3.706932995E0,-3.631518531E-1,1.307525128E-1,3.726972996E0
8.976712499E-1,4.605567595E0,3.837802452E-1,3.399326328E-2,4.621655081E0
9.076982499E-1,5.917078185E0,1.304437798E-1,-3.341590555E-1,5.927941641E0
9.177252500E-1,4.301307728E0,-5.223259270E-1,6.185015148E-1,4.376827238E0
9.277512500E-1,3.176106386E0,-1.244540091E0,4.563780687E-1,3.441629374E0
9.377782500E-1,1.815905153E0,-2.244442034E0,4.956006432E-1,2.929274922E0
9.478052499E-1,3.690201187E-1,-2.358463908E0,1.030897449E0,2.600245643E0
9.578322499E-1,-7.335592237E-1,-2.497724120E0,1.504887952E0,3.006895852E0
9.678592499E-1,-1.085335903E0,-2.105812152E0,2.002909927E0,3.102264821E0
9.778852500E-1,-1.494595098E0,-1.309909038E0,2.019126595E0,2.833116377E0
9.879122500E-1,-1.793463247E0,-6.663562971E-1,1.247032759E0,2.283775785E0
9.979392500E-1,-1.730971422E0,9.125264150E-1,-8.893154539E-2,1.958794360E0
1.007966250E0,-1.363952513E0,2.259806762E0,-1.026832464E0,2.832221385E0
1.017993250E0,-5.887391871E-1,2.881297958E0,-7.223732078E-1,3.028252765E0
1.028019250E0,1.172170857E-1,3.201293852E0,-2.739619704E-1,3.215132553E0
1.038046250E0,3.093931371E-1,3.065857719E0,-1.560235941E-1,3.085376967E0
1.048073250E0,3.857264909E-1,3.137192581E0,6.044524097E-1,3.218093369E0
1.058100250E0,2.652647853E-1,3.258098967E0,1.148804798E0,3.464870380E0
1.068126250E0,-7.386348993E-2,3.371587576E0,1.536338371E0,3.705859440E0
1.078153250E0,-6.877462891E-1,4.004030022E0,1.458497897E0,4.316534199E0
1.088180250E0,-1.227483470E0,4.865663441E0,6.931645384E-1,5.065754976E0
1.098207250E0,-1.620033077E0,5.443443777E0,-3.916758136E-1,5.692890063E0
1.108234250E0,-2.019529176E0,5.922985042E0,-1.389010756E0,6.410117065E0
1.118260250E0,-2.315647379E0,5.921703917E0,-8.792435519E-1,6.418868225E0
1.128287250E0,-2.344144662E0,5.730713974E0,-2.819872373E-1,6.198033047E0
1.138314250E0,-2.425395524E0,5.212816728E0,5.289226095E-1,5.773712914E0
1.148341250E0,-2.607698844E0,4.629059953E0,5.543224027E-1,5.341868834E0
1.158368250E0,-2.645723872E0,4.642624909E0,3.630201446E-1,5.355894368E0
1.168394250E0,-2.695695347E0,4.791956949E0,7.454316296E-1,5.548449614E0
1.178421250E0,-2.786988802E0,4.770561402E0,1.026976233E0,5.619630135E0
1.188448250E0,-2.905610681E0,4.588224753E0,8.158040395E-1,5.491804444E0
1.198475250E0,-3.091252761E0,4.598233432E0,6.354314699E-1,5.577039312E0
1.208502250E0,-2.889298704E0,4.751232846E0,1.827501644E0,5.853377044E0
1.218528250E0,-2.162746929E0,4.638488588E0,-1.634304084E-1,5.120523427E0
1.228555250E0,-1.373392551E0,4.468939800E0,-4.930424863E-1,4.701140386E0
1.238582250E0,-8.981734009E-1,-5.876761633E-1,1.106990190E0,1.541916344E0
1.248609250E0,-1.763332253E0,-3.853711322E1,-2.176089837E0,3.863876037E1
1.258636250E0,-1.915567144E0,-5.765080048E1,6.607523257E-1,5.768640037E1
1.268662250E0,7.876901150E0,-3.676906256E1,9.896044117E-1,3.761633754E1
1.278689250E0,9.498886612E0,-1.115807089E1,3.789604730E0,1.513580183E1
1.288716250E0,5.529606008E0,1.653442898E0,6.016681411E0,8.337317987E0
1.298743250E0,5.301361626E-1,8.229536785E0,1.781639154E0,8.436857124E0
1.308770250E0,-4.253868391E0,1.122605764E1,-2.083690966E0,1.218447924E1
1.318796250E0,-6.390884501E0,1.045652663E1,-1.322569575E0,1.232605145E1
1.328823250E0,-5.247957324E0,5.950552325E0,-5.122558522E-1,7.950631114E0
1.338850250E0,-2.494542942E0,2.051145948E0,-1.227481570E0,3.454946482E0
1.348877250E0,-6.109473142E-1,-9.231280017E-1,-1.366865158E0,1.758903717E0
1.358904250E0,4.398311793E-1,-3.076544675E0,-5.490121807E-1,3.155945655E0
1.368930250E0,1.548158664E0,-2.807638244E0,3.163975167E-1,3.221759635E0
1.378957250E0,1.782264075E0,-1.264285553E0,4.502063692E-1,2.231046608E0
1.388984250E0,1.195932991E0,-2.184110463E-2,5.130387944E-1,1.301515101E0
1.399011250E0,6.317483088E-1,3.804151726E-1,7.951026303E-1,1.084439865E0
1.409038250E0,1.507213755E-1,1.977727139E-1,8.902150480E-1,9.242909775E-1
1.419064250E0,6.714266371E-2,-1.155094063E-1,6.894158153E-1,7.022426409E-1
1.429091250E0,9.838598147E-3,-1.933416939E-1,9.820515633E-2,2.170761648E-1
1.439118250E0,-4.562817359E-1,-5.860594082E-1,-5.296812858E-1,9.122614301E-1
1.449145250E0,-6.683070745E-1,-8.468107277E-1,-5.363015033E-1,1.204716588E0
1.459172250E0,-2.932576359E-1,-3.064321071E-1,-1.577163631E-1,4.525208597E-1
1.469198250E0,-1.801502292E-1,2.473845845E-1,-1.950707155E-1,3.629129673E-1
1.479225250E0,-1.173023819E-1,6.684039921E-1,-3.948190574E-1,7.851151721E-1
1.489252250E0,1.155134994E-1,7.507772273E-1,-3.420878434E-1,8.330869739E-1
1.499279250E0,3.608131495E-1,3.505622131E-1,-1.407972984E-1,5.224020227E-1
1.509306250E0,3.900449520E-1,-9.087157845E-2,1.629629235E-1,4.323767140E-1
1.519332000E0,2.014336191E-1,-3.412271333E-1,2.659454012E-1,4.772194629E-1
1.529359000E0,3.643984795E-3,-4.008909523E-1,7.285528377E-2,4.074735902E-1
1.539386000E0,-1.661487789E-1,-1.892340249E-1,-1.758001931E-1,3.071166567E-1
1.549413000E0,-2.267786311E-1,2.617739975E-2,-5.247694784E-1,5.722733694E-1
1.559440000E0,-5.344029855E-2,1.122682947E-1,-7.277972312E-1,7.383419569E-1
1.569466000E0,1.756199892E-1,4.409092963E-2,-8.228618480E-1,8.425485218E-1
1.579493000E0,2.995263261E-1,-2.091554886E-1,-7.862072611E-1,8.669393842E-1
1.589520000E0,2.971694597E-1,-4.971489859E-1,-6.564897054E-1,8.754687517E-1
1.599547000E0,1.560401125E-1,-6.483363479E-1,-6.992726129E-1,9.662663835E-1
1.609573000E0,-2.629660986E-2,-5.609502947E-1,-7.743011606E-1,9.565035453E-1
1.619600000E0,-2.186647058E-1,-4.111358589E-1,-7.769655906E-1,9.058269575E-1
1.629627000E0,-4.180887099E-1,-2.782017499E-1,-7.193233001E-1,8.772801110E-1
1.639654000E0,-5.384841228E-1,-2.446942806E-1,-7.128748445E-1,9.262996197E-1
1.649681000E0,-5.378308791E-1,-3.065484667E-1,-7.564421560E-1,9.774654737E-1
1.659707000E0,-3.771754497E-1,-3.795684958E-1,-8.032166652E-1,9.651375934E-1
1.669734000E0,-8.472425446E-2,-4.009944481E-1,-8.018064630E-1,9.004822879E-1
1.679761000E0,2.477907468E-1,-2.917041403E-1,-7.712325418E-1,8.609826904E-1
1.689788000E0,4.899493823E-1,-6.398608088E-2,-6.432299745E-1,8.111038256E-1
1.699815000E0,5.650909274E-1,1.526947743E-1,-4.306238978E-1,7.266914006E-1
1.709841000E0,4.666529788E-1,2.623984802E-1,-2.792829001E-1,6.038351624E-1
1.719868000E0,3.014018936E-1,2.808300734E-1,-2.040749891E-1,4.597338717E-1
1.729895000E0,6.873080403E-2,2.334781516E-1,-2.206226094E-1,3.284970418E-1
1.739922000E0,-2.015224968E-1,1.962079990E-1,-3.085850519E-1,4.175327889E-1
1.749949000E0,-4.133961732E-1,1.627057922E-1,-4.265551127E-1,6.158886547E-1
1.759975000E0,-5.097571177E-1,9.455298543E-2,-5.548111568E-1,7.593470918E-1
1.770002000E0,-5.306754586E-1,2.849114299E-2,-6.685168433E-1,8.540157829E-1
1.780029000E0,-5.221094339E-1,-1.422218263E-2,-7.853073746E-1,9.431374258E-1
1.790056000E0,-4.985192078E-1,-6.990170896E-2,-8.005849797E-1,9.456976045E-1
1.800083000E0,-4.618722953E-1,-1.834125370E-1,-8.353547166E-1,9.719998346E-1
1.810109000E0,-4.443365321E-1,-2.908527857E-1,-8.801732592E-1,1.027976295E0
1.820136000E0,-3.716271364E-1,-3.261144197E-1,-8.924693689E-1,1.020273942E0
1.830163000E0,-2.301415841E-1,-2.860943216E-1,-9.072165585E-1,9.787016877E-1
1.840190000E0,-8.662807133E-2,-2.917322069E-1,-8.610586381E-1,9.132546641E-1
1.850217000E0,3.353623029E-2,-3.760087109E-1,-7.539494149E-1,8.431767013E-1
1.860243000E0,4.734110445E-2,-5.287952864E-1,-6.913816492E-1,8.717076459E-1
1.870270000E0,-3.698692806E-2,-6.452572042E-1,-7.249921757E-1,9.712561697E-1
1.880297000E0,-1.912057425E-1,-7.651479292E-1,-7.774756140E-1,1.107465268E0
1.890324000E0,-3.100120283E-1,-9.139642453E-1,-8.363506436E-1,1.277074978E0
1.900351000E0,-3.430881924E-1,-9.660605979E-1,-9.109921056E-1,1.371455141E0
1.910377000E0,-3.318855119E-1,-9.455848181E-1,-9.979086274E-1,1.414249013E0
1.920404000E0,-2.979267837E-1,-8.905022925E-1,-1.007592128E0,1.377314996E0
1.930431000E0,-2.787785412E-1,-8.522205716E-1,-8.905731169E-1,1.263771282E0
1.940458000E0,-3.818873188E-1,-8.021438473E-1,-7.773861516E-1,1.180509172E0
1.950485000E0,-5.918501251E-1,-6.951123190E-1,-8.210264070E-1,1.227824119E0
1.960511000E0,-6.130100291E-1,-5.929064977E-1,-7.720868200E-1,1.150407523E0
1.970538000E0,-8.036324023E-1,-5.007841998E-1,-6.245042664E-1,1.134290717E0
1.980565000E0,-1.093730020E0,-3.516591507E-1,-6.390509695E-1,1.314646590E0
1.990592000E0,-1.328552885E0,-1.395397085E-1,-7.720049590E-1,1.542892010E0
2.000619000E0,-1.373229267E0,-1.685752273E-2,-6.458056730E-1,1.517599342E0
2.010645000E0,-1.303381060E0,6.156650305E-2,-2.952025294E-1,1.337810583E0
2.020672000E0,-1.291378334E0,1.270395309E-1,-2.719727111E-1,1.325807754E0
2.030699000E0,-1.209438816E0,2.051834750E-1,-2.528353590E-1,1.252504782E0
2.040726000E0,-1.152438989E0,2.485762471E-1,-1.879645944E-1,1.193832678E0
2.050753000E0,-1.201360303E0,3.494079727E-1,-1.426861135E-1,1.259250506E0
2.060779000E0,-1.191599254E0,5.349196601E-1,3.390683413E-2,1.306597680E0
2.070806000E0,-1.150981424E0,6.104189086E-1,2.446381656E-1,1.325600737E0
2.080833000E0,-1.156030203E0,5.294981217E-1,4.424144427E-1,1.346292921E0
2.090860000E0,-1.233867022E0,5.370825452E-1,3.263378199E-1,1.384695584E0
2.100887000E0,-1.134735739E0,4.533007157E-1,-2.197512281E-1,1.241530241E0
2.110913000E0,-1.042194050E0,2.542305046E-1,-1.464165823E-1,1.082700052E0
2.120940000E0,-7.521482532E-1,-1.298836166E-1,1.875564587E-1,7.859861155E-1
2.130967000E0,-6.550183998E-1,-4.150523239E-1,3.011830616E-1,8.318826674E-1
2.140994000E0,-9.032970967E-1,-4.233851910E-1,-1.256040394E-1,1.005473540E0
2.151021000E0,-1.074115974E0,-3.134283006E-1,-4.166994846E-1,1.193985295E0
2.161047000E0,-1.202436191E0,-2.311696708E-1,-5.167302147E-1,1.329023072E0
2.171074000E0,-1.313726685E0,-1.822068411E-1,-5.427127560E-1,1.433043709E0
2.181101000E0,-1.371293693E0,-5.677704871E-2,-4.822807590E-1,1.454738724E0
2.191128000E0,-1.247581520E0,2.569032669E-2,-4.926817131E-1,1.341586714E0
2.201155000E0,-1.156879072E0,1.119525450E-1,-5.825580224E-1,1.300106307E0
2.211181000E0,-1.059289993E0,1.387088192E-1,-6.401051494E-1,1.245419619E0
2.221208000E0,-9.359306996E-1,1.315717077E-1,-7.757851839E-1,1.222751013E0
2.231235000E0,-9.138332677E-1,1.130143994E-1,-7.924591041E-1,1.214847697E0
2.241262000E0,-9.061131889E-1,1.375545788E-1,-8.297175622E-1,1.236282171E0
2.251289000E0,-7.858508733E-1,1.932615870E-1,-9.429396839E-1,1.242596831E0
2.261315000E0,-6.042128932E-1,2.746443039E-1,-1.074277211E0,1.262764523E0
2.271342000E0,-5.940635155E-1,3.565889382E-1,-1.277188312E0,1.453023439E0
2.281369000E0,-6.674335004E-1,4.673620999E-1,-1.143459420E0,1.404063480E0
2.291396000E0,-4.459221143E-1,7.347956175E-1,-8.183963294E-1,1.186820830E0
2.301423000E0,-3.763247529E-1,1.017227828E0,-4.865631866E-1,1.188745771E0
2.311449000E0,-2.952848290E-1,1.414745522E0,-4.680019315E-1,1.519119425E0
2.321476000E0,-2.502902122E-1,1.803928594E0,-6.328825955E-1,1.928041478E0
2.331503000E0,-2.034850051E-1,2.079408465E0,-6.069092636E-1,2.175703235E0
2.341530000E0,-2.060617268E-2,2.200260472E0,-7.033861291E-1,2.310048226E0
2.351557000E0,1.321976522E-1,2.283499680E0,-7.813586037E-1,2.417099145E0
2.361583000E0,3.597174910E-1,2.428446894E0,-1.192161902E0,2.729102598E0
2.371610000E0,7.435057761E-1,2.749360800E0,-1.477664924E0,3.208625761E0
2.381637000E0,1.187595373E0,3.273849027E0,-7.681009193E-1,3.566293488E0
2.391664000E0,1.131793055E0,3.807171228E0,3.253555973E-1,3.985142976E0
2.401691000E0,3.634338351E-1,3.899979404E0,5.718648537E-1,3.958402824E0
2.411717000E0,-9.687270744E-1,3.478330252E0,1.707413283E-1,3.614742880E0
2.421744000E0,-1.427597555E0,2.793437111E0,-7.778958826E-1,3.232096484E0
2.431771000E0,-5.994790605E-1,1.566069124E0,-1.089012633E0,1.999473970E0
2.441798000E0,1.164792694E0,3.489881426E-1,-1.559658090E0,1.977642056E0
2.451824000E0,2.410468460E0,-1.170199175E0,-7.572261214E-2,2.680570503E0
2.461851000E0,1.924951486E0,-2.987420245E0,3.910871598E0,5.284414310E0
2.471878000E0,-1.657276332E-1,-4.078176225E0,5.913300884E0,7.185131475E0
2.481905000E0,-2.192649736E0,-3.757871599E0,4.729498161E0,6.426310347E0
2.491932000E0,-2.721845265E0,-3.571509726E0,1.303999257E0,4.675953104E0
2.501958000E0,-7.843489429E-1,-3.982281303E0,-3.124590662E0,5.122190395E0
2.511985000E0,4.693267643E-1,-2.126408384E0,-1.315002548E0,2.543838031E0
2.522011750E0,7.925942478E-1,5.618431646E-1,2.688959062E0,2.859086256E0
2.532038750E0,1.727296009E0,1.224712182E0,3.450912073E0,4.048736292E0
2.542065750E0,1.945503280E0,7.843630493E-1,3.258622878E0,3.875413715E0
2.552091750E0,1.551017660E0,5.050772256E-1,3.663210440E0,4.009971261E0
2.562118750E0,1.974089586E0,6.235470772E-2,1.929727346E0,2.761297780E0
2.572145750E0,1.476690193E0,-3.796573734E-1,4.643672291E-1,1.593860274E0
2.582172750E0,5.821945814E-1,-4.528229982E-1,-6.826390386E-2,7.407153021E-1
2.592199750E0,-3.106395077E-1,-3.603913826E-1,-6.630010917E-1,8.160571671E-1
2.602226750E0,-1.099181672E0,-1.399624622E-1,-8.917752314E-1,1.422340642E0
2.612252750E0,-1.439488015E0,1.359775847E-1,-3.249965052E-1,1.481971112E0
2.622279750E0,-1.408255697E0,5.313768321E-1,1.076291138E-1,1.509016061E0
2.632306750E0,-3.266860581E-1,7.727428776E-1,-9.736147620E-2,8.445913761E-1
2.642333750E0,6.286178557E-1,5.038124728E-1,-4.112699794E-1,9.045056176E-1
2.652359750E0,7.395295233E-1,9.979442954E-2,-3.859660075E-1,8.401384427E-1
2.662386750E0,7.224870092E-1,-2.495164794E-1,-4.356775001E-2,7.656004838E-1
2.672413750E0,7.252281839E-1,-4.411016697E-1,-2.817078866E-1,8.943634245E-1
2.682440750E0,4.321095291E-1,-4.229595137E-1,-8.780779825E-1,1.066130545E0
2.692467750E0,1.422721124E-1,-2.761867994E-1,-1.268350684E0,1.305846070E0
2.702493750E0,4.360159808E-1,-1.999414462E-1,-1.234733725E0,1.324633493E0
2.712520750E0,1.086090779E0,-3.891824877E-1,-1.310772087E0,1.746190039E0
2.722547750E0,1.607149907E0,-7.697099268E-1,-1.687798067E0,2.454393308E0
2.732574750E0,1.714707246E0,-8.903490955E-1,-2.162764471E0,2.900084931E0
2.742601750E0,1.499241442E0,-7.835380071E-1,-2.550230655E0,3.060283174E0
2.752627750E0,1.157306065E0,-7.840256649E-1,-2.641211869E0,2.988319545E0
2.762654750E0,6.202491014E-1,-7.463485461E-1,-2.325349957E0,2.519721715E0
2.772681750E0,-6.849314212E-2,-9.808446980E-1,-1.982864210E0,2.213255093E0
2.782708750E0,-2.373337325E-1,-1.390785971E0,-1.227976098E0,1.870437974E0
2.792735750E0,-2.391986288E-1,-1.408304814E0,-8.977155639E-1,1.687137121E0
2.802761750E0,-1.752786946E-1,-9.673668659E-1,-1.240799188E0,1.583067876E0
2.812788750E0,-6.136550501E-2,-5.345501161E-1,-1.899193186E0,1.973941313E0
2.822815750E0,6.594606757E-2,-9.165861368E-2,-2.621100955E0,2.623532047E0
2.832842750E0,2.386814974E-1,1.324306637E-1,-3.147170562E0,3.158985483E0
2.842869750E0,2.639206749E-1,3.711952829E-1,-3.314750885E0,3.345895021E0
2.852895750E0,-2.099077329E-3,7.635557324E-1,-3.605803061E0,3.685761452E0
2.862922750E0,-2.967483140E-1,1.165857618E0,-4.168163704E0,4.338302918E0
2.872949750E0,-5.363543475E-1,1.233615738E0,-4.736532946E0,4.923842821E0
2.882976750E0,-6.699835443E-1,8.683717507E-1,-5.124078798E0,5.240146084E0
2.893003750E0,-5.615683454E-1,2.641374421E-1,-5.522630280E0,5.557389027E0
2.903029750E0,-5.376023261E-2,3.273154378E-2,-5.908519031E0,5.908854259E0
2.913056750E0,3.390982351E-1,9.928572178E-2,-6.002527056E0,6.012917455E0
2.923083750E0,5.676517886E-1,1.594366139E-1,-6.289172185E0,6.316750380E0
2.933110750E0,3.698876993E-1,4.873572385E-1,-6.222195253E0,6.252203432E0
2.943137750E0,-4.690029748E-1,1.298850784E0,-6.054483660E0,6.209971782E0
2.953163750E0,-1.164201102E0,1.976294571E0,-5.933521725E0,6.361429438E0
2.963190750E0,-9.060311086E-1,1.237394793E0,-5.648987440E0,5.853468830E0
2.973217750E0,-1.481087299E-1,-9.481570083E-1,-3.890623859E0,4.007229956E0
2.983244750E0,9.693415437E-1,-3.399457160E0,-9.428369191E-1,3.658534333E0
2.993271750E0,2.401813411E0,-5.635113752E0,1.163800567E0,6.235194177E0
3.003297750E0,3.473557754E0,-6.702289081E0,2.386846878E0,7.917279862E0
3.013324750E0,3.153204596E0,-6.930084908E0,2.872722432E0,8.137647709E0
3.023351750E0,1.789430861E0,-6.806312217E0,2.621596799E0,7.510041183E0
3.033378750E0,-7.789602951E-1,-5.979785480E0,1.843442762E0,6.305782643E0
3.043405750E0,-2.795834762E0,-5.372054536E0,-4.124030236E-1,6.070069045E0
3.053431750E0,-1.707558879E0,-5.812840456E0,-8.445105062E-1,6.117031101E0
3.063458750E0,5.632841378E-1,-6.367945290E0,2.231934109E-1,6.396704740E0
3.073485750E0,1.507983468E0,-6.552920203E0,7.743818521E-1,6.768636833E0
3.083512750E0,1.918134364E0,-6.388121107E0,4.955521113E-1,6.688266039E0
3.093539750E0,2.558527561E0,-5.907172417E0,-3.688961577E-1,6.448010051E0
3.103565750E0,2.249403981E0,-4.803891116E0,2.387687488E-1,5.309820961E0
3.113592750E0,1.919924635E0,-3.505218088E0,2.196413004E0,4.560361228E0
3.123619750E0,2.076150835E0,-3.029455293E0,3.866888841E0,5.332994560E0
3.133646750E0,1.432402066E0,-2.644527825E0,4.662542864E0,5.548387969E0
3.143673750E0,7.959865831E-1,-1.701374279E0,2.075080941E0,2.798969451E0
3.153699750E0,6.638138547E-1,-1.013956311E0,-3.954295067E-1,1.274802231E0
3.163726750E0,9.292227738E-1,-6.951345384E-1,-4.661095532E-1,1.250569912E0
3.173753750E0,1.799720499E0,-2.672124928E-1,3.543471158E-1,1.853633801E0
3.183780750E0,2.628552939E0,7.927421093E-2,1.137454037E0,2.865200977E0
3.193807750E0,3.415311885E0,3.211565655E-1,2.151720542E0,4.049370087E0
3.203833750E0,3.264831451E0,7.342816472E-1,2.837724800E0,4.387593416E0
3.213860750E0,2.800430966E0,1.328659304E0,2.596099430E0,4.043201874E0
3.223887750E0,2.521827512E0,1.911455382E0,2.363542215E0,3.949633841E0
3.233914750E0,2.313120067E0,2.194444832E0,3.132352548E0,4.469647083E0
3.243941750E0,1.906120382E0,2.407466499E0,3.614064884E0,4.742431322E0
3.253967750E0,1.749725928E0,3.067944590E0,3.615160945E0,5.054029431E0
3.263994750E0,1.455587153E0,3.382935267E0,4.177091525E0,5.568759161E0
3.274021750E0,4.650967424E-1,3.638343986E0,4.135974490E0,5.528123273E0
3.284048750E0,3.596115102E-1,3.964656626E0,3.987248221E0,5.634356305E0
3.294075750E0,3.510213657E-1,4.196985800E0,3.993088420E0,5.803676501E0
3.304101750E0,4.827885166E-1,4.410545411E0,3.926618149E0,5.924890351E0
3.314128750E0,7.615197319E-1,4.866941058E0,3.698907107E0,6.160271207E0
3.324155750E0,7.325478016E-1,5.183831495E0,3.600187395E0,6.353745709E0
3.334182750E0,5.796856508E-1,5.603915348E0,3.402067941E0,6.581334892E0
3.344209750E0,5.432462414E-1,6.176618546E0,3.128317677E0,6.944933738E0
3.354235750E0,3.367844188E-1,6.728179967E0,2.441904845E0,7.165523615E0
3.364262750E0,8.064465210E-2,7.069520536E0,1.534556140E0,7.234603425E0
3.374289750E0,2.052036479E-2,7.088701158E0,9.310126796E-1,7.149607667E0
3.384316750E0,1.415213299E-1,6.892895447E0,2.395279732E-1,6.898507779E0
3.394343750E0,2.417417291E-1,6.358407896E0,-4.661841783E-1,6.380056248E0
3.404369750E0,6.228366405E-2,5.564850100E0,-9.866004047E-1,5.651974545E0
3.414396750E0,-2.722932847E-1,4.790055435E0,-1.863603230E0,5.147017748E0
3.424423750E0,-4.436719595E-1,4.080658953E0,-3.034073132E0,5.104333655E0
3.434450750E0,-4.361720283E-1,2.938580207E0,-4.959805368E0,5.781450420E0
3.444477750E0,-3.621461320E-1,6.181033194E-1,-8.849221777E0,8.878171410E0
3.454504750E0,-2.382655301E0,-5.767150898E0,-1.977567159E1,2.073678525E1
3.464530750E0,-6.422975775E0,-2.181149900E1,-2.820980772E1,3.623243516E1
3.474557750E0,-3.388654721E0,-3.420130458E1,-1.139203670E0,3.438764314E1
3.484584750E0,1.130185217E0,-2.993464278E1,3.821389084E1,4.855575774E1
3.494611750E0,1.960630173E0,-1.777982744E1,3.346194521E1,3.794295866E1
3.504637750E0,6.791915202E-1,-4.039010990E-1,1.597507030E1,1.599460247E1
3.514664750E0,5.300492218E-1,9.252080902E0,8.920466591E0,1.286299644E1
3.524692250E0,1.881377304E0,1.376757331E1,-8.788656317E0,1.644159771E1
3.534719250E0,5.645676162E0,1.362590112E1,-4.296660946E0,1.536229592E1
3.544746250E0,5.892024620E0,8.559289927E0,1.169298587E1,1.564299578E1
3.554773250E0,3.775026745E0,3.313486717E0,1.327371514E1,1.419230547E1
3.564799250E0,-2.623098949E-1,-5.753185408E0,1.222209106E1,1.351101250E1
3.574826250E0,2.568747617E-1,-1.183830322E1,1.098728074E1,1.615338187E1
3.584853250E0,5.657854743E0,-1.464564501E1,5.829161789E0,1.674769731E1
3.594880250E0,1.025288098E1,-1.378324151E1,-5.248195306E0,1.796226235E1
3.604907250E0,9.998659244E0,-8.409104778E0,-6.335474532E0,1.451979571E1
3.614933250E0,5.146975910E0,-2.924155710E0,4.854161091E-1,5.939501363E0
3.624960250E0,2.393374417E0,2.328454828E-1,3.526760985E0,4.268547899E0
3.634987250E0,3.120413411E-1,2.830248258E0,2.022650127E0,3.492676414E0
3.645014250E0,-2.293208982E0,4.669574726E0,-1.217168105E0,5.342773975E0
3.655040250E0,-3.409283113E0,5.137093531E0,-8.282205288E-1,6.220843233E0
3.665067250E0,-2.320848624E0,4.525533831E0,2.637576655E-2,5.086009287E0
3.675094250E0,-3.688941112E-1,3.677769422E0,-5.662560582E-1,3.739347097E0
3.685121250E0,1.012190452E0,2.835067533E0,-1.235971581E0,3.254191631E0
3.695148250E0,1.509619811E0,2.083788030E0,-1.581321147E0,3.020215406E0
3.705175250E0,1.769004929E0,1.502488840E0,-1.497872901E0,2.762331331E0
3.715201250E0,1.894272169E0,1.159538532E0,-1.313200289E0,2.580172796E0
3.725228250E0,2.373824544E0,8.102030647E-1,-3.395910092E-1,2.531164559E0
3.735255250E0,2.818867822E0,5.321738076E-1,7.261867619E-1,2.959150549E0
3.745282250E0,2.605881530E0,3.315687025E-1,9.217913282E-1,2.783928089E0
3.755309250E0,2.440012102E0,3.576081079E-1,1.034233285E0,2.674169236E0
3.765335250E0,3.210299733E0,3.949443340E-1,1.623460130E0,3.619064547E0
3.775362250E0,3.679728824E0,3.023396409E-1,1.720976484E0,4.073521024E0
3.785389250E0,3.372510266E0,1.965740347E-1,1.160002216E0,3.571844340E0
3.795416250E0,2.552960720E0,1.817741472E-1,4.489790751E-1,2.598505818E0
3.805443250E0,1.896933821E0,8.066701770E-2,-3.432970476E-1,1.929434620E0
3.815469250E0,1.495535915E0,-4.918560863E-2,-8.906034493E-1,1.741327483E0
3.825496250E0,1.382289966E0,-2.915392488E-1,-1.393605498E0,1.984403429E0
3.835523250E0,1.287564780E0,-6.070877498E-1,-2.081346232E0,2.521582983E0
3.845550250E0,1.262947710E0,-8.222477442E-1,-2.753809361E0,3.139202808E0
3.855577250E0,1.013207867E0,-8.266103518E-1,-3.350542862E0,3.596666835E0
3.865603250E0,9.137402970E-1,-7.852834010E-1,-3.981592501E0,4.159888243E0
3.875630250E0,1.096832407E0,-8.281797445E-1,-4.952325025E0,5.139498630E0
3.885657250E0,1.671718370E0,-1.000901232E0,-5.850532193E0,6.166455427E0
3.895684250E0,2.317323484E0,-1.179643598E0,-6.689938007E0,7.177521695E0
3.905711250E0,2.966112114E0,-1.353763155E0,-7.348075458E0,8.038949477E0
3.915737250E0,3.821185834E0,-1.650528061E0,-7.180170906E0,8.299431204E0
3.925764250E0,4.693098074E0,-2.410425775E0,-5.481792741E0,7.608243792E0
3.935791250E0,4.830947353E0,-3.719121516E0,-2.650589048E0,6.647972584E0
3.945818250E0,3.502763135E0,-5.333889175E0,-3.666813786E-1,6.391727352E0
3.955845250E0,1.537655456E0,-5.574190443E0,7.803144372E-1,5.834798541E0
3.965871250E0,-1.725663612E0,-4.615812501E0,6.291995075E-1,4.967849834E0
3.975898250E0,-3.465007955E0,-3.968413462E0,-1.014441045E0,5.365042047E0
3.985925250E0,-3.009940211E0,-3.578500072E0,-1.593417136E0,4.940079049E0
3.995952250E0,-1.887123071E0,-3.136477466E0,-1.012877499E0,3.797979095E0
4.005979250E0,-7.291404828E-1,-2.714642957E0,-1.323844707E0,3.107007730E0
4.016005250E0,3.297230288E-1,-2.664396663E0,-1.857997212E0,3.264947243E0
4.026032250E0,8.454848716E-1,-3.503036492E0,-2.093482128E0,4.167586442E0
4.036059250E0,8.226804382E-1,-4.630192559E0,-1.578099185E0,4.960431763E0
4.046086250E0,5.915318173E-1,-4.875211945E0,-2.646484157E-1,4.918093145E0
4.056113250E0,8.078986770E-1,-3.981115953E0,1.162887305E0,4.225433870E0
4.066139250E0,9.660592823E-1,-3.010609717E0,2.028700826E0,3.756683171E0
4.076166250E0,7.274563386E-1,-2.390842865E0,2.186431953E0,3.320513065E0
4.086193250E0,1.009679657E-1,-2.081548546E0,2.847104026E0,3.528319744E0
4.096220250E0,3.241770910E-1,-2.206811693E0,4.540765243E0,5.059017456E0
4.106247250E0,6.356731792E-1,-1.389893101E0,3.094698526E0,3.451527515E0
4.116273250E0,1.401603904E0,-5.492090857E-1,1.248272953E0,1.955584181E0
4.126300250E0,2.188291222E0,-4.894867945E-1,-9.260586262E-2,2.244279760E0
4.136327250E0,3.228224373E0,-1.094831489E0,-7.295850174E-1,3.486026806E0
4.146354250E0,4.378469340E0,-2.000400302E0,-7.373271695E-1,4.869932904E0
4.156381250E0,4.712902594E0,-2.900137103E0,6.877261162E-2,5.534164412E0
4.166407250E0,4.448402916E0,-3.426272491E0,8.799745269E-1,5.683483690E0
4.176434250E0,3.366802507E0,-3.128384920E0,1.526109252E0,4.842639856E0
4.186461250E0,1.559436627E0,-2.092437816E0,1.998632397E0,3.287045796E0
4.196488250E0,-1.391382971E-1,-5.463375181E-1,2.469032710E0,2.532581030E0
4.206515250E0,-1.629064248E0,9.563074422E-1,2.454932734E0,3.097590834E0
4.216541250E0,-2.939373089E0,2.094774948E0,2.555435261E0,4.422470533E0
4.226568250E0,-4.085712993E0,3.075091642E0,2.785796847E0,5.823221046E0
4.236595250E0,-4.789441477E0,4.111248661E0,2.317868444E0,6.724108070E0
4.246622250E0,-4.754145052E0,4.709203645E0,2.538115224E0,7.156851475E0
4.256649250E0,-4.063560525E0,5.113346234E0,3.064253243E0,7.214463375E0
4.266675250E0,-2.856331517E0,5.312670214E0,2.708580564E0,6.612072535E0
4.276702250E0,-1.147884446E0,5.354145100E0,3.321240710E0,6.404307012E0
4.286729250E0,7.864205383E-1,5.625058880E0,3.799686207E0,6.833546659E0
4.296756250E0,1.848255605E0,5.684568332E0,3.767886710E0,7.065927835E0
4.306783250E0,1.924168105E0,5.756630588E0,3.826309457E0,7.175086249E0
4.316809250E0,1.715045946E0,5.643726701E0,3.867621790E0,7.053476588E0
4.326836250E0,1.404063389E0,5.500176387E0,3.382825047E0,6.608088951E0
4.336863250E0,1.507294812E0,5.613666165E0,2.616299806E0,6.374183096E0
4.346890250E0,1.588086668E0,6.099076281E0,1.847775402E0,6.567725990E0
4.356917250E0,1.467778160E0,7.117441977E0,1.302174341E0,7.382954086E0
4.366944250E0,1.836807780E0,8.314467593E0,7.828027198E-1,8.550848746E0
4.376970250E0,2.645425664E0,9.330558137E0,1.831122825E-1,9.700057846E0
4.386997250E0,3.023387053E0,9.972119901E0,-4.210410422E-1,1.042886955E1
4.397024250E0,1.908834659E0,9.592494687E0,-1.892928479E0,9.962067171E0
4.407051250E0,-1.289379756E0,6.075329568E0,-9.319254885E0,1.119913573E1
4.417078250E0,-5.770113097E0,-2.612236576E0,-2.769396167E1,2.840903902E1
4.427104250E0,-6.689907017E0,-2.127910066E1,-2.070278973E1,3.043288491E1
4.437131250E0,-1.156162233E1,-4.391679487E1,8.363602915E0,4.617689721E1
4.447158250E0,-3.553121110E0,-4.092492431E1,5.111288365E1,6.557439267E1
4.457185250E0,2.142389263E0,-1.218446540E1,3.546720338E1,3.756292780E1
4.467212250E0,-9.869617041E0,4.303425005E0,9.248043984E-1,1.080666787E1
4.477238250E0,-1.457147191E1,1.045545776E1,-1.207890678E1,2.162277456E1
4.487265250E0,-7.635151527E0,1.187389054E1,-2.766249897E0,1.438530340E1
4.497292250E0,-5.841865450E-1,8.119077619E0,1.638808954E1,1.829836534E1
4.507319250E0,-4.456864715E-1,-7.313849366E-1,2.005143096E1,2.006971459E1
4.517346750E0,-9.538869873E-1,-7.337233551E0,1.139502112E1,1.358644188E1
4.527372750E0,1.822926782E0,-1.195385004E1,1.461442263E0,1.218004131E1
4.537399750E0,4.427969529E0,-1.332536476E1,-2.901240180E0,1.433839094E1
4.547426750E0,3.632599389E0,-1.136136805E1,-2.943312943E-2,1.192800607E1
4.557453750E0,1.615308527E0,-7.450859569E0,2.180852686E0,7.929731924E0
4.567480750E0,2.037101229E0,-3.908590599E0,2.994224650E0,5.328437213E0
4.577506750E0,2.489116726E0,-1.666384540E0,2.676097234E0,4.016719547E0
4.587533750E0,2.178810839E0,-7.153694129E-1,2.622356645E0,3.483636669E0
4.597560750E0,4.730520985E-1,1.264232343E-1,3.366583236E0,3.402005851E0
4.607587750E0,1.044619694E-1,1.120932875E0,3.758261608E0,3.923255425E0
4.617614750E0,-5.947757795E-1,1.513602642E0,2.736213920E0,3.183020233E0
4.627640750E0,-1.053773803E0,1.889464588E0,1.855029166E0,2.849850674E0
4.637667750E0,-4.439238283E-1,2.297747591E0,1.092402556E0,2.582645097E0
4.647694750E0,-1.122252446E-1,2.145558016E0,-1.356554031E-1,2.152769401E0
4.657721750E0,-7.530331562E-1,1.873457251E0,-1.479504020E0,2.503164627E0
4.667748750E0,-1.278809160E0,1.837231995E0,-2.466442101E0,3.330782327E0
4.677774750E0,-1.259938148E0,1.700016555E0,-2.184972342E0,3.041645042E0
4.687801750E0,-4.292357688E-1,1.416773921E0,-1.285549245E0,1.960644932E0
4.697828750E0,7.357627469E-1,1.339914025E0,1.175138319E-1,1.533142497E0
4.707855750E0,1.208469567E0,1.628047271E0,3.304920839E-1,2.054303198E0
4.717882750E0,1.894282840E0,1.608912258E0,-2.420460767E-1,2.497096801E0
4.727908750E0,2.784492626E0,1.270953133E0,-7.841749151E-1,3.159691654E0
4.737935750E0,2.994481635E0,5.506352216E-1,-1.127067335E0,3.246598248E0
4.747962750E0,2.078241215E0,-1.146872878E-1,-1.994045548E0,2.882439482E0
4.757989750E0,9.193827139E-1,-4.762732565E-1,-3.155165167E0,3.320717998E0
4.768016750E0,1.226327768E-1,-4.732327044E-1,-3.515199870E0,3.549030588E0
4.778042750E0,-1.602498154E-1,-8.839703679E-2,-3.637600805E0,3.642201759E0
4.788069750E0,-3.971278305E-1,2.128175998E-1,-4.190766116E0,4.214916664E0
4.798096750E0,-1.202231392E-1,2.280683076E-1,-5.201560253E0,5.207945643E0
4.808123750E0,2.191991778E-1,-1.060977280E-2,-5.580284411E0,5.584598012E0
4.818150750E0,5.099791657E-1,-3.825534993E-1,-5.776440954E0,5.811514091E0
4.828176750E0,8.994621272E-1,-5.513322097E-1,-5.853330671E0,5.947644850E0
4.838203750E0,1.165292996E0,-5.550744277E-1,-6.120067785E0,6.254697841E0
4.848230750E0,1.385844635E0,-5.708969933E-1,-6.233389163E0,6.411055232E0
4.858257750E0,1.649295906E0,-7.328876710E-1,-6.356885866E0,6.608123730E0
4.868284750E0,1.758356857E0,-3.967616487E-1,-6.546850208E0,6.790470255E0
4.878311750E0,1.497633019E0,4.265923887E-1,-6.633102486E0,6.813437775E0
4.888337750E0,1.196887403E0,8.142768198E-1,-6.498194942E0,6.657486290E0
4.898364750E0,5.244352370E-1,7.898851597E-1,-6.530785568E0,6.599250792E0
4.908391750E0,-2.954300592E-1,6.165146309E-1,-7.035864547E0,7.068999868E0
4.918418750E0,-1.560194426E0,9.086245680E-1,-7.379220067E0,7.596887129E0
4.928445750E0,-3.000210737E0,1.443123813E0,-6.757991996E0,7.533546749E0
4.938471750E0,-3.688938773E0,1.077933036E0,-5.203794474E0,6.469133314E0
4.948498750E0,-3.023655148E0,-9.892898315E-1,-2.732364113E0,4.193685548E0
4.958525750E0,-1.963291094E0,-4.120207180E0,-5.287923628E-1,4.594588175E0
4.968552750E0,-5.946768153E-1,-7.047125700E0,8.403960398E-1,7.121929981E0
4.978579750E0,1.234463438E-1,-9.258301755E0,2.408961925E0,9.567365778E0
4.988605750E0,-2.166651261E0,-1.076070581E1,4.233642287E0,1.176481595E1
4.998632750E0,-8.298823367E0,-1.064733064E1,2.730264378E0,1.377281607E1
5.008659750E0,-1.452119638E1,-9.920252759E0,-1.133158380E0,1.762272984E1
5.018686750E0,-1.366398170E1,-9.052345278E0,2.061032859E0,1.651960070E1
5.028713750E0,-9.667229120E0,-8.087640064E0,3.235683666E0,1.301287399E1
5.038739750E0,-4.807098607E0,-7.501513998E0,4.137746342E-1,8.919199444E0
5.048766750E0,-2.748579319E0,-7.193538811E0,-2.118104169E0,7.986742400E0
5.058793750E0,-2.344838727E0,-6.380489321E0,-1.953903244E0,7.072952037E0
5.068820750E0,-1.644049346E0,-4.893480400E0,-6.401607710E-1,5.201812616E0
5.078847750E0,-1.815297335E0,-2.822469707E0,8.183798110E-1,3.454183721E0
5.088873750E0,-2.759579394E0,-1.268055253E0,1.593403687E0,3.429603165E0
5.098900750E0,-3.567885329E0,-7.558947104E-1,2.151349683E0,4.234322613E0
5.108927750E0,-3.992722384E0,-8.343590820E-1,2.602634279E0,4.838563041E0
5.118954750E0,-4.341723683E0,-8.348397231E-1,2.645515419E0,5.152307613E0
5.128981750E0,-5.075743375E0,-6.250445491E-1,3.743471661E0,6.337778126E0
5.139007750E0,-5.535888841E0,4.944171667E-2,3.138295366E0,6.363757345E0
5.149034750E0,-4.418596150E0,1.009403084E0,2.630532514E0,5.240475916E0
5.159061750E0,-2.790959938E0,1.637661263E0,2.580469823E0,4.138866547E0
5.169088750E0,-1.964325028E0,1.783233544E0,2.745741958E0,3.818061496E0
5.179115750E0,-1.267598732E0,1.552043992E0,2.689334453E0,3.353828693E0
5.189141750E0,-7.525907412E-2,1.111148145E0,1.724278699E0,2.052669277E0
5.199168750E0,1.014664847E0,5.023635328E-1,1.476704080E0,1.860797897E0
5.209195750E0,2.125784048E0,-4.266479373E-2,1.925947706E0,2.868806837E0
5.219222750E0,3.367843019E0,-3.942783362E-1,1.943640795E0,3.908396288E0
5.229249750E0,3.478065957E0,-4.604770035E-1,9.399267599E-1,3.632140442E0
5.239276750E0,2.566035386E0,2.817878473E-1,5.385633525E-1,2.637042373E0
5.249302750E0,2.465879599E0,1.050378032E0,1.263756380E0,2.963264483E0
5.259329750E0,1.892373286E0,1.618265464E0,1.834308972E0,3.092660532E0
5.269356750E0,1.678792332E0,2.504900408E0,1.829359304E0,3.526956933E0
5.279383750E0,2.010663335E0,3.416876015E0,2.490244946E0,4.681786907E0
5.289410750E0,2.062556790E0,4.106450436E0,3.611595898E0,5.844715615E0
5.299436750E0,1.144664385E0,4.503488073E0,3.778919236E0,5.989314817E0
5.309463750E0,8.326259673E-2,4.137435417E0,3.730768585E0,5.571708779E0
5.319490750E0,-9.114382482E-1,3.650056543E0,3.913560732E0,5.428590061E0
5.329517750E0,-1.165014742E0,3.505822105E0,3.927049089E0,5.391638205E0
5.339544750E0,-1.314636512E0,3.668806225E0,3.465521341E0,5.215193807E0
5.349570750E0,-1.603828396E0,4.193268725E0,3.052999984E0,5.429233558E0
5.359597750E0,-1.608751459E0,5.127650862E0,3.223534906E0,6.266742528E0
5.369624750E0,-1.702643709E0,6.105683634E0,3.257874434E0,7.126858640E0
5.379651750E0,-1.837289883E0,6.809964387E0,3.317276883E0,7.794586261E0
5.389678750E0,-1.970295913E0,7.594273642E0,3.319338611E0,8.518982742E0
5.399704750E0,-1.565328574E0,8.539041604E0,2.808127071E0,9.124202032E0
5.409731750E0,6.252106100E-2,9.725591934E0,2.516700381E0,1.004613499E1
5.419758750E0,1.833666071E0,1.098073420E1,1.626102194E0,1.125091388E1
5.429785750E0,1.403102546E0,1.113689695E1,-1.649114496E0,1.134542856E1
5.439812750E0,-4.276002733E0,8.725217535E0,-1.150832496E1,1.506171184E1
5.449838750E0,-1.089242721E1,1.255096654E0,-2.817833566E1,3.023638270E1
5.459865750E0,-5.931101562E0,-1.525477870E1,-1.421961453E1,2.168141315E1
5.469892750E0,-6.301050804E0,-3.703908932E1,3.105959971E0,3.769939477E1
5.479919750E0,7.141565834E0,-3.795140465E1,2.630042049E1,4.672283377E1
5.489946750E0,1.231955245E1,-1.608107564E1,2.045249382E1,2.878674816E1
5.499972750E0,2.426405338E0,-7.641767067E-1,-1.071971566E1,1.101742768E1
5.509999750E0,5.558639188E0,5.596527976E0,-3.668886624E0,8.699443894E0
5.520026542E0,1.242272306E1,6.104833449E0,2.837763684E0,1.412961226E1
5.530053542E0,1.598656709E1,3.184983044E0,9.856492381E0,1.904901274E1
5.540080542E0,1.180733051E1,-1.344605831E0,1.023101356E1,1.568102858E1
5.550107542E0,5.671130261E0,-5.725118773E0,7.379777892E0,1.092702270E1
5.560133542E0,1.570986047E0,-9.276486595E0,2.189949200E0,9.660076512E0
5.570160542E0,-2.797829247E0,-9.725786061E0,-1.228838855E0,1.019454795E1
5.580187542E0,-2.206948810E0,-8.584097325E0,-1.386858396E0,8.971105068E0
5.590214542E0,1.030511532E0,-7.249531163E0,1.166744640E0,7.414779104E0
5.600241542E0,4.073179779E0,-6.554232318E0,3.774746078E0,8.590544962E0
5.610267542E0,4.372504011E0,-5.094236948E0,4.504268969E0,8.084459188E0
5.620294542E0,2.639431684E0,-2.627628787E0,3.554870889E0,5.148605607E0
5.630321542E0,1.968217812E0,-4.637988067E-1,2.064990985E0,2.890186579E0
5.640348542E0,2.371466070E0,1.195344542E0,-5.231065303E-2,2.656207126E0
5.650375542E0,3.214717012E0,2.146851420E0,-1.785609706E0,4.258142613E0
5.660401542E0,3.892039470E0,2.169170827E0,-2.067422258E0,4.911975988E0
5.670428542E0,3.661720569E0,1.710545636E0,-1.458020765E0,4.296508868E0
5.680455542E0,3.332694236E0,1.386701691E0,-6.538964653E-1,3.668429233E0
5.690482542E0,3.211969113E0,1.573211498E0,-8.110919876E-1,3.667371022E0
5.700509542E0,3.183387923E0,1.829504315E0,-1.546079832E0,3.983893517E0
5.710535542E0,3.100710925E0,1.902410908E0,-2.043198413E0,4.172317732E0
5.720562542E0,2.557325374E0,1.709138212E0,-2.215332255E0,3.790615187E0
5.730589542E0,1.772740423E0,1.431233500E0,-2.192322292E0,3.161853092E0
5.740616542E0,1.085600198E0,1.304325532E0,-2.278981537E0,2.841399255E0
5.750643542E0,4.289046702E-1,1.391805140E0,-2.363028245E0,2.775785159E0
5.760669542E0,-2.357623664E-1,1.633783974E0,-2.251846948E0,2.792068882E0
5.770696542E0,-7.112455179E-1,2.019931757E0,-2.313323404E0,3.152373655E0
5.780723542E0,-7.517456724E-1,2.352244810E0,-2.534258108E0,3.538451831E0
5.790750542E0,-4.736154047E-1,2.527749572E0,-2.772872454E0,3.781884596E0
5.800777542E0,1.317059013E-1,2.403836548E0,-2.834518479E0,3.718907313E0
5.810803542E0,9.727718858E-1,1.742735143E0,-2.504440232E0,3.202441537E0
5.820830542E0,1.548543410E0,7.132100362E-1,-1.901268362E0,2.553718198E0
5.830857542E0,1.741661010E0,-7.118809640E-2,-1.717704967E0,2.447235414E0
5.840884542E0,1.575727116E0,-6.338422698E-1,-2.022200477E0,2.640826904E0
5.850911542E0,1.386918768E0,-9.158716071E-1,-2.389664066E0,2.910817552E0
5.860938542E0,1.358617368E0,-8.242860836E-1,-2.782237355E0,3.204080741E0
5.870964542E0,1.327023692E0,-5.075558603E-1,-3.348191696E0,3.637168193E0
5.880991542E0,1.225262259E0,9.903779984E-2,-4.047783567E0,4.230322434E0
5.891018542E0,9.685728541E-1,8.153796047E-1,-5.042759816E0,5.199269548E0
5.901045542E0,6.416249138E-1,1.263311992E0,-6.355405351E0,6.511437391E0
5.911072542E0,6.169960029E-1,8.243053794E-1,-7.145681105E0,7.219482106E0
5.921098542E0,1.658653644E0,-7.409474730E-1,-7.538454368E0,7.754252338E0
5.931125542E0,3.075199231E0,-2.637093675E0,-7.070936732E0,8.149187666E0
5.941152542E0,4.404178963E0,-4.638979754E0,-5.790410537E0,8.628196781E0
5.951179542E0,5.759696867E0,-6.426240276E0,-3.788064281E0,9.424441792E0
5.961206542E0,6.074685205E0,-7.773805967E0,-6.844224393E-1,9.889504216E0
5.971232542E0,4.629425989E0,-8.456753739E0,1.790784638E0,9.805874688E0
5.981259542E0,3.699413768E0,-8.171085679E0,3.819296014E0,9.748811489E0
5.991286542E0,1.899177690E0,-7.503433054E0,4.476206135E0,8.941185875E0
6.001313542E0,-1.405320979E0,-7.137968042E0,2.758220501E0,7.780314593E0
6.011340542E0,-3.802013399E0,-6.633363857E0,1.240315916E0,7.745657203E0
6.021366542E0,-2.861910346E0,-5.652193469E0,2.267018133E0,6.728832964E0
6.031393542E0,-1.394844523E-1,-4.476070479E0,4.191709857E0,6.133929766E0
6.041420542E0,6.086790696E-1,-3.474027286E0,5.430405071E0,6.475233974E0
6.051447542E0,9.010970087E-1,-2.461756727E0,5.704923660E0,6.278405527E0
6.061474542E0,1.451348214E0,-1.739387028E0,4.146293071E0,4.724788366E0
6.071500542E0,1.952201850E0,-1.278400147E0,2.769587781E0,3.621603992E0
6.081527542E0,2.292088509E0,-1.061932130E0,2.290225879E0,3.409765997E0
6.091554542E0,2.382974852E0,-1.024102399E0,1.146800519E0,2.835931293E0
6.101581542E0,2.864135503E0,-1.069504859E0,-2.863263099E-1,3.070683244E0
6.111608542E0,4.363417730E0,-1.098262051E0,-1.352737846E0,4.698456502E0
6.121635542E0,6.354006697E0,-1.365657561E0,-1.936496813E0,6.781477832E0
6.131661542E0,8.146924399E0,-1.843996639E0,-1.137388402E0,8.430086189E0
6.141688542E0,9.468143706E0,-2.258357822E0,3.435028696E-1,9.739811062E0
6.151715542E0,9.151179010E0,-2.050727872E0,1.462519612E0,9.491497547E0
6.161742542E0,7.124280880E0,-1.155567688E0,1.949350017E0,7.476006971E0
6.171769542E0,5.131450968E0,-8.687851489E-2,1.654122344E0,5.392166322E0
6.181795542E0,3.979581059E0,8.727998471E-1,2.353582068E0,4.705124178E0
6.191822542E0,3.224819539E0,1.429283454E0,2.961338447E0,4.605631080E0
6.201849542E0,2.090668887E0,2.257961381E0,2.383705461E0,3.892471929E0
6.211876542E0,1.266013113E0,3.135999164E0,2.250802343E0,4.062436602E0
6.221903542E0,-4.383979172E-2,3.453379013E0,2.439759209E0,4.228495422E0
6.231929542E0,-1.543808189E0,3.596039965E0,2.286052282E0,4.532205003E0
6.241956542E0,-2.517139800E0,3.618230149E0,2.582288307E0,5.108404357E0
6.251983542E0,-2.791691425E0,3.514764252E0,2.849718316E0,5.316766239E0
6.262010542E0,-2.441832632E0,3.421774228E0,3.265250697E0,5.322870239E0
6.272037542E0,-1.751814846E0,3.243064606E0,3.688673017E0,5.214655494E0
6.282063542E0,-1.613198120E0,2.733861001E0,3.785932971E0,4.940616622E0
6.292090542E0,-1.060973479E0,2.570893838E0,3.576080202E0,4.530288011E0
6.302117542E0,-3.521111405E-1,2.555271247E0,3.307586292E0,4.194463074E0
6.312144542E0,1.885826451E-1,2.384803861E0,3.216558008E0,4.008627981E0
6.322171542E0,1.037852127E0,2.332359599E0,3.630139173E0,4.437899137E0
6.332197542E0,2.620818534E0,2.866316807E0,3.499566754E0,5.227946949E0
6.342224542E0,4.193269017E0,4.089574787E0,2.898812708E0,6.535383853E0
6.352251542E0,4.690317138E0,5.919711771E0,3.287107004E0,8.236937220E0
6.362278542E0,4.350882469E0,8.110590386E0,3.686153160E0,9.914614455E0
6.372305542E0,4.090857374E0,1.010967682E1,2.838546041E0,1.126933996E1
6.382332542E0,3.785737090E0,1.182867636E1,7.580505788E-1,1.244283048E1
6.392358542E0,3.203363766E0,1.284448858E1,-2.124655974E0,1.340733341E1
6.402385542E0,2.617769796E0,1.193826838E1,-6.610349216E0,1.389502384E1
6.412412542E0,1.862592101E0,6.052727741E0,-2.057146595E1,2.152417185E1
6.422439542E0,4.071450757E0,-8.264178615E0,-3.455127447E1,3.575841058E1
6.432466542E0,-3.433945207E0,-3.208569308E1,-1.255202605E1,3.462422618E1
6.442492542E0,-1.092601010E1,-4.870203921E1,3.753592957E1,6.245167995E1
6.452519542E0,-4.095976903E0,-2.973533692E1,4.685486637E1,5.564481819E1
6.462546542E0,-5.035781164E0,-4.704688425E0,8.081047329E0,1.062057018E1
6.472573542E0,-1.235751375E1,5.808068544E0,-9.187436424E0,1.645754521E1
6.482600542E0,-8.760928820E0,8.702178336E0,-4.253305596E-1,1.235567431E1
6.492626542E0,-7.089306344E0,1.031462524E1,1.004643567E1,1.604931861E1
6.502653542E0,-6.337103566E0,7.246613987E0,1.533615206E1,1.810717691E1
6.512680542E0,-6.182031898E0,-2.779193294E-1,1.333207620E1,1.469826565E1
6.522707167E0,-5.255936435E0,-5.901085466E0,7.756437982E0,1.107294033E1
6.532734167E0,-3.596645737E-1,-9.601042147E0,-4.527863946E0,1.062124855E1
6.542760167E0,2.927489793E0,-1.141454380E1,-4.218096295E0,1.251616327E1
6.552787167E0,2.758438602E0,-1.047300877E1,2.149584993E0,1.104144971E1
6.562814167E0,3.976071560E0,-7.668737349E0,3.229327450E0,9.222105690E0
6.572841167E0,5.043874880E0,-5.890107903E0,2.765949643E0,8.233135632E0
6.582868167E0,6.343355409E0,-3.935294833E0,4.377384682E0,8.653681293E0
6.592895167E0,5.344031755E0,-2.907580608E0,4.393123047E0,7.504147553E0
6.602921167E0,3.411706784E0,-2.328936639E0,3.161284279E0,5.201673513E0
6.612948167E0,2.451893936E0,-1.184889720E0,7.896046396E-1,2.835352361E0
6.622975167E0,2.062562637E0,5.057631040E-1,-1.659062072E0,2.694892930E0
6.633002167E0,1.616895169E0,2.061373313E0,-2.055927801E0,3.330232581E0
6.643029167E0,8.190375497E-1,2.996182297E0,-9.799781406E-1,3.257036694E0
6.653055167E0,1.530400524E-1,3.265147786E0,-7.817569453E-1,3.360915834E0
6.663082167E0,3.718731214E-1,3.124467285E0,-1.061462599E0,3.320736106E0
6.673109167E0,6.817233646E-1,2.849266326E0,-1.342813075E0,3.222764698E0
6.683136167E0,8.891659845E-1,2.421068292E0,-1.314520152E0,2.894849056E0
6.693163167E0,1.265358810E0,2.368263842E0,-1.272426631E0,2.971342470E0
6.703189167E0,1.293210267E0,2.601390576E0,-1.947899907E0,3.497704929E0
6.713216167E0,1.389806854E0,2.865596430E0,-3.085150607E0,4.434113244E0
6.723243167E0,1.634504059E0,3.148837311E0,-3.516495028E0,4.995249464E0
6.733270167E0,1.596165181E0,3.237811468E0,-4.066139731E0,5.437339303E0
6.743297167E0,1.261004388E0,2.571054636E0,-4.768354663E0,5.562163267E0
6.753323167E0,6.234294020E-1,1.920091134E0,-4.732563856E0,5.145150614E0
6.763350167E0,5.274026624E-1,1.546356990E0,-4.756963702E0,5.029719393E0
6.773377167E0,9.528998311E-1,1.396948936E0,-4.827581111E0,5.115175832E0
6.783404167E0,2.085949160E0,1.471035497E0,-4.419253669E0,5.103423589E0
6.793431167E0,2.738404579E0,1.208133572E0,-3.750060303E0,4.798061968E0
6.803458167E0,2.849115468E0,1.190143443E0,-3.278726190E0,4.503770176E0
6.813484167E0,3.035415360E0,1.218335794E0,-3.719265357E0,4.952880305E0
6.823511167E0,3.006195362E0,1.226348818E0,-5.084943384E0,6.033058196E0
6.833538167E0,2.443345599E0,1.305975031E0,-6.794814836E0,7.337916405E0
6.843565167E0,1.530967119E0,1.718852191E0,-8.527595095E0,8.832790685E0
6.853592167E0,4.623522055E-1,2.464664547E0,-9.809028193E0,1.012449381E1
6.863618167E0,-4.282163798E-1,2.833309275E0,-1.003575281E1,1.043682639E1
6.873645167E0,-5.164813426E-1,2.130828879E0,-8.037391432E0,8.331077104E0
6.883672167E0,9.681388445E-1,-5.402774638E-1,-3.138111178E0,3.328202868E0
6.893699167E0,2.864902951E0,-3.819623458E0,2.495420902E0,5.387422181E0
6.903726167E0,4.691614928E0,-7.938197511E0,6.045916904E0,1.102630226E1
6.913752167E0,5.135773230E0,-1.217650851E1,7.149818010E0,1.502542591E1
6.923779167E0,7.762391471E-1,-1.443625037E1,6.134664774E0,1.570483950E1
6.933806167E0,-8.092405545E0,-1.317121228E1,1.943841355E0,1.558032026E1
6.943833167E0,-1.360853021E1,-1.038025088E1,-1.359674106E0,1.716946174E1
6.953860167E0,-1.192653185E1,-8.544639144E0,1.196404057E0,1.472020390E1
6.963886167E0,-7.474800993E0,-7.973238121E0,2.578353716E0,1.122911768E1
6.973913167E0,-3.307387487E0,-7.059941627E0,-3.339567053E-1,7.803404055E0
6.983940167E0,-1.894206534E0,-6.332852640E0,-4.808031530E0,8.173751167E0
6.993967167E0,-2.104583360E0,-6.814297759E0,-4.813094634E0,8.604057474E0
7.003994167E0,-1.626391485E0,-6.980205486E0,-1.939117974E0,7.424863394E0
7.014021167E0,-1.276475390E0,-5.575075126E0,5.473415581E-1,5.745470813E0
7.024047167E0,-1.230839041E0,-3.391416653E0,2.011573162E0,4.130750325E0
7.034074167E0,-1.976833831E0,-1.464563799E0,2.183766646E0,3.289628532E0
7.044101167E0,-2.635990597E0,-5.702619857E-1,1.915903358E0,3.308221704E0
7.054128167E0,-2.903766177E0,-5.403610790E-1,2.185206231E0,3.674095042E0
7.064155167E0,-3.503056957E0,-5.315914249E-1,5.041133705E0,6.161738920E0
7.074181167E0,-3.636788919E0,5.599603611E-1,5.230555426E0,6.395193454E0
7.084208167E0,-3.811658089E0,2.024290856E0,4.501993525E0,6.236540432E0
7.094235167E0,-3.362134382E0,2.887950920E0,4.358928530E0,6.216467329E0
7.104262167E0,-2.998099599E0,3.178495558E0,4.143252811E0,6.021459879E0
7.114289167E0,-1.945427412E0,3.314465541E0,3.506292222E0,5.202350890E0
7.124315167E0,-1.097368450E0,3.158244311E0,3.315127154E0,4.708374740E0
7.134342167E0,-4.521020365E-1,2.996940097E0,4.536197398E0,5.455559827E0
7.144369167E0,5.819312739E-1,2.824730825E0,5.214743385E0,5.959135576E0
7.154396167E0,8.118019858E-1,3.007372114E0,4.560083566E0,5.522469703E0
7.164423167E0,6.406415949E-2,3.316455933E0,4.136642242E0,5.302338466E0
7.174450167E0,-5.155147248E-1,3.664159443E0,3.490103036E0,5.086515414E0
7.184476167E0,-5.715163596E-1,3.714544315E0,3.522701263E0,5.151106154E0
7.194503167E0,-7.901909691E-1,3.714598694E0,3.734721887E0,5.326424016E0
7.204530167E0,-7.428733997E-1,4.001704584E0,3.722864318E0,5.515906018E0
7.214557167E0,-8.869224809E-1,4.195730402E0,3.642707178E0,5.626730905E0
7.224584167E0,-1.294889441E0,4.523883746E0,3.929862769E0,6.130749073E0
7.234610167E0,-1.487868462E0,4.237359070E0,3.015022026E0,5.409188688E0
7.244637167E0,-1.293103409E0,3.434051626E0,2.140639338E0,4.248195355E0
7.254664167E0,-6.244985653E-1,3.010937161E0,2.210432581E0,3.787050732E0
7.264691167E0,9.863361105E-2,2.833199347E0,2.401412292E0,3.715309964E0
7.274718167E0,2.025782481E-2,2.820757057E0,2.069090176E0,3.498316011E0
7.284744167E0,-4.146275237E-1,3.070934857E0,1.645401514E0,3.508547138E0
7.294771167E0,-8.753838779E-1,3.626877596E0,1.300611673E0,3.951218641E0
7.304798167E0,-1.136517021E0,4.238406306E0,7.374733499E-1,4.449677055E0
7.314825167E0,-1.179242772E0,4.591571699E0,-3.238304973E-1,4.751632391E0
7.324852167E0,-1.280810662E0,4.653441088E0,-1.067352207E0,4.943099296E0
7.334878167E0,-1.270935153E0,4.621653285E0,-1.065411224E0,4.910199214E0
7.344905167E0,-1.893063696E0,4.320284282E0,-1.429533715E0,4.928702981E0
7.354932167E0,-4.002020334E0,3.510534961E0,-2.720902986E0,5.978573034E0
7.364959167E0,-7.557886419E0,1.498066590E0,-5.266997028E0,9.333118896E0
7.374986167E0,-1.230515427E1,-3.013308207E0,-9.407889903E0,1.577989988E1
7.385013167E0,-1.264829227E1,-1.023239116E1,-8.430496232E0,1.832360208E1
7.395039167E0,-3.310260516E0,-1.485968818E1,1.402310248E0,1.528838224E1
7.405066167E0,4.501658772E0,-1.449532245E1,5.949647176E0,1.630268708E1
7.415093167E0,4.933955412E0,-9.029390863E0,1.437796883E1,1.768049216E1
7.425120167E0,4.251256732E0,-7.779661953E-1,1.926865484E1,1.974739159E1
7.435147167E0,1.599798056E0,5.796225593E0,6.349724781E0,8.744975114E0
7.445173167E0,-1.325235760E0,8.994588236E0,-2.682188571E0,9.479082386E0
7.455200167E0,-2.058749814E0,7.388344647E0,-3.572473347E-2,7.669899848E0
7.465227167E0,-4.561885093E-1,3.199529162E0,4.373634570E0,5.438177467E0
7.475254167E0,2.083925585E0,-1.939843029E-1,8.417967403E0,8.674246420E0
7.485281167E0,2.558574632E0,-2.843409755E0,8.977866368E0,9.758758513E0
7.495307167E0,2.086415184E0,-4.522711380E0,5.734330477E0,7.595432348E0
7.505334167E0,1.844581507E0,-5.350230973E0,3.525807889E0,6.667741272E0
7.515361167E0,1.588365434E0,-6.487734858E0,2.082609523E0,6.996489889E0
7.525387667E0,1.846455393E0,-7.612741488E0,8.263890347E-1,7.876937814E0
7.535414667E0,2.479197510E0,-7.710354322E0,2.895318997E-1,8.104308285E0
7.545441667E0,2.399993173E0,-6.692476868E0,2.944002914E-1,7.115889642E0
7.555467667E0,1.036071156E-1,-3.933667552E0,1.740104627E0,4.302608390E0
7.565494667E0,-1.427059612E0,-1.397602655E0,2.958425657E0,3.569604275E0
7.575521667E0,-1.078525505E0,6.224431229E-1,3.468086514E0,3.684871338E0
7.585548667E0,-7.530504785E-1,1.747953783E0,2.584468149E0,3.209657780E0
7.595575667E0,-1.194963011E0,2.151922125E0,1.337763419E0,2.801484677E0
7.605601667E0,-2.144404068E0,2.201948563E0,1.302271990E0,3.338107041E0
7.615628667E0,-1.913867066E0,1.993268453E0,6.629058552E-1,2.841733704E0
7.625655667E0,-2.682155242E0,1.491096709E0,-1.125946278E0,3.268804240E0
7.635682667E0,-3.167287323E0,1.180513664E0,-1.064007892E0,3.543647032E0
7.645709667E0,-2.500066515E0,1.110510213E0,-7.740836442E-2,2.736705605E0
7.655735667E0,-1.599266106E0,1.088580816E0,4.419979747E-1,1.984445131E0
7.665762667E0,-8.318816167E-1,1.129477996E0,2.465436088E-1,1.424265186E0
7.675789667E0,1.512943661E-1,1.031124321E0,-1.867467655E-1,1.058764234E0
7.685816667E0,8.914371161E-1,7.480565178E-1,-2.412626228E-1,1.188468064E0
7.695843667E0,1.369484564E0,4.805241823E-1,5.651385091E-2,1.452441144E0
7.705870667E0,1.688332210E0,2.332489407E-1,2.013488710E-2,1.704487059E0
7.715896667E0,2.001919994E0,1.998502296E-1,-2.505298018E-1,2.027409420E0
7.725923667E0,2.149377417E0,8.459517717E-2,-4.521957381E-1,2.198058373E0
7.735950667E0,2.311853706E0,1.452910298E-1,-5.155783863E-1,2.373098842E0
7.745977667E0,2.109165530E0,4.043437332E-1,-4.348287767E-1,2.191152472E0
7.756004667E0,1.571908153E0,7.349002826E-1,-7.719613972E-1,1.899183526E0
7.766030667E0,1.114707491E0,9.056992060E-1,-1.506905826E0,2.081737018E0
7.776057667E0,3.900709721E-1,6.196528316E-1,-2.140617996E0,2.262381577E0
7.786084667E0,2.647180706E-3,3.356255007E-1,-3.202453355E0,3.219993629E0
7.796111667E0,3.002062842E-2,1.098539793E-1,-3.701051280E0,3.702802954E0
7.806138667E0,5.744860142E-2,-1.074718237E-1,-3.936851361E0,3.938737003E0
7.816164667E0,-4.431750923E-3,-2.958340287E-2,-4.462735319E0,4.462835572E0
7.826191667E0,3.175264679E-2,2.858762205E-1,-5.149829936E0,5.157856320E0
7.836218667E0,7.496115848E-2,4.248803240E-1,-5.680762964E0,5.697122987E0
7.846245667E0,1.076424162E-1,2.323268348E-1,-6.149080499E0,6.154409284E0
7.856272667E0,1.566439837E-1,-4.066738486E-3,-6.503988948E0,6.505876275E0
7.866299667E0,3.186143424E-1,-2.552064049E-1,-6.350662674E0,6.363769466E0
7.876325667E0,2.556160024E-1,-3.078740305E-1,-5.951718845E0,5.965155754E0
7.886352667E0,1.562636954E-1,-1.990526694E-1,-5.961814063E0,5.967182520E0
7.896379667E0,-2.188245906E-1,9.265439451E-2,-6.984516054E0,6.988557329E0
7.906406667E0,-9.291723416E-1,5.933631653E-1,-8.611438905E0,8.681723395E0
7.916433667E0,-1.597010835E0,9.435172427E-1,-8.994199980E0,9.183479824E0
7.926459667E0,-1.389998351E0,3.109818256E-1,-6.666695910E0,6.817157726E0
7.936486667E0,-2.746496395E-1,-1.833788570E0,-2.982862340E0,3.512218770E0
7.946513667E0,1.176104352E0,-4.757719747E0,-4.637850657E-1,4.922825939E0
7.956540667E0,2.507122642E0,-6.419754544E0,3.747971678E-1,6.902129038E0
7.966567667E0,2.478688509E0,-7.590499265E0,1.320514718E0,8.093413058E0
7.976593667E0,6.186748847E-1,-8.604883592E0,3.606673127E0,9.350661542E0
7.986620667E0,-2.748981023E0,-8.661354831E0,5.828460124E0,1.079568949E1
7.996647667E0,-5.800502247E0,-7.991145803E0,4.768807530E0,1.096566290E1
8.006674667E0,-9.040702302E0,-8.197540821E0,-1.760086171E0,1.233012072E1
8.016701667E0,-8.329629423E0,-9.502789629E0,-3.142649787E0,1.302159686E1
8.026728667E0,-4.231646925E0,-9.333251365E0,9.425822729E-1,1.029100958E1
8.036754667E0,-2.153838843E0,-8.470906924E0,1.146168873E0,8.815270215E0
8.046781667E0,-1.137429844E0,-7.651207981E0,-1.540894083E-1,7.736825820E0
8.056808667E0,-1.143278668E0,-6.708052681E0,-7.391535473E-1,6.844808606E0
8.066835667E0,-1.966346265E0,-5.580020701E0,-3.036266130E-1,5.924131817E0
8.076862667E0,-2.820158595E0,-4.105453486E0,3.372978044E-1,4.992175140E0
8.086888667E0,-3.464700977E0,-2.471626242E0,7.023932719E-1,4.313518917E0
8.096915667E0,-3.630551401E0,-1.010409974E0,1.281929526E0,3.980599842E0
8.106942667E0,-3.017818165E0,-1.088850957E-1,1.477888434E0,3.362028653E0
8.116969667E0,-3.358209439E0,5.868090212E-1,1.281309868E0,3.641932240E0
8.126996667E0,-3.748181885E0,8.537320769E-1,2.383303173E0,4.523036581E0
8.137023667E0,-3.456628895E0,1.119832429E0,3.645140204E0,5.146781043E0
8.147049667E0,-3.306684067E0,1.342757526E0,4.261192613E0,5.558319870E0
8.157076667E0,-2.341703449E0,1.447239084E0,3.584499900E0,4.519592409E0
8.167103667E0,-7.363194019E-1,1.382311016E0,2.344000528E0,2.819093557E0
8.177130667E0,1.032022161E0,8.688231558E-1,1.813466572E0,2.260217782E0
8.187157667E0,2.510404392E0,4.819965112E-1,1.535437315E0,2.981948792E0
8.197183667E0,3.480978456E0,2.759125650E-1,6.532424542E-1,3.552473006E0
8.207210667E0,3.690343274E0,2.220035756E-1,1.429771696E0,3.963857487E0
8.217237667E0,2.874908998E0,1.127827912E0,2.680006975E0,4.088952792E0
8.227264667E0,2.572554447E0,2.637889481E0,3.102181792E0,4.816640859E0
8.237291667E0,2.366231350E0,3.755197082E0,2.570962835E0,5.129367000E0
8.247317667E0,1.902865237E0,4.240406638E0,2.552324250E0,5.302480896E0
8.257344667E0,2.707013802E0,4.349437914E0,3.117715798E0,5.997139793E0
8.267371667E0,2.928982294E0,3.925375031E0,3.853972342E0,6.232223458E0
8.277398667E0,2.761082421E0,3.946560078E0,4.012922468E0,6.269167354E0
8.287425667E0,3.141371293E0,3.989275743E0,3.999525912E0,6.463647737E0
8.297452667E0,2.224242535E0,3.743120243E0,3.666145157E0,5.691996515E0
8.307478667E0,1.739352821E0,3.970993838E0,3.409750890E0,5.515481977E0
8.317505667E0,1.283545112E0,4.441024023E0,3.209562107E0,5.627741229E0
8.327532667E0,4.646665335E-1,4.969566125E0,2.861151962E0,5.753146357E0
8.337559667E0,-5.963107467E-2,5.653357649E0,2.053342747E0,6.015000001E0
8.347586667E0,-2.869714040E-1,6.649183499E0,1.149526345E0,6.753917722E0
8.357612667E0,-3.823666808E-1,7.840271852E0,4.889751631E-1,7.864805382E0
8.367639667E0,-4.955766696E-1,8.734421638E0,2.811750591E-2,8.748514627E0
8.377666667E0,-6.781109548E-1,9.039166238E0,-1.085342043E0,9.129311480E0
8.387693667E0,-1.117757252E0,9.041470041E0,-2.749273676E0,9.516095183E0
8.397720667E0,-1.545369103E0,8.774969739E0,-3.987591452E0,9.761615910E0
8.407746667E0,-2.061537912E0,7.684847597E0,-3.984133701E0,8.898322455E0
8.417773667E0,-4.582938870E0,5.172248746E0,-5.488449211E0,8.824883031E0
8.427800667E0,-1.252209649E1,-1.403766789E0,-1.821427790E1,2.214798820E1
8.437827667E0,-1.899703063E1,-1.602203981E1,-2.639921973E1,3.625619581E1
8.447854667E0,-7.092432851E0,-3.107647302E1,1.015040385E0,3.189169305E1
8.457881667E0,3.231534482E0,-3.566065267E1,2.244671011E1,4.226085373E1
8.467907667E0,7.535786868E0,-2.077304754E1,2.594298722E1,3.407852951E1
8.477934667E0,1.029037917E1,-5.806589198E-1,1.604611864E1,1.907110358E1
8.487961667E0,1.007979638E1,9.744946218E0,-8.202013357E0,1.624313070E1
8.497988667E0,1.499676563E1,1.307893503E1,-7.728208795E0,2.134682018E1
8.508015667E0,1.299206528E1,8.384973319E0,5.808381954E0,1.651783396E1
8.518041667E0,8.650219978E0,1.947649646E0,1.376835801E1,1.637642595E1
8.528069375E0,4.649717874E0,-3.069946677E0,1.543263696E1,1.640764250E1
8.538096375E0,6.075812548E-1,-7.240598372E0,1.211154828E1,1.412391665E1
8.548123375E0,-2.177534684E0,-8.948752497E0,2.601479161E0,9.570241500E0
8.558150375E0,-1.161486824E0,-1.064039233E1,-3.163528440E0,1.116131322E1
8.568177375E0,1.739043211E0,-1.308058394E1,-9.711520609E-1,1.323136742E1
8.578203375E0,3.839293199E0,-1.393202742E1,1.772955600E0,1.455970233E1
8.588230375E0,2.551679010E0,-9.847812774E0,2.386163923E0,1.044912726E1
8.598257375E0,2.073399282E-1,-5.076029304E0,2.264827766E0,5.562239490E0
8.608284375E0,6.135167634E-1,-1.669183018E0,1.731537141E0,2.482095009E0
8.618311375E0,1.771240320E0,1.148854499E0,1.960998255E0,2.881435942E0
8.628337375E0,2.376001024E0,3.243149391E0,2.009867091E0,4.494770802E0
8.638364375E0,2.347713949E0,4.813933709E0,6.835724004E-1,5.399350865E0
8.648391375E0,2.375474336E0,5.710017169E0,-4.930840015E-1,6.204055627E0
8.658418375E0,1.765572175E0,5.504874625E0,-1.065172146E0,5.878391059E0
8.668445375E0,9.596869867E-1,4.109896200E0,-8.869139294E-1,4.312639819E0
8.678471375E0,8.872727291E-1,2.723298590E0,-4.765422650E-1,2.903566882E0
8.688498375E0,1.164698992E0,1.462469911E0,-6.168227792E-1,1.968708288E0
8.698525375E0,1.510253503E0,5.416696858E-1,-1.011396400E0,1.896627104E0
8.708552375E0,1.437602434E0,2.204452926E-1,-1.304023815E0,1.953400879E0
8.718579375E0,1.143240149E0,2.699829036E-1,-1.460021682E0,1.873913583E0
8.728606375E0,8.070446911E-1,6.398374200E-1,-1.399670230E0,1.737754243E0
8.738632375E0,4.589017636E-1,1.157218357E0,-1.673987675E0,2.086139949E0
8.748659375E0,-9.069177657E-2,1.572335000E0,-2.248178405E0,2.744953276E0
8.758686375E0,-9.178731090E-1,2.075401953E0,-3.155459867E0,3.886735299E0
8.768713375E0,-1.526916168E0,2.359018809E0,-4.280599814E0,5.120544648E0
8.778740375E0,-1.501078199E0,2.162119085E0,-4.730274671E0,5.413270099E0
8.788766375E0,-7.908291927E-1,1.681831715E0,-4.469411670E0,4.840414177E0
8.798793375E0,7.871258587E-2,1.027610729E0,-3.787372556E0,3.925094949E0
8.808820375E0,6.003336310E-1,3.291467857E-1,-3.314718141E0,3.384685278E0
8.818847375E0,1.325315282E0,-3.314014721E-1,-2.804879528E0,3.119877673E0
8.828874375E0,1.871276093E0,-8.271360165E-1,-2.113243963E0,2.941365032E0
8.838900375E0,2.148177422E0,-1.193893847E0,-1.880697712E0,3.094684578E0
8.848927375E0,2.032362937E0,-1.607489630E0,-2.175373114E0,3.383307584E0
8.858954375E0,1.985924351E0,-1.251302980E0,-2.477529591E0,3.412888447E0
8.868981375E0,2.091767432E0,-4.551712400E-1,-4.303998032E0,4.806981476E0
8.879008375E0,1.675870332E0,1.495717764E-2,-6.734565126E0,6.939966320E0
8.889035375E0,1.128218214E0,2.462741983E-1,-8.672545817E0,8.749090139E0
8.899061375E0,9.872813129E-1,3.858238471E-1,-9.774531959E0,9.831839068E0
8.909088375E0,9.929595441E-1,6.483644146E-1,-9.375572342E0,9.450275224E0
8.919115375E0,1.024304128E0,8.294637930E-1,-7.610763960E0,7.724049274E0
8.929142375E0,1.475129718E0,2.539510077E-1,-4.694802538E0,4.927643419E0
8.939169375E0,2.512563184E0,-1.748159021E0,-1.081884731E0,3.246460886E0
8.949195375E0,4.202604389E0,-4.914739707E0,2.025551954E0,6.776386261E0
8.959222375E0,5.446079117E0,-6.942404407E0,3.832562762E0,9.620046467E0
8.969249375E0,5.738281440E0,-7.230792591E0,3.975425443E0,1.005068370E1
8.979276375E0,5.146632679E0,-7.192536598E0,3.942333711E0,9.683098973E0
8.989303375E0,3.008792110E0,-7.304332438E0,5.627767895E0,9.699374918E0
8.999330375E0,3.940926871E-1,-6.356435046E0,6.041719773E0,8.778493797E0
9.009356375E0,-1.991992152E0,-5.189345419E0,4.182147321E0,6.956126424E0
9.019383375E0,-7.099512659E0,-4.522784470E0,-2.194714973E0,8.699162786E0
9.029410375E0,-7.749960437E0,-4.288133951E0,-2.959411497E0,9.338527505E0
9.039437375E0,-2.484011522E0,-4.189354014E0,1.470838885E0,5.087668161E0
9.049464375E0,6.689778963E-1,-4.016560605E0,2.217713388E0,4.636652153E0
9.059490375E0,1.305026467E0,-3.364846905E0,1.281910961E0,3.829958810E0
9.069517375E0,2.285485687E0,-2.870494058E0,3.463329220E-1,3.685529468E0
9.079544375E0,2.406634294E0,-2.017756593E0,1.133156187E0,3.338753246E0
9.089571375E0,2.155184579E0,-1.311562631E0,2.851042418E0,3.807027709E0
9.099598375E0,1.595429017E0,-1.385217083E0,5.847578765E0,6.217587757E0
9.109624375E0,2.370583871E0,-1.580562617E0,5.998253911E0,6.640549379E0
9.119651375E0,2.687678522E0,-1.390681306E0,3.417617734E0,4.564835299E0
9.129678375E0,3.407280734E0,-1.273501350E0,2.692654502E0,4.525677403E0
9.139705375E0,3.824468461E0,-8.881154591E-1,1.140811362E0,4.088613291E0
9.149732375E0,3.292316581E0,-1.601131368E-1,2.168366250E0,3.945478029E0
9.159759375E0,3.805605344E0,5.612192667E-1,3.599377848E0,5.268123004E0
9.169785375E0,4.945561550E0,7.882912087E-1,3.738165020E0,6.249308745E0
9.179812375E0,5.539621704E0,5.173920465E-1,4.332826852E0,7.051843140E0
9.189839375E0,5.547820669E0,5.598241210E-1,4.212611899E0,6.988405844E0
9.199866375E0,5.404294914E0,6.718731451E-1,3.879245178E0,6.686281492E0
9.209893375E0,4.690951854E0,8.511119395E-1,3.636116781E0,5.995895769E0
9.219919375E0,3.574870706E0,9.765054792E-1,3.755563995E0,5.276127788E0
9.229946375E0,2.416620754E0,1.052026362E0,3.986454169E0,4.778978152E0
9.239973375E0,1.477227991E0,1.297854418E0,4.085101667E0,4.533727413E0
9.250000375E0,8.322748420E-1,1.688626179E0,3.733025610E0,4.180863546E0
9.260027375E0,6.771183899E-1,2.116982673E0,2.966003940E0,3.706384266E0
9.270054375E0,5.160164890E-1,2.497908892E0,2.153927428E0,3.338446527E0
9.280080375E0,-8.976850122E-2,2.854821181E0,1.591083512E0,3.269496766E0
9.290107375E0,-7.053858769E-1,3.014070684E0,1.293562562E0,3.354921076E0
9.300134375E0,-7.121098825E-1,2.872350549E0,1.639940507E0,3.383327213E0
9.310161375E0,-2.926323858E-1,2.537861162E0,2.210332594E0,3.378156771E0
9.320188375E0,1.220170650E-1,2.237125413E0,2.654979138E0,3.473979346E0
9.330214375E0,6.297249529E-1,2.034310645E0,2.980848852E0,3.663390942E0
9.340241375E0,1.070043973E0,1.889861614E0,3.033153950E0,3.730495129E0
9.350268375E0,1.346002146E0,1.792929981E0,2.693246241E0,3.504268113E0
9.360295375E0,1.367361148E0,1.812887113E0,2.197818383E0,3.160164843E0
9.370322375E0,1.477324762E0,1.960340443E0,1.586331188E0,2.922647728E0
9.380348375E0,1.441055361E0,2.253177774E0,8.515957966E-1,2.806896157E0
9.390375375E0,1.191615188E0,2.659711289E0,1.531122655E-1,2.918467794E0
9.400402375E0,8.967178828E-1,3.112526101E0,-3.104479748E-1,3.253966754E0
9.410429375E0,7.171238700E-1,3.548676934E0,-6.520092764E-1,3.678653384E0
9.420456375E0,5.103436665E-1,4.227554458E0,-9.091233355E-1,4.354213201E0
9.430483375E0,-1.447253117E-1,4.633198028E0,-1.925987467E0,5.019651093E0
9.440509375E0,-7.035179839E-2,4.668036908E0,-2.725474631E0,5.405897698E0
9.450536375E0,7.057092279E-2,4.645755508E0,-3.468599608E0,5.798207286E0
9.460563375E0,3.857595277E-1,4.226230649E0,-4.492243001E0,6.179812545E0
9.470590375E0,1.064888044E0,2.984567973E0,-6.319015204E0,7.069058331E0
9.480617375E0,1.513374893E0,9.225152135E-2,-1.021455248E1,1.032646582E1
9.490643375E0,1.394376307E0,-6.517536362E0,-1.789591923E1,1.909676649E1
9.500670375E0,1.693140814E0,-1.998032648E1,-2.727862927E1,3.385563154E1
9.510697375E0,9.340912971E0,-3.775558841E1,-1.846613619E1,4.305502639E1
9.520724375E0,1.615520664E1,-3.849072609E1,2.186389707E1,4.712278315E1
9.530751292E0,9.576405489E0,-9.493140553E0,4.481704622E1,4.680165480E1
9.540778292E0,1.341154366E0,1.246643217E1,3.547244015E1,3.762319280E1
9.550804292E0,-4.999927207E0,1.899349306E1,1.497735287E1,2.469965890E1
9.560831292E0,-1.376700496E1,1.903224022E1,-8.476191638E0,2.497203272E1
9.570858292E0,-2.117370343E1,1.716523596E1,-1.179933737E1,2.970177444E1
9.580885292E0,-1.828663252E1,1.107474105E1,-2.576765319E0,2.153347482E1
9.590912292E0,-1.220770691E1,1.685497334E0,1.088750385E1,1.644404906E1
9.600938292E0,-3.080960492E0,-2.525573823E0,1.505078221E1,1.556910035E1
9.610965292E0,1.739218628E0,-7.647810164E0,1.268196990E1,1.491127903E1
9.620992292E0,2.166638105E0,-9.106972890E0,1.083647052E1,1.431992909E1
9.631019292E0,3.946311279E0,-8.512765971E0,7.211102092E-1,9.410661886E0
9.641046292E0,6.596037571E0,-9.697737553E0,-6.363159928E0,1.334329905E1
9.651073292E0,4.397212590E0,-8.806181007E0,-2.302363090E-1,9.845674748E0
9.661099292E0,3.914084058E0,-6.735194871E0,5.312860833E0,9.429177812E0
9.671126292E0,5.909454001E0,-5.337861189E0,6.073927406E0,1.001533838E1
9.681153292E0,7.722993078E0,-4.970091205E0,4.207280992E0,1.010186329E1
9.691180292E0,7.956596360E0,-4.111629315E0,1.665725559E0,9.109750979E0
9.701207292E0,6.017920436E0,-3.157018150E0,1.876874363E-1,6.798334836E0
9.711233292E0,3.687499189E0,-2.354449210E0,9.290009451E-1,4.472597020E0
9.721260292E0,2.552355825E0,-1.308199312E0,1.516257863E0,3.244216948E0
9.731287292E0,2.004411200E0,-1.297824597E-1,9.483213151E-1,2.221220624E0
9.741314292E0,1.626240627E0,9.241044867E-1,-6.915373313E-1,1.994204493E0
9.751341292E0,1.162446937E0,1.814027320E0,-2.311826516E0,3.160145541E0
9.761368292E0,5.412497096E-1,2.514086384E0,-2.385155278E0,3.507498723E0
9.771394292E0,1.182850796E-1,3.281677279E0,-2.143541896E0,3.921500859E0
9.781421292E0,-4.403951798E-1,4.261757162E0,-2.726093559E0,5.078199298E0
9.791448292E0,-1.009992045E0,4.406013234E0,-3.364017770E0,5.634682964E0
9.801475292E0,-9.540042239E-1,3.725485041E0,-3.577768001E0,5.252598092E0
9.811502292E0,-1.033138686E-1,2.696973256E0,-4.277525348E0,5.057821824E0
9.821528292E0,9.131832035E-1,1.622529838E0,-4.850220945E0,5.195300747E0
9.831555292E0,2.003762013E0,8.229634434E-1,-4.928838513E0,5.383844363E0
9.841582292E0,2.995070742E0,2.741864669E-1,-3.888155749E0,4.915626318E0
9.851609292E0,3.506735440E0,4.597314835E-2,-2.230667163E0,4.156342499E0
9.861636292E0,4.173012215E0,1.241574383E-1,-9.185590605E-1,4.274715987E0
9.871662292E0,4.185927545E0,2.197535670E-1,-1.292334062E-1,4.193683622E0
9.881689292E0,3.521085092E0,5.172160453E-1,-3.767822975E-1,3.578759221E0
9.891716292E0,3.020491512E0,8.048552012E-1,-1.162474419E0,3.335042375E0
9.901743292E0,2.665329879E0,9.984337074E-1,-1.976114623E0,3.464950539E0
9.911770292E0,1.753244490E0,1.005529888E0,-3.019303942E0,3.633339083E0
9.921797292E0,6.988694474E-1,8.700399613E-1,-4.293870655E0,4.436520398E0
9.931823292E0,-9.609972015E-2,4.949907786E-1,-6.209261797E0,6.229701686E0
9.941850292E0,-3.833674318E-1,6.321600258E-2,-8.746275113E0,8.754901211E0
9.951877292E0,-4.508481011E-2,-3.133230507E-2,-1.112365184E1,1.112378733E1
9.961904292E0,1.092085198E0,-3.299963862E-1,-1.225100087E1,1.230400625E1
9.971931292E0,2.469953939E0,-1.183588130E0,-1.104543481E1,1.137994655E1
9.981958292E0,3.700463635E0,-2.945646567E0,-7.502422655E0,8.868856212E0
9.991984292E0,4.865453234E0,-5.004306187E0,-3.084733116E0,7.630943191E0
1.000201129E1,6.014530805E0,-7.702123196E0,1.187367624E0,9.844141629E0
1.001203829E1,6.414597300E0,-9.208426759E0,4.342634094E0,1.203331429E1
1.002206529E1,5.587696926E0,-8.303229244E0,6.258273743E0,1.180389610E1
1.003209229E1,6.284705789E-1,-6.468084120E0,5.290871794E0,8.380000704E0
1.004211829E1,-4.136423264E0,-5.711335132E0,2.621866940E0,7.523531927E0
1.005214529E1,-5.376558062E0,-6.198770723E0,1.784857900E0,8.397490863E0
1.006217229E1,-4.301274399E0,-7.083148057E0,1.959092063E0,8.515279770E0
1.007219929E1,-2.689054372E0,-7.271802038E0,9.235256124E-1,7.807881777E0
1.008222629E1,-1.321244889E0,-6.485549753E0,-3.363798646E-1,6.627306774E0
1.009225329E1,-1.848474437E-1,-6.101642039E0,-2.886665118E-1,6.111262758E0
1.010227929E1,6.087306713E-1,-6.124119905E0,2.632625525E-1,6.159927338E0
1.011230629E1,6.051942752E-1,-5.692167374E0,1.193295093E0,5.847305593E0
1.012233329E1,2.239256284E-1,-5.040107519E0,2.224578896E0,5.513762577E0
1.013236029E1,-3.125349922E-1,-4.830553835E0,3.878328334E0,6.202689670E0
1.014238729E1,7.656240387E-1,-4.625304871E0,5.083163491E0,6.915068792E0
1.015241329E1,2.489354416E0,-3.368149998E0,3.276152830E0,5.317376908E0
1.016244029E1,2.787724966E0,-2.255970989E0,1.697877498E0,3.967821013E0
1.017246729E1,1.716275323E0,-1.623133855E0,7.607087231E-1,2.481701485E0
1.018249429E1,1.385565869E0,-9.477465338E-1,1.613554654E0,2.328427558E0
1.019252129E1,2.002651773E0,-6.491192901E-1,2.765411114E0,3.475552993E0
1.020254829E1,2.299593557E0,-3.144047856E-2,3.509160866E0,4.195632135E0
1.021257429E1,1.417790751E0,8.304098725E-1,4.299128763E0,4.602414507E0
1.022260129E1,5.141408484E-1,1.718492002E0,5.036227891E0,5.346133832E0
1.023262829E1,3.332030723E-1,2.257381922E0,5.738122981E0,6.175180384E0
1.024265529E1,-5.901230769E-1,3.294394974E0,5.677080973E0,6.590184509E0
1.025268229E1,-8.944756948E-1,3.913153766E0,6.062517149E0,7.270967841E0
1.026270829E1,-9.181371839E-1,4.366253337E0,6.389066017E0,7.792772848E0
1.027273529E1,-1.117753306E0,5.170988086E0,6.642997729E0,8.492226390E0
1.028276229E1,-1.242383053E0,5.792924255E0,6.886228452E0,9.084141642E0
1.029278929E1,-1.848234116E0,5.649917148E0,6.277888813E0,8.645774753E0
1.030281629E1,-2.001468735E0,5.588992669E0,5.528713138E0,8.112298387E0
1.031284329E1,-1.233594541E0,5.676051863E0,5.541375868E0,8.027836991E0
1.032286929E1,-3.766511737E-1,5.840763250E0,5.101855870E0,7.764361839E0
1.033289629E1,5.572773662E-1,5.827063224E0,4.513971839E0,7.391966290E0
1.034292329E1,1.178428547E0,5.653332506E0,3.766614940E0,6.894653753E0
1.035295029E1,1.874384327E0,5.801890960E0,2.797014146E0,6.708095367E0
1.036297729E1,1.868163035E0,6.419017210E0,1.813686427E0,6.926995996E0
1.037300329E1,9.959619431E-1,7.053562900E0,1.319803696E0,7.244761664E0
1.038303029E1,3.887554948E-1,7.970003441E0,5.146710446E-1,7.996059778E0
1.039305729E1,-3.809558938E-1,8.674770098E0,-9.369864875E-1,8.733539221E0
1.040308429E1,-6.983892448E-1,8.483931012E0,-2.538915415E0,8.883182112E0
1.041311129E1,-8.079795147E-1,6.924065199E0,-3.967726707E0,8.021119934E0
1.042313829E1,-2.008188647E0,2.906457943E0,-7.256939585E0,8.071151811E0
1.043316429E1,-5.290442609E0,-5.362662154E0,-2.391825080E1,2.507647603E1
1.044319129E1,-9.965224864E0,-2.619966829E1,-4.530709903E1,5.327721415E1
1.045321829E1,-2.674881890E0,-4.503916557E1,-7.105689658E0,4.567463469E1
1.046324529E1,7.381872949E0,-3.297518790E1,4.998375356E1,6.033432427E1
1.047327229E1,6.956872757E0,-6.672230884E0,4.199709316E1,4.308912365E1
1.048329829E1,-2.100632542E0,6.981237520E0,2.122442920E1,2.244162938E1
1.049332529E1,-7.421796568E0,1.341419683E1,1.554758855E0,1.540912120E1
1.050335229E1,-9.088505629E0,1.824445070E1,-1.904685358E1,2.789701682E1
1.051337929E1,-1.763068543E0,1.326256099E1,-6.581009057E0,1.491018494E1
1.052340600E1,2.170958028E0,4.310486687E0,1.609694966E1,1.680491424E1
1.053343300E1,2.391408291E0,-8.804298788E-1,1.539329924E1,1.560280910E1
1.054345900E1,-4.473419644E-1,-6.496695131E0,1.134307679E1,1.307947069E1
1.055348600E1,-2.799504182E0,-1.059454197E1,5.688609928E0,1.234673342E1
1.056351300E1,3.608009800E-1,-1.217208567E1,-5.585973752E0,1.339749789E1
1.057354000E1,6.445322956E-1,-1.295701824E1,-3.087322555E0,1.333534042E1
1.058356700E1,3.375770089E-1,-1.160167341E1,1.835922219E0,1.175088910E1
1.059359300E1,1.924440732E0,-7.754619498E0,2.565192510E0,8.391531940E0
1.060362000E1,3.267198404E0,-4.783225302E0,1.748777071E0,6.050789283E0
1.061364700E1,3.843194754E0,-2.384617335E0,1.878264831E0,4.897389563E0
1.062367400E1,4.504518060E0,-9.509478843E-1,2.957366433E0,5.471837082E0
1.063370100E1,4.774421734E0,-8.586168408E-2,2.771539289E0,5.521223157E0
1.064372800E1,4.213993011E0,9.182245266E-1,1.736069902E0,4.649173269E0
1.065375400E1,2.658730419E0,1.536235460E0,5.438085973E-1,3.118428229E0
1.066378100E1,8.881094657E-1,1.632499341E0,-5.160737917E-2,1.859154604E0
1.067380800E1,2.096522827E-1,1.439376917E0,-2.914648796E-1,1.483479614E0
1.068383500E1,-7.507792007E-2,1.472275107E0,-5.665460436E-1,1.579305260E0
1.069386200E1,-1.237364388E-1,2.336785941E0,-5.403037763E-1,2.401625993E0
1.070388800E1,-2.965596682E-1,3.206407242E0,-2.979308403E-1,3.233845671E0
1.071391500E1,-4.542696359E-1,3.751259567E0,-6.182190943E-1,3.828903771E0
1.072394200E1,-5.454363891E-1,3.704577152E0,-1.567396442E0,4.059325601E0
1.073396900E1,-5.397111610E-1,2.987482225E0,-1.845512238E0,3.552781108E0
1.074399600E1,-6.217206994E-1,3.126423764E0,-1.937071449E0,3.730054688E0
1.075402300E1,-5.979693094E-1,3.660054113E0,-2.642602336E0,4.553779805E0
1.076404900E1,-6.156099936E-1,3.563597859E0,-3.234950425E0,4.852124237E0
1.077407600E1,-2.693463976E-1,2.867338901E0,-3.280493803E0,4.365297177E0
1.078410300E1,1.068909028E-1,2.356061872E0,-2.503981225E0,3.439821970E0
1.079413000E1,8.821633590E-1,2.068733788E0,-1.399507678E0,2.648866440E0
1.080415700E1,1.584112169E0,1.650782999E0,-2.855785972E-1,2.305656308E0
1.081418300E1,2.334956640E0,1.534615781E0,4.938774687E-1,2.837425428E0
1.082421000E1,2.792498926E0,2.254167123E0,7.360935532E-2,3.589531725E0
1.083423700E1,2.719033046E0,1.757608706E0,-6.406874590E-1,3.300425653E0
1.084426400E1,2.904856390E0,9.990201831E-1,-1.719276553E0,3.520247696E0
1.085429100E1,2.431189823E0,6.731987089E-1,-3.270036058E0,4.130014077E0
1.086431800E1,1.705526386E0,4.876390743E-1,-5.074858106E0,5.375946142E0
1.087434400E1,9.124670658E-1,4.880366850E-1,-7.055086684E0,7.130569688E0
1.088437100E1,1.742377440E-1,9.965877414E-1,-8.018339449E0,8.081912734E0
1.089439800E1,-5.271478334E-1,1.221771033E0,-7.034495714E0,7.159241528E0
1.090442500E1,-8.115086748E-1,1.412424177E0,-5.564792213E0,5.798310164E0
1.091445200E1,-1.021735520E0,1.687463753E0,-5.044837916E0,5.416813361E0
1.092447800E1,-5.250656399E-1,2.232282164E0,-4.770543861E0,5.293096099E0
1.093450500E1,1.179518833E0,1.466468237E0,-4.216823648E0,4.617726221E0
1.094453200E1,3.751731730E0,-1.307317552E0,-1.003386299E0,4.097725493E0
1.095455900E1,4.548691143E0,-5.167887892E0,1.996507811E0,7.168242450E0
1.096458600E1,6.345068643E0,-7.727037013E0,2.360153754E0,1.027313598E1
1.097461300E1,8.505048816E0,-1.170160116E1,3.164301442E0,1.480797517E1
1.098463900E1,4.657534724E0,-1.430028506E1,3.324941998E0,1.540279266E1
1.099466600E1,-2.274725641E0,-1.272152748E1,2.743223562E0,1.321124194E1
1.100469300E1,-7.164567026E0,-1.023275954E1,2.111917230E0,1.266888246E1
1.101472000E1,-8.879646009E0,-7.856832921E0,1.455650450E0,1.194557889E1
1.102474700E1,-5.228931069E0,-6.349867453E0,8.956320548E-1,8.274339465E0
1.103477400E1,-5.597641870E-1,-6.028499218E0,1.448561139E0,6.225308679E0
1.104480000E1,1.064107295E0,-6.095522343E0,1.568328342E0,6.383366726E0
1.105482700E1,1.487305375E0,-5.301375148E0,9.836232948E-1,5.593225413E0
1.106485400E1,1.993157064E0,-4.710228077E0,9.080608964E-1,5.194564295E0
1.107488100E1,1.871098776E0,-3.849272350E0,1.905804048E0,4.685082424E0
1.108490800E1,9.369745007E-1,-2.480612828E0,3.325907080E0,4.253588970E0
1.109493400E1,-4.602170947E-1,-2.434205232E0,4.348859625E0,5.004971021E0
1.110496100E1,-1.259706014E0,-2.236939471E0,5.440689154E0,6.015966747E0
1.111498800E1,-1.548353230E0,-1.121148638E0,7.003837008E0,7.260034768E0
1.112501500E1,-1.840754358E0,5.501165736E-1,6.386417813E0,6.669133177E0
1.113504200E1,-2.260138007E0,1.183630230E0,5.873005382E0,6.403233289E0
1.114506900E1,-1.889833840E0,1.614409225E0,5.092606745E0,5.666783263E0
1.115509500E1,-1.238322746E0,2.466992909E0,2.954853008E0,4.043594136E0
1.116512200E1,-1.515346574E0,1.733918127E0,2.362055561E0,3.298795808E0
1.117514900E1,-1.056509423E0,1.972977446E0,3.278529431E0,3.969585292E0
1.118517600E1,-1.591612101E-3,2.156911554E0,4.529866033E0,5.017166158E0
1.119520300E1,1.177537723E0,2.322670178E0,5.208321973E0,5.823058442E0
1.120522900E1,2.307405729E0,2.509834873E0,5.233419392E0,6.245964363E0
1.121525600E1,2.338256223E0,2.731062523E0,4.901028571E0,6.078340705E0
1.122528300E1,1.819027274E0,2.711730459E0,4.796952810E0,5.802852623E0
1.123531000E1,1.218324172E0,2.691409630E0,4.663605011E0,5.520616930E0
1.124533700E1,9.654668131E-1,2.681855865E0,4.930644718E0,5.695237869E0
1.125536400E1,1.518080440E0,2.982761183E0,5.372833385E0,6.329989817E0
1.126539000E1,1.653580600E0,3.179191377E0,5.491545897E0,6.557336574E0
1.127541700E1,6.466874331E-1,1.522155949E0,5.858767412E0,6.087718699E0
1.128544400E1,7.768505466E-1,1.390804097E0,5.607040100E0,5.828956295E0
1.129547100E1,-1.070826184E-1,1.417828758E0,5.039556127E0,5.236299364E0
1.130549800E1,-7.791873132E-1,1.422782519E0,4.562079805E0,4.841902014E0
1.131552400E1,-7.905662873E-1,1.674263663E0,4.591622570E0,4.950873832E0
1.132555100E1,-4.867864772E-1,1.343772603E0,4.186365794E0,4.423612149E0
1.133557800E1,-7.461829238E-2,7.150121480E-1,3.842984547E0,3.909647105E0
1.134560500E1,2.688125834E-2,-3.018870664E-1,4.036925288E0,4.048286574E0
1.135563200E1,-3.257331081E-1,-2.093128957E0,4.899957654E0,5.338246519E0
1.136565900E1,-2.680221129E-1,-3.017397165E0,3.544614581E0,4.662704583E0
1.137568500E1,-2.337251379E0,-4.379850453E0,-2.619744401E0,5.613278429E0
1.138571200E1,-5.066549213E0,-7.244579741E0,-1.248859078E1,1.530093972E1
1.139573900E1,-5.904790261E0,-9.872396808E0,-1.943510636E1,2.258437792E1
1.140576600E1,-4.349046151E0,-6.944763173E0,-2.980332835E0,8.719307413E0
1.141579300E1,-1.419668292E0,-1.598251029E0,1.837136686E1,1.849532332E1
1.142582000E1,-2.719753131E0,7.226094353E-1,1.594752289E1,1.619390959E1
1.143584600E1,-8.835291370E0,2.140390247E0,2.145838390E0,9.340678048E0
1.144587300E1,-1.988220318E1,3.901117857E0,-1.431657189E1,2.480896924E1
1.145590000E1,-1.278844535E1,5.481811452E0,-5.161428473E0,1.484031453E1
1.146592700E1,-1.345522090E0,6.210034214E0,-1.881814091E0,6.626928316E0
1.147595400E1,6.186212073E0,6.096530403E0,1.035983649E0,8.747008911E0
1.148598000E1,8.566991880E0,-1.607465656E0,6.640009217E0,1.095750967E1
1.149600700E1,1.141044023E1,-7.166293125E0,6.605568532E0,1.500624666E1
1.150603400E1,1.355076908E1,-7.901643058E0,6.126438911E0,1.684020663E1
1.151606100E1,1.226022309E1,-4.749904944E0,5.468463428E0,1.424004071E1
1.152608888E1,9.533941839E0,-1.046089684E0,5.385839932E0,1.099989193E1
1.153611588E1,5.863042896E0,-7.273445106E-1,4.038353763E0,7.156298145E0
1.154614187E1,3.246836937E0,1.093853835E0,4.201673512E0,5.421487491E0
1.155616887E1,2.142077168E0,3.168074065E0,3.767561020E0,5.368398636E0
1.156619587E1,-5.184436316E-1,3.761094584E0,-9.339134833E-1,3.909835120E0
1.157622287E1,-4.744532522E0,2.653556510E0,-5.502907037E0,7.735239935E0
1.158624988E1,-4.868697269E0,-9.880244941E-1,-5.109763353E-1,4.994146806E0
1.159627587E1,-3.915642341E0,-3.053673291E0,5.104544420E0,7.121344624E0
1.160630287E1,-3.693801610E0,-3.297930200E0,5.091177685E0,7.102154896E0
1.161632987E1,-1.824857825E0,-2.264163523E0,-2.278203857E0,3.694151507E0
1.162635687E1,2.012611628E-2,-1.293793527E0,-4.451687590E0,4.635928078E0
1.163638387E1,1.596991904E-1,-8.528175724E-1,-2.383336941E0,2.536354986E0
1.164641088E1,-5.810485636E-1,-7.532055759E-1,-2.082123473E0,2.289142685E0
1.165643687E1,-7.267612508E-1,-1.288174937E0,-3.597527497E0,3.889701875E0
1.166646387E1,8.622143403E-1,-4.755669129E-1,-2.877071006E0,3.040906942E0
1.167649087E1,3.331563677E0,1.167331701E0,-8.459131801E-1,3.630089385E0
1.168651787E1,4.430815661E0,2.665591249E0,1.427623429E0,5.364290521E0
1.169654487E1,3.068080831E0,2.880571150E0,3.424377408E0,5.425603263E0
1.170657088E1,1.410556869E0,8.529438722E-1,3.273029248E0,3.664683395E0
1.171659787E1,9.492294607E-1,-8.403331822E-1,2.780384957E0,3.055771087E0
1.172662487E1,8.491966841E-1,-9.479225349E-1,2.060479274E0,2.421831327E0
1.173665187E1,5.678116369E-1,-8.939281762E-2,1.084410582E0,1.227333467E0
1.174667887E1,9.930089530E-1,-6.719760561E-1,-8.848123670E-2,1.202267662E0
1.175670587E1,2.967237411E0,-1.873150856E0,-7.909283030E-1,3.597048729E0
1.176673188E1,2.162415538E0,8.991953480E-1,-1.378184052E0,2.717348803E0
1.177675887E1,1.361191897E0,1.342508435E0,-2.987617296E0,3.546974680E0
1.178678587E1,-3.906602984E-1,2.841238099E-1,-2.828534439E0,2.869485821E0
1.179681287E1,-7.956227401E-1,-2.041577564E0,-2.916954864E0,3.648243437E0
1.180683987E1,-1.435632068E0,-1.140603493E0,-1.400250274E0,2.307101340E0
1.181686687E1,-1.924423775E0,-1.613963667E0,3.878504555E-1,2.541399921E0
1.182689288E1,-9.381948146E-1,-2.936593323E0,1.420227871E0,3.394235858E0
1.183691988E1,1.775743407E0,-3.703301874E0,8.626572669E-1,4.196651877E0
1.184694687E1,4.826111705E0,-4.992093108E0,1.467530530E-2,6.943526709E0
1.185697387E1,6.081402487E0,-6.030527033E0,6.763240457E-1,8.591165620E0
1.186700087E1,6.121536021E0,-7.589194166E0,1.025979356E0,9.804167735E0
1.187702687E1,5.016611652E0,-9.619111798E0,8.054820228E-1,1.087853416E1
1.188705388E1,3.789239864E0,-1.111476875E1,-3.377472360E-2,1.174297934E1
1.189708088E1,2.285054455E0,-1.035690645E1,2.784818133E-1,1.060964360E1
1.190710787E1,1.660742562E0,-1.046124417E1,-2.030106497E-1,1.059419222E1
1.191713487E1,2.088048896E0,-1.018488605E1,-1.339790064E0,1.048269476E1
1.192716187E1,3.742660652E0,-7.859816755E0,1.182868338E-1,8.706217316E0
1.193718787E1,2.848508820E0,-7.784650798E0,1.010776010E0,8.350835807E0
1.194721488E1,3.387635259E0,-6.291014643E0,1.359775482E-1,7.146427623E0
1.195724188E1,2.982123252E0,-3.295529333E0,1.161626573E0,4.593794616E0
1.196726887E1,5.737972122E-1,-2.893253176E0,1.961639110E0,3.542341764E0
1.197729587E1,-8.350665951E-1,-2.401409953E0,1.874479198E0,3.158762138E0
1.198732287E1,-4.490054972E0,-3.250450809E0,-2.709155930E0,6.169728517E0
1.199734887E1,-5.004199768E0,-9.241641283E-1,-7.477762900E-1,5.143468094E0
1.200737588E1,-6.513233981E0,-7.680832314E-1,-4.117307546E0,7.743667746E0
1.201740288E1,-4.527903999E0,1.697795198E0,-2.339058754E0,5.371742642E0
1.202742987E1,-7.433117362E0,4.874344218E0,-5.824565001E-1,8.907846027E0
1.203745687E1,-3.641065280E0,5.859831605E0,-4.783835459E0,8.395240587E0
1.204748287E1,7.849464844E0,6.706075737E0,-8.603573815E0,1.343901159E1
1.205750987E1,1.610278284E1,9.164477917E0,-1.438276822E1,2.345530414E1
1.206753687E1,1.076989295E1,1.108855802E1,-9.118249830E0,1.794684354E1
1.207756388E1,9.661231631E0,1.030842485E1,-6.300840304E0,1.546944110E1
1.208759087E1,1.013646642E1,7.470593922E0,-4.798749367E0,1.347537460E1
1.209761787E1,7.471351136E0,7.095087487E0,-2.971664630E0,1.072343904E1
1.210764387E1,4.232777191E0,7.251281235E0,-9.784295055E-1,8.453094498E0
1.211767087E1,2.722410983E0,6.457136378E0,9.338786924E-1,7.069530478E0
1.212769787E1,2.440571680E0,5.392007575E0,3.128089051E0,6.694406391E0
1.213772488E1,3.140224947E0,4.687685307E0,5.616688006E0,7.961318384E0
1.214775187E1,4.010504644E0,3.919566407E0,8.303553765E0,1.001978809E1
1.215777787E1,4.584834538E0,2.901341629E0,1.094148067E1,1.221288214E1
1.216780487E1,5.112870855E0,9.861165476E-1,1.262944787E1,1.366077698E1
1.217783187E1,5.543369184E0,-1.485147752E0,1.290192578E1,1.412070446E1
1.218785887E1,5.047425894E0,-3.726912931E0,1.166524434E1,1.324553939E1
1.219788588E1,3.487915007E0,-5.343020772E0,9.304011194E0,1.128175724E1
1.220791287E1,1.028742750E0,-5.839579774E0,6.307542967E0,8.657026156E0
1.221793887E1,-3.157880614E0,-5.252798819E0,3.399995688E0,7.008856974E0
1.222796587E1,-7.122566476E0,-4.845915640E0,1.039233239E0,8.677203313E0
1.223799287E1,-8.467687447E0,-5.398726026E0,7.320871872E-1,1.006895849E1
1.224801987E1,-7.608789355E0,-6.137374374E0,2.389826034E0,1.006341434E1
1.225804688E1,-6.441665230E0,-6.510942457E0,3.621825601E0,9.849113833E0
1.226807387E1,-5.641157434E0,-6.469821328E0,3.211969113E0,9.165041778E0
1.227809987E1,-4.393752792E0,-5.813713446E0,2.261335809E0,7.630069939E0
1.228812687E1,-2.909361670E0,-5.387632688E0,1.650071393E0,6.341427829E0
1.229815387E1,-2.431420788E0,-4.906895083E0,1.267697988E0,5.621075038E0
1.230818087E1,-2.630407676E0,-4.826573343E0,4.439820081E-1,5.514705323E0
1.231820788E1,-2.760992374E0,-4.435559800E0,-7.247331440E-1,5.274704518E0
1.232823387E1,-2.951174232E0,-3.998930081E0,-2.001729375E0,5.357965251E0
1.233826087E1,-3.182950552E0,-4.118757948E0,-2.908040199E0,5.962553065E0
1.234828787E1,-2.970673527E0,-4.313505897E0,-2.936593907E0,6.004566438E0
1.235831487E1,-1.833126665E0,-4.335379746E0,-2.263982259E0,5.223168252E0
1.236834187E1,-5.972375304E-2,-4.570780170E0,-1.555383922E0,4.828541957E0
1.237836888E1,2.241000947E0,-5.404967344E0,-5.436296725E-1,5.876333079E0
1.238839487E1,2.643631154E0,-4.813230289E0,1.695096123E-1,5.494060885E0
1.239842187E1,2.893674760E0,-4.319997768E0,-1.781319165E-1,5.202640225E0
1.240844887E1,3.196902008E0,-4.270848997E0,-8.437146270E-1,5.401128399E0
1.241847587E1,3.166509935E0,-4.287198982E0,-1.269814095E0,5.478986048E0
1.242850287E1,2.915577260E0,-4.211199211E0,-1.444834709E0,5.321873438E0
1.243852988E1,2.508544977E0,-4.090688682E0,-1.601445948E0,5.058770692E0
1.244855587E1,2.034905307E0,-4.149608735E0,-1.744573508E0,4.940002934E0
1.245858287E1,1.921533350E0,-3.941265424E0,-1.524474370E0,4.642185441E0
1.246860987E1,1.766042730E0,-3.584519196E0,-9.961614794E-1,4.118254786E0
1.247863687E1,2.605618990E0,-3.694949711E0,6.060802746E-1,4.561714260E0
1.248866387E1,2.768480026E0,-3.736221113E0,2.007777734E0,5.065076632E0
1.249868988E1,-1.366610219E0,-3.337154492E0,-7.193560445E-1,3.677185978E0
1.250871687E1,-1.220503210E-1,-3.278649591E0,-2.501187426E-1,3.290440519E0
1.251874387E1,1.364869503E-1,-2.701832292E0,-7.451598072E-1,2.806027363E0
1.252877037E1,4.091402773E-1,-2.324323770E0,-7.611671448E-1,2.479768574E0
1.253879737E1,3.929244134E-1,-2.008376489E0,-5.949261260E-1,2.131174046E0
1.254882437E1,2.211670583E-1,-1.801882653E0,-5.424122822E-1,1.894705003E0
1.255885038E1,1.483333361E-1,-1.946505346E0,-1.102390185E0,2.241907661E0
1.256887737E1,-8.644786745E-2,-1.930359430E0,-1.448938869E0,2.415198669E0
1.257890437E1,-3.001904967E-1,-1.951197737E0,-1.370877371E0,2.403454120E0
1.258893137E1,-1.480126163E-1,-2.148530740E0,-1.017636548E0,2.381947989E0
1.259895837E1,5.908542712E-1,-2.242776747E0,-6.664486831E-1,2.413153570E0
1.260898537E1,1.334322917E0,-2.009658784E0,-6.334896827E-1,2.494084051E0
1.261901138E1,1.940824338E0,-1.629592690E0,-9.386003190E-1,2.702469612E0
1.262903837E1,2.561176935E0,-1.182865414E0,-1.429571722E0,3.162668681E0
1.263906537E1,2.583843666E0,-7.982490170E-1,-1.285347809E0,2.994255930E0
1.264909237E1,1.633805609E0,-7.716359997E-1,-1.505380288E0,2.351789254E0
1.265911937E1,7.018103045E-1,-9.798325449E-1,-1.878331490E0,2.231756865E0
1.266914537E1,1.828721081E-1,-1.309492716E0,-1.729364315E0,2.176904756E0
1.267917238E1,-1.424580538E-1,-1.352384382E0,-1.438799797E0,1.979743082E0
1.268919937E1,-3.556203470E-1,-1.125953879E0,-7.964404732E-1,1.424273638E0
1.269922637E1,-6.131836183E-1,-1.099992242E0,-3.348343724E-1,1.303108261E0
1.270925337E1,-8.767132424E-1,-1.246618191E0,-2.297107905E-1,1.541249516E0
1.271928037E1,-9.471482174E-1,-1.223232837E0,-2.755003363E-1,1.571397071E0
1.272930637E1,-6.297658834E-1,-1.092241758E0,-3.743826002E-1,1.315203200E0
1.273933338E1,-1.232274386E-1,-9.280776697E-1,-2.335910028E-1,9.649237894E-1
1.274936037E1,1.670568515E-1,-7.641872317E-1,4.097494841E-2,7.833064937E-1
1.275938737E1,1.861360238E-1,-6.572773254E-1,2.545170182E-1,7.289986381E-1
1.276941437E1,5.343901947E-2,-6.417208081E-1,4.081374067E-1,7.623893147E-1
1.277944037E1,-1.339988869E-1,-6.499396545E-1,3.956044847E-1,7.725801994E-1
1.278946737E1,-4.135424267E-1,-6.363255823E-1,2.533282793E-1,8.000642489E-1
1.279949438E1,-4.677244811E-1,-5.100730866E-1,3.063870835E-1,7.568446266E-1
1.280952137E1,-2.610337400E-1,-4.217047012E-1,4.554723716E-1,6.733710342E-1
1.281954837E1,-5.136369646E-2,-3.522444570E-1,4.713990176E-1,5.907041735E-1
1.282957537E1,2.450405820E-1,-2.753746212E-1,3.034681535E-1,4.774609816E-1
1.283960137E1,2.276268429E-1,-1.845843190E-1,9.221059084E-3,2.932070571E-1
1.284962837E1,6.439026967E-2,-1.112479556E-1,-1.772688675E-1,2.189668144E-1
1.285965538E1,1.547123560E-1,-6.793061256E-2,9.989850998E-2,1.962910939E-1
1.286968237E1,3.771395624E-2,-4.266479373E-2,7.705554342E-1,7.726566536E-1
1.287970937E1,-2.847567710E-1,-1.296701932E-1,1.343330553E0,1.379288858E0
1.288973637E1,-5.656011701E-1,-2.070756340E-1,1.180176864E0,1.324991484E0
1.289976237E1,-4.845999840E-1,-1.599909300E-1,4.672849166E-1,6.919461218E-1
1.290978937E1,4.980044335E-1,1.242545021E-1,-3.803221434E0,3.837699945E0
1.291981638E1,1.639148794E0,1.645412332E-1,-8.122472513E-1,1.836743908E0
1.292984337E1,1.478147612E0,1.322570014E-1,1.158683084E0,1.882806088E0
1.293987037E1,6.806821217E-1,2.499982899E-1,1.616034751E0,1.771269492E0
1.294989637E1,4.241277874E-1,1.067111009E-1,1.665379404E0,1.721847902E0
1.295992337E1,4.993510473E-1,1.419394058E-1,1.867681371E0,1.938487030E0
1.296995037E1,6.524643360E-1,2.706810611E-1,1.569171656E0,1.720836318E0
1.297997738E1,9.067072660E-1,3.478707397E-1,7.590773499E-1,1.232611269E0