"Time (s)","Linear Acceleration x (m/s^2)","Linear Acceleration y (m/s^2)","Linear Acceleration z (m/s^2)","Absolute acceleration (m/s^2)"
1.005529158E-2,-9.771130049E-1,3.281048119E-1,-2.806047217E0,2.989365079E0
2.008129167E-2,-4.686455637E-2,6.795289046E-1,-3.330129647E0,3.399076240E0
3.010829166E-2,2.262160559E-1,9.734967944E-1,-3.048583290E0,3.208228450E0
4.013429163E-2,-8.463390036E-1,1.175059381E0,-1.680056500E0,2.218027074E0
5.016129161E-2,-2.652226269E0,1.456333551E0,6.361688769E-1,3.091912423E0
6.018729159E-2,-2.655051643E0,4.678564820E-1,2.106126148E0,3.421104539E0
7.021429169E-2,-1.212002601E0,-1.200019975E0,2.479111263E0,3.009151193E0
8.024029166E-2,1.410140839E0,-2.081452359E0,3.193555062E0,4.064447692E0
9.026729164E-2,3.957659555E0,-2.957831579E0,2.705903708E0,5.633271846E0
1.002932916E-1,4.489543341E0,-3.759850004E0,1.908717130E0,6.159194148E0
1.103202916E-1,4.430349931E0,-3.311734599E0,1.229706289E0,5.666371336E0
1.203462916E-1,4.215872599E0,-1.870623105E0,-5.905155712E-1,4.649894752E0
1.303732917E-1,8.430165426E-1,-4.115532039E-1,-1.120082105E0,1.461039648E0
1.403992916E-1,-1.611022225E0,4.532412203E-1,-1.762478852E0,2.430463313E0
1.504262916E-1,-5.072335325E-1,1.256996414E0,-3.325917898E0,3.591525540E0
1.604522916E-1,9.504349373E-2,1.448886683E0,-3.821834875E0,4.088364918E0
1.704792916E-1,-9.037536181E-1,1.134655121E0,-3.234255776E0,3.544661235E0
1.805052917E-1,-1.264654659E0,6.465548475E-1,-2.128544372E0,2.558922766E0
1.905322917E-1,2.646807946E-2,3.057501756E-1,-6.897206014E-1,7.549160464E-1
2.005582916E-1,8.079195077E-1,4.845159303E-1,1.500013713E0,1.771307641E0
2.105852916E-1,6.509591896E-1,6.023576447E-1,2.742385656E0,2.882232067E0
2.206112916E-1,-4.441887072E-1,6.033756450E-2,2.700808445E0,2.737756469E0
2.306382916E-1,-1.688131797E0,-4.864832991E-1,1.885188519E0,2.576895558E0
2.406642917E-1,-1.399867574E0,-6.062460431E-1,9.737695670E-1,1.809804039E0
2.506912916E-1,9.778006375E-3,-5.907326491E-1,7.832169950E-2,5.959823494E-1
2.607182916E-1,9.817473619E-1,6.053139970E-1,-4.019913983E-1,1.221404929E0
2.707442916E-1,1.141152693E0,1.988843719E0,-1.063165308E0,2.527459056E0
2.807712916E-1,1.190929163E0,1.983240625E0,-1.493268365E0,2.753435319E0
2.907972917E-1,1.408720989E0,4.141914676E-1,4.650957191E-1,1.540247845E0
3.008242917E-1,1.113535709E0,-9.258519271E-1,-2.594272175E0,2.971096041E0
3.108502916E-1,1.752260111E0,-1.862393441E0,-3.058998351E0,3.987028434E0
3.208772916E-1,1.375575316E0,-2.840033281E0,-2.241590347E0,3.870752352E0
3.309032916E-1,9.238618273E-1,-4.180160437E0,-2.272561879E0,4.846833961E0
3.409302917E-1,-6.608572247E0,-4.348085454E0,-3.242010353E0,8.549251744E0
3.509562917E-1,-9.777261440E0,-3.646821571E0,-5.224517006E0,1.167003542E1
3.609832916E-1,-5.787212695E0,-5.588018523E0,-4.750194381E0,9.342490484E0
3.710092916E-1,-2.621331043E0,-6.813277420E0,-5.061975521E0,8.883452134E0
3.810362916E-1,-1.773141834E0,-5.178928020E0,-5.582488811E0,7.818536227E0
3.910622916E-1,-1.199793103E0,-3.649461882E0,-4.878237879E0,6.209289840E0
4.010892917E-1,-1.267093971E0,-3.801770155E0,-4.289023898E0,5.869813407E0
4.111152916E-1,-1.714817027E0,-5.344436967E0,-3.476421136E0,6.602204772E0
4.211422916E-1,-2.099969029E0,-6.402150916E0,-2.373716955E0,7.143664218E0
4.311682916E-1,-3.273686475E0,-7.374862137E0,-1.861074602E0,8.280652955E0
4.411952916E-1,-4.516387031E0,-8.498144424E0,-3.015982724E0,1.008525469E1
4.512212917E-1,-4.716043133E0,-8.908562829E0,-3.219469922E0,1.058151885E1
4.612482917E-1,-3.556123948E0,-8.809949538E0,-2.690863500E0,9.874308824E0
4.712752916E-1,-3.545152232E0,-8.412859275E0,-1.895087855E0,9.323929618E0
4.813012916E-1,-2.110123889E0,-7.479306273E0,-3.776713666E-1,7.780442199E0
4.913282916E-1,2.444978142E-1,-6.040253291E0,1.386965400E-1,6.046790532E0
5.013542917E-1,8.802258110E-1,-5.773453612E0,-1.508990943E-2,5.840187650E0
5.113812917E-1,7.234338927E-1,-6.617180518E0,6.835126126E-1,6.691608483E0
5.214072916E-1,1.552319981E0,-6.723066577E0,2.141826615E0,7.224731328E0
5.314342916E-1,3.454378887E0,-5.788881490E0,3.317802547E0,7.513434377E0
5.414602916E-1,6.215680870E0,-4.918976600E0,4.304828922E0,9.020120371E0
5.514872916E-1,8.817479582E0,-3.805381688E0,5.301262296E0,1.096960610E1
5.615132917E-1,1.021894023E1,-2.867037477E0,4.726344173E0,1.161830334E1
5.715402917E-1,1.016913131E1,-2.953847871E0,3.546688880E0,1.116760721E1
5.815662916E-1,9.631899658E0,-2.536798431E0,1.959464823E0,1.015127281E1
5.915932916E-1,9.608351752E0,-2.171503866E0,7.898553389E-1,9.882293452E0
6.016192916E-1,1.020461923E1,-1.479035658E0,6.903509313E-1,1.033433038E1
6.116462917E-1,1.158248402E1,-5.015987170E-1,1.173552554E0,1.165258611E1
6.216722917E-1,1.296664510E1,2.461391276E-1,2.403138098E0,1.318975141E1
6.316988333E-1,1.312431644E1,6.022281289E-1,1.517192248E0,1.322543886E1
6.417248333E-1,1.246624272E1,6.298299104E-1,1.703119673E0,1.259779782E1
6.517518333E-1,1.225192823E1,3.851578492E-1,1.994718563E0,1.241921874E1
6.617778332E-1,1.295404903E1,7.876398289E-1,2.450848746E-1,1.298028618E1
6.718048333E-1,1.626685103E1,3.001407954E0,-1.305821249E1,2.107452979E1
6.818308333E-1,1.438011008E1,5.089515322E0,-2.100090184E1,2.595628267E1
6.918578333E-1,1.009478864E1,1.521621514E0,-3.558433598E0,1.081122284E1
7.018838333E-1,5.616718411E0,-2.309528561E0,7.809953454E-1,6.123022262E0
7.119108333E-1,3.731014168E0,-2.383605182E0,3.084615002E0,5.396006866E0
7.219368333E-1,3.829329252E0,-9.189074814E-2,2.005211976E0,4.323549641E0
7.319638333E-1,4.909093051E0,1.400309916E0,4.015397009E-1,5.120673449E0
7.419908333E-1,4.906557114E0,3.394527372E0,-1.101342072E-1,5.967348518E0
7.520168333E-1,3.327310120E0,4.215256594E0,3.719453053E0,6.532511906E0
7.620438333E-1,-2.259761154E0,5.476354830E0,-9.163896704E-1,5.994727077E0
7.720698332E-1,-3.871022238E0,4.065394796E0,-5.403294455E0,7.791523534E0
7.820968333E-1,-2.803514203E0,2.216600516E0,1.562550708E0,3.900586424E0
7.921228333E-1,-4.179613722E0,2.858412541E0,1.488240929E0,5.277741390E0
8.021498333E-1,-7.965416300E0,2.306673950E0,-3.724888040E0,9.090841130E0
8.121758333E-1,-6.540041710E0,1.491238797E-1,-3.218710953E0,7.290712153E0
8.222028333E-1,-6.311227883E0,-4.251335084E-2,-5.827254720E-1,6.338215344E0
8.322288333E-1,-5.419854355E0,6.475779641E-1,5.561011988E-1,5.486659001E0
8.422558333E-1,-3.646189195E0,1.579945736E0,2.372846889E-1,3.980857721E0
8.522818333E-1,-2.595793621E0,2.769972820E0,-1.250630258E-1,3.798227837E0
8.623088333E-1,-2.172173957E0,3.753142371E0,-5.353412443E-1,4.369325760E0
8.723348333E-1,-2.375977489E0,4.559069366E0,-1.971534938E-1,5.144827695E0
8.823618332E-1,-2.228537022E0,4.839622282E0,-6.706019604E-1,5.370105034E0
8.923878333E-1,-1.607420633E0,4.641135038E0,-1.366229419E0,5.098089677E0
9.024148333E-1,-2.096644303E0,2.816802000E0,-2.794586674E0,4.487761749E0
9.124408333E-1,-3.679581474E0,3.626285273E-1,-3.794639475E0,5.298123066E0
9.224678333E-1,-5.594262180E0,-1.647672865E0,-1.249533467E0,5.964220745E0
9.324938332E-1,-7.534932590E0,-1.020181257E0,9.497608995E-1,7.662768735E0
9.425208333E-1,-6.988392758E0,-5.093421847E-1,2.058082062E0,7.302928493E0
9.525468333E-1,-5.218809539E0,1.699382132E-1,2.865796990E0,5.956311307E0
9.625738333E-1,-1.238670655E0,5.128452516E-1,3.399341385E0,3.654153403E0
9.725998333E-1,7.810131794E-1,1.137048386E0,-3.001984636E-1,1.411729343E0
9.826268333E-1,4.569209023E0,2.157325537E0,-6.175250298E-1,5.090487377E0
9.926538334E-1,7.261350140E0,1.401136712E0,-3.573613189E-1,7.403924436E0
1.002679833E0,3.795677941E0,1.228385403E0,-3.838137497E0,5.536009499E0
1.012706833E0,2.739807034E0,1.330736235E0,-1.313637223E0,3.317083699E0
1.022732833E0,4.063625429E0,1.741579149E0,-1.169934881E0,4.573280790E0
1.032759833E0,4.296177966E0,1.616194965E0,-2.470408852E0,5.212691356E0
1.042785833E0,9.267892942E0,-5.895256376E-1,-2.181495588E0,9.539407899E0
1.052812833E0,9.926347897E0,-1.184397385E0,-2.039578986E-1,9.998838861E0
1.062838833E0,8.246276779E0,2.687555730E-1,6.695272422E-1,8.277776091E0
1.072865833E0,5.016311690E0,9.161101735E-1,1.091932367E0,5.214878437E0
1.082891833E0,2.295313395E0,2.250619617E0,5.685692167E-1,3.264509641E0
1.092918833E0,-6.365869528E-1,3.520361792E0,-5.377684236E-2,3.577859981E0
1.102944833E0,-3.270991493E0,3.975796741E0,4.343709397E-1,5.166722674E0
1.112971833E0,-5.034310005E0,3.596204857E0,8.822699976E-1,6.249429329E0
1.122997833E0,-5.568801064E0,3.227460726E0,1.046311294E0,6.520952028E0
1.133024833E0,-5.486371695E0,2.880700958E0,1.102265639E0,6.293941684E0
1.143050833E0,-5.166105661E0,2.955523099E0,1.674509246E0,6.182859023E0
1.153077833E0,-4.615379223E0,3.224206751E0,1.036615441E0,5.724666463E0
1.163103833E0,-3.825542595E0,3.494708887E0,-1.716418580E0,5.458375133E0
1.173130833E0,-3.552799221E0,4.517896782E0,-7.463267287E-2,5.747986054E0
1.183156833E0,-2.992650287E0,5.309246669E0,1.044568824E0,6.183460193E0
1.193183833E0,-2.411438659E0,5.882188434E0,5.080973125E-1,6.377565371E0
1.203209833E0,-2.117223286E0,6.427386330E0,4.371027589E-1,6.781223215E0
1.213236833E0,-2.086292977E0,5.850673111E0,5.877679646E-2,6.211799172E0
1.223262833E0,-2.717313965E0,2.486406249E0,-3.177757420E-1,3.696889590E0
1.233289833E0,-4.880561270E-1,5.105492839E0,9.120136142E-1,5.209224965E0
1.243315833E0,-5.722447765E-1,7.596941727E0,3.756245488E0,8.494137263E0
1.253342833E0,-1.529151412E0,7.258966230E0,4.252274732E0,8.550598527E0
1.263368833E0,-1.256241539E0,6.883163926E0,1.711111647E0,7.203054318E0
1.273395833E0,-1.116577357E0,6.185816801E0,-4.148503026E0,7.531344624E0
1.283421833E0,-5.513325021E-1,5.823453737E0,-4.025264186E-1,5.863327424E0
1.293448833E0,-3.592802947E0,-1.457239810E1,5.561035377E-1,1.501906358E1
1.303475833E0,-1.162658957E1,-5.758619576E1,-2.838200471E0,5.881668904E1
1.313501833E0,-2.029087327E0,-5.692544636E1,1.419714485E0,5.697928771E1
1.323528833E0,1.321919336E1,-2.990979445E1,-2.577164392E0,3.280220501E1
1.333554833E0,1.301089566E1,-1.020780245E1,8.652382278E-1,1.655992977E1
1.343581833E0,8.244727267E0,3.304027677E-2,4.352431104E0,9.323104412E0
1.353607833E0,3.440987594E0,6.164163977E0,4.994336100E0,8.647583838E0
1.363634833E0,-9.648740517E-1,1.015126222E1,1.970948462E0,1.038574717E1
1.373660833E0,-2.436336834E0,1.125802086E1,-2.533979196E0,1.179405873E1
1.383687833E0,-2.550790233E0,1.053048690E1,-2.550346137E0,1.113112530E1
1.393713833E0,-2.469592581E0,8.591284722E0,-2.968502748E-1,8.944114309E0
1.403740833E0,-2.716448577E0,5.755695033E0,1.028227025E0,6.447043431E0
1.413766833E0,-3.758386738E0,7.808371782E-3,8.515498960E-1,3.853656584E0
1.423793833E0,-5.073335491E0,-7.122347791E0,2.439575315E-1,8.747918972E0
1.433819833E0,-4.303679359E0,-8.650859079E0,2.081181926E-1,9.664488192E0
1.443846833E0,-1.175864104E0,-4.448473960E0,6.943744004E-1,4.653357151E0
1.453872833E0,-2.477392182E-1,-1.028399518E0,5.603638190E-1,1.197074726E0
1.463899833E0,-1.262413859E-1,6.344866329E-1,-3.872552454E-1,7.539740049E-1
1.473925833E0,-2.836909698E-1,1.569834146E0,-7.128305519E-1,1.747279945E0
1.483952833E0,-3.733852114E-1,1.463487327E0,-4.973431500E-1,1.590145239E0
1.493978833E0,-7.744388625E-2,6.902877814E-1,-1.576608511E-1,7.122862631E-1
1.504005833E0,4.328905709E-1,1.365324855E-3,3.099065226E-1,5.323891089E-1
1.514031833E0,7.157180531E-1,-3.275662833E-1,5.156764003E-1,9.409963610E-1
1.524058833E0,7.433154492E-1,-4.452245414E-1,2.498514883E-1,9.017585683E-1
1.534084833E0,5.934523353E-1,-3.564222926E-1,-2.494334489E-1,7.358257745E-1
1.544111833E0,4.495820327E-1,-1.796802592E-1,-7.038907439E-1,8.543249844E-1
1.554138833E0,3.912586878E-1,-3.978094697E-2,-1.092862147E0,1.161470429E0
1.564164833E0,4.042178719E-1,1.739546657E-2,-1.333064012E0,1.393109597E0
1.574191833E0,5.138736306E-1,8.990152538E-2,-1.285562401E0,1.387378492E0
1.584217833E0,6.189478035E-1,1.024595904E-1,-1.219442087E0,1.371361861E0
1.594244833E0,6.667406054E-1,6.764059067E-3,-1.260761436E0,1.426221647E0
1.604270833E0,6.925450990E-1,-1.808076024E-1,-1.269940980E0,1.457758621E0
1.614297833E0,7.388439372E-1,-3.824324620E-1,-1.198237159E0,1.458738236E0
1.624323833E0,7.549305046E-1,-5.527641928E-1,-1.096900234E0,1.441755334E0
1.634350792E0,7.051395629E-1,-4.731280392E-1,-1.057668926E0,1.356368497E0
1.644376792E0,5.821115144E-1,-2.298370904E-1,-1.139524682E0,1.300075153E0
1.654403792E0,4.038335636E-1,-1.171431184E-1,-1.373358344E0,1.436285905E0
1.664429792E0,2.452389488E-1,-2.437745136E-1,-1.651370645E0,1.687184981E0
1.674456792E0,1.058769956E-1,-4.472804224E-1,-1.901074235E0,1.955850956E0
1.684482792E0,-2.378238022E-2,-6.343819678E-1,-2.003847821E0,2.102001944E0
1.694509792E0,-1.850806014E-1,-8.204842240E-1,-2.121111392E0,2.281789370E0
1.704535792E0,-4.481972659E-1,-9.495375359E-1,-2.289629316E0,2.518909432E0
1.714562792E0,-7.246467514E-1,-8.047078514E-1,-2.548646936E0,2.769163926E0
1.724588792E0,-9.812532721E-1,-4.869075876E-1,-2.987407381E0,3.181908208E0
1.734615792E0,-1.171250651E0,-1.959437048E-1,-3.345318375E0,3.549841835E0
1.744641792E0,-1.476630405E0,-3.472427487E-2,-2.914534117E0,3.267438178E0
1.754668792E0,-1.739960055E0,-3.022659659E-2,-2.114737927E0,2.738702455E0
1.764694792E0,-1.884089828E0,-1.725109881E-1,-1.454256327E0,2.386297547E0
1.774721792E0,-1.796814141E0,-4.220818466E-1,-6.059481275E-1,1.942644402E0
1.784747792E0,-1.464756757E0,-8.399922895E-1,-8.209490776E-4,1.688520085E0
1.794774792E0,-1.543309129E0,-7.657396674E-1,-3.690481853E-1,1.761918520E0
1.804800792E0,-1.211597462E0,-5.105168903E-1,-3.606996770E-1,1.363341543E0
1.814827792E0,-6.059079279E-1,-5.814336759E-1,-2.563550904E-2,8.401468418E-1
1.824853792E0,-1.878477962E-1,-7.513274503E-1,1.180876922E0,1.412179180E0
1.834880792E0,-2.277198136E-1,-5.670986420E-1,8.955209577E-1,1.084165563E0
1.844906792E0,-3.139434403E-1,-1.330259103E-1,1.301296382E-1,3.649521876E-1
1.854933792E0,-3.855567755E-1,1.973072755E-1,-4.224028587E-3,4.331305006E-1
1.864960792E0,-2.576673518E-1,3.548903221E-1,-2.406582400E-2,4.392251914E-1
1.874986792E0,1.700734301E-1,3.953974932E-1,-5.139819503E-2,4.334811688E-1
1.885013792E0,6.113769749E-1,2.675130397E-1,-2.298867917E-1,7.058278606E-1
1.895039792E0,1.173873566E0,2.636603093E-1,-2.619447362E-1,1.231304573E0
1.905066792E0,1.435537343E0,2.921619773E-1,-7.581412107E-2,1.466926674E0
1.915092792E0,1.353712577E0,3.647458041E-1,2.018341899E-1,1.416444239E0
1.925119792E0,1.098484830E0,5.392951316E-1,3.047179958E-1,1.261095245E0
1.935145792E0,6.558853957E-1,6.869273865E-1,1.675586888E-1,9.644328908E-1
1.945172792E0,5.494248480E-2,7.811178446E-1,1.888065934E-2,7.832753303E-1
1.955198792E0,-3.479964548E-1,8.685483366E-1,1.090684059E-1,9.420051289E-1
1.965225792E0,-4.720591682E-1,9.018605089E-1,1.069316871E-1,1.023536331E0
1.975251792E0,-6.510117415E-1,8.596330869E-1,6.505846024E-2,1.080286043E0
1.985278792E0,-8.866042462E-1,8.218325919E-1,-1.276511496E-1,1.215635930E0
1.995304792E0,-1.175994643E0,7.481588441E-1,-2.605031052E-1,1.417944613E0
2.005331792E0,-1.368815643E0,7.449183172E-1,-4.900820410E-1,1.633627855E0
2.015357792E0,-1.582423494E0,7.291980779E-1,-4.222169173E-1,1.792780264E0
2.025384792E0,-1.679157783E0,8.058293474E-1,-2.056033051E-1,1.873820833E0
2.035410792E0,-1.590610180E0,9.823766685E-1,-3.259954289E-1,1.897729613E0
2.045437792E0,-1.458372182E0,1.194145278E0,-4.662324178E-1,1.941701582E0
2.055463792E0,-1.213903019E0,1.352132367E0,-4.915546623E-1,1.882404968E0
2.065490792E0,-8.713392127E-1,1.385735146E0,-5.620714983E-1,1.730727676E0
2.075516792E0,-5.910248637E-1,1.266898674E0,-5.482492653E-1,1.501639070E0
2.085543792E0,-4.029208133E-1,1.188206846E0,-3.187466356E-1,1.294519257E0
2.095569792E0,-2.058374861E-1,1.238736144E0,-1.694894394E-1,1.267108115E0
2.105596792E0,-1.365316084E-1,1.272035453E0,-5.092319646E-1,1.376964875E0
2.115622792E0,-1.606896722E-1,1.155181187E0,-5.270042843E-1,1.279843061E0
2.125649792E0,-8.311933994E-2,1.018362188E0,-1.980767691E-1,1.040771241E0
2.135675792E0,1.001736215E-1,1.061071420E0,1.850351393E-3,1.065791132E0
2.145702792E0,2.190527782E-1,1.161197387E0,-1.174603298E-1,1.187501756E0
2.155728792E0,3.256872806E-1,1.296268653E0,-2.348186257E-1,1.357027786E0
2.165755792E0,3.370735636E-1,1.487179660E0,-1.715321642E-1,1.534517908E0
2.175782792E0,1.567296454E-1,1.563891621E0,-1.784564370E-1,1.581824226E0
2.185808792E0,-1.673414648E-1,1.571773083E0,-2.268330833E-1,1.596849096E0
2.195835792E0,-4.991294378E-1,1.520108255E0,-3.256852341E-1,1.632767642E0
2.205861792E0,-5.205451575E-1,1.492136929E0,-3.265535456E-1,1.613715308E0
2.215888792E0,-5.100394651E-1,1.551028916E0,-3.323849738E-1,1.666226492E0
2.225914792E0,-4.560453987E-1,1.640564990E0,-2.857382262E-1,1.726579632E0
2.235941792E0,-3.784905615E-1,1.677317079E0,-2.781593576E-1,1.741843942E0
2.245967792E0,-4.688595718E-1,1.590581236E0,-3.320046124E-1,1.691154940E0
2.255994792E0,-5.451824006E-1,1.604002935E0,-3.879721141E-1,1.737979179E0
2.266020792E0,-7.444794837E-1,1.661422008E0,-4.995381582E-1,1.887885368E0
2.276047792E0,-1.046744280E0,1.779149848E0,-6.628055754E-1,2.168031135E0
2.286073792E0,-1.346249776E0,1.916840667E0,-9.133090648E-1,2.514120134E0
2.296100792E0,-1.692389447E0,2.032412054E0,-1.160741597E0,2.888287010E0
2.306126792E0,-1.975984376E0,2.132376053E0,-1.323006509E0,3.194039466E0
2.316153792E0,-2.282725509E0,2.222481061E0,-1.598592799E0,3.564513537E0
2.326179792E0,-2.550780878E0,2.386340509E0,-2.021994362E0,4.036033364E0
2.336206792E0,-2.880040222E0,2.580438248E0,-2.448478285E0,4.576935563E0
2.346232792E0,-3.677932852E0,2.374881721E0,-2.725553569E0,5.157120854E0
2.356259792E0,-5.216221561E0,1.011950131E0,-2.534605433E0,5.887039591E0
2.366285792E0,-7.283310528E0,-3.136110261E0,-2.198202545E0,8.228845256E0
2.376312792E0,-7.834093684E0,-1.052160965E1,-6.518799068E-1,1.313401085E1
2.386338792E0,-5.974963281E0,-1.798614060E1,2.294881578E0,1.909104296E1
2.396365792E0,-4.352606813E0,-2.025492342E1,-9.185098708E-3,2.071731626E1
2.406391792E0,1.584490484E0,-1.149853555E1,-3.316980429E0,1.207183867E1
2.416418792E0,5.260617131E0,-1.273374465E0,1.277879891E0,5.561344455E0
2.426444792E0,7.106576096E0,5.032495614E0,7.215741858E0,1.130912757E1
2.436471792E0,8.211859483E0,9.560749569E0,7.616415879E0,1.472590776E1
2.446497792E0,7.041931618E0,1.172256577E1,2.618576712E0,1.392351583E1
2.456524792E0,5.828985788E0,1.116509691E1,-8.275789431E-1,1.262225618E1
2.466550792E0,5.430153641E0,7.781673396E0,-1.323258524E0,9.580815337E0
2.476577792E0,4.760838652E0,3.140700325E0,1.005948257E0,5.791503700E0
2.486603792E0,2.296704155E0,-1.184428959E0,3.868165873E0,4.651927467E0
2.496630792E0,1.417184395E0,-4.252054292E0,4.679126737E0,6.479398455E0
2.506657792E0,1.808772427E0,-4.868979982E0,2.014215957E0,5.570968469E0
2.516683792E0,2.244642155E0,-6.396722946E0,-2.584944112E0,7.255233898E0
2.526710792E0,1.505930365E0,-7.129093139E0,-3.171784708E0,7.946824113E0
2.536736792E0,-1.271414186E-1,-4.536809601E0,3.776752404E-1,4.554277647E0
2.546763792E0,-8.204314528E-1,-7.420654607E-1,3.296285963E0,3.476962765E0
2.556789792E0,-1.069653671E0,1.464357977E0,3.741939690E0,4.158198637E0
2.566816792E0,-7.923890837E-1,2.335383194E0,2.536475372E0,3.537739736E0
2.576842792E0,-5.117382275E-1,2.700798504E0,1.065623478E0,2.948176041E0
2.586869792E0,-2.600660259E-1,2.494200003E0,4.383213186E-1,2.545740280E0
2.596895792E0,3.287851354E-1,1.648902535E0,8.397805472E-1,1.879417623E0
2.606922792E0,1.149963862E0,4.747155583E-1,1.035325472E0,1.618539644E0
2.616948792E0,1.890503638E0,-6.539888513E-1,3.805075586E-1,2.036293551E0
2.626975792E0,2.475608781E0,-1.500080956E0,-7.962504387E-2,2.895724755E0
2.637002083E0,2.727730195E0,-1.758257747E0,-2.170248907E-2,3.245374141E0
2.647029083E0,2.349557283E0,-1.242569579E0,-4.814422683E-1,2.701145173E0
2.657055083E0,1.458449658E0,-4.256626815E-1,-8.757889438E-1,1.753644889E0
2.667082083E0,4.377857137E-1,3.312617236E-1,-5.707057893E-1,7.918937799E-1
2.677108083E0,-2.474259536E-1,7.126223910E-1,-2.148641253E-1,7.843576142E-1
2.687135083E0,-2.284570744E-1,7.640024596E-1,7.539282918E-2,8.009846889E-1
2.697161083E0,-5.575093545E-2,6.505734926E-1,3.292403412E-1,7.312682397E-1
2.707188083E0,-1.007877253E-1,4.620598447E-1,4.486276209E-1,6.518621081E-1
2.717214083E0,-2.248582593E-1,3.801929784E-1,6.495391202E-1,7.854992083E-1
2.727241083E0,-2.854199184E-1,4.791383922E-1,8.316331100E-1,1.001325001E0
2.737267083E0,-7.503183670E-2,6.239581364E-1,8.843188620E-1,1.084884041E0
2.747294083E0,4.601216389E-1,6.559090769E-1,9.138262510E-1,1.215321791E0
2.757320083E0,1.035607162E0,4.921618956E-1,7.340805030E-1,1.361462342E0
2.767347083E0,1.569481559E0,2.588720244E-1,5.551779234E-1,1.684787706E0
2.777373083E0,2.008301206E0,1.082658756E-1,4.756405513E-1,2.066695229E0
2.787400083E0,2.268932219E0,9.111423790E-2,2.896178172E-1,2.289155674E0
2.797426083E0,2.307882277E0,1.420820779E-1,9.962420247E-2,2.314396877E0
2.807453083E0,2.098687320E0,2.008723229E-1,-8.535648465E-2,2.110005660E0
2.817479083E0,1.731628357E0,2.847705120E-1,-2.048637054E-1,1.766805068E0
2.827506083E0,1.208883477E0,1.280440825E-1,-4.671451682E-1,1.302313003E0
2.837532083E0,5.829941516E-1,-4.619183421E-2,-6.569568980E-1,8.795500168E-1
2.847559083E0,4.389607117E-2,1.393859267E-2,-8.105439574E-1,8.118513757E-1
2.857585083E0,-9.336943589E-2,3.670180321E-2,-7.698871706E-1,7.763962450E-1
2.867612083E0,1.091336024E-1,-8.741002679E-3,-5.929010890E-1,6.029247463E-1
2.877639083E0,2.301905546E-1,-4.077088058E-2,-4.676812117E-1,5.228533942E-1
2.887665083E0,2.616274517E-1,6.736577153E-3,-3.971032722E-1,4.755894382E-1
2.897692083E0,3.574676286E-1,5.099649131E-2,-3.225977580E-1,4.842035327E-1
2.907718083E0,4.768013332E-1,1.701083672E-1,-4.123203586E-1,6.529046225E-1
2.917745083E0,6.865116495E-1,3.434397197E-1,-4.000412057E-1,8.656107972E-1
2.927771083E0,9.052634422E-1,3.935433412E-1,-4.338594545E-1,1.078245003E0
2.937798083E0,1.045404756E0,4.205878830E-1,-4.580580103E-1,1.216380866E0
2.947824083E0,1.116045480E0,3.062631226E-1,-5.953921491E-1,1.301478553E0
2.957851083E0,1.263753895E0,7.520922661E-2,-8.471983981E-1,1.523310691E0
2.967877083E0,1.497521045E0,-2.112411904E-1,-9.515888853E-1,1.786816590E0
2.977904083E0,1.653893426E0,-3.652954423E-1,-1.069955680E0,2.003399456E0
2.987930083E0,1.633579029E0,-3.864319575E-1,-1.236230466E0,2.084748394E0
2.997957083E0,1.513274614E0,-3.865126491E-1,-1.442574175E0,2.126126133E0
3.007983083E0,1.410276787E0,-3.414616066E-1,-1.581420404E0,2.146244892E0
3.018010083E0,1.232994471E0,-2.998803020E-1,-1.659019095E0,2.088671328E0
3.028036083E0,1.027071908E0,-3.523824513E-1,-1.718597545E0,2.032886523E0
3.038063083E0,9.053660609E-1,-3.136656976E-1,-1.739208688E0,1.985678910E0
3.048089083E0,8.367883077E-1,-1.926985002E-1,-1.819954350E0,2.012357131E0
3.058116083E0,9.125102621E-1,-2.429956645E-1,-1.904757542E0,2.125987574E0
3.068142083E0,1.000630945E0,-3.104894900E-1,-2.054197610E0,2.305947491E0
3.078169083E0,1.153958753E0,-2.825374603E-1,-2.237196749E0,2.533080637E0
3.088195083E0,1.414730319E0,-2.586165011E-1,-2.352728959E0,2.757476732E0
3.098222083E0,1.656952397E0,-2.635421956E-1,-2.423357623E0,2.947474835E0
3.108248083E0,1.738119351E0,-4.564430094E-1,-2.572141049E0,3.137723486E0
3.118275083E0,1.792000859E0,-5.442483079E-1,-2.798919168E0,3.367702750E0
3.128301083E0,1.801947265E0,-6.402917486E-1,-3.005909141E0,3.562650310E0
3.138328083E0,1.855250044E0,-1.070804695E0,-3.177857919E0,3.832408691E0
3.148354083E0,2.123750240E0,-2.086218717E0,-3.063696004E0,4.271868072E0
3.158381083E0,2.747451392E0,-3.947036042E0,-2.277842499E0,5.321292053E0
3.168407083E0,3.289811926E0,-6.679031196E0,-9.818755621E-1,7.509753647E0
3.178434083E0,3.664635406E0,-8.587715582E0,4.887279721E-1,9.349720135E0
3.188460083E0,3.682887490E0,-8.721305748E0,1.753522087E0,9.628066988E0
3.198487083E0,3.364352816E0,-7.441783521E0,2.782540825E0,8.627951395E0
3.208513083E0,6.897641632E-1,-4.289747783E0,2.307375616E0,4.919521610E0
3.218540083E0,-4.148530801E0,-2.000031928E0,-1.174313276E0,4.752835700E0
3.228566083E0,-7.119822378E0,-1.265187194E0,-3.241650749E0,7.924699926E0
3.238593083E0,-6.786563246E0,-7.618828440E-1,-2.992549422E0,7.456088666E0
3.248619083E0,-5.050514393E0,-5.870241988E-1,-2.615061951E0,5.717590581E0
3.258646083E0,-3.909315653E0,-5.715021801E-1,-1.931897101E0,4.397907460E0
3.268673083E0,-4.604796932E0,-3.077184945E-1,-1.622638012E0,4.892013856E0
3.278699083E0,-5.267757751E0,-3.709485304E-1,-1.437239760E0,5.472890704E0
3.288726083E0,-4.175542890E0,-7.186023384E-1,-1.055338298E0,4.366381417E0
3.298752083E0,-2.621620772E0,-7.448592603E-1,-6.567662787E-1,2.803400210E0
3.308779083E0,-1.182399537E0,6.587063849E-2,-2.303475523E-1,1.206427620E0
3.318805083E0,-4.169890679E-1,8.699733031E-1,2.959626675E-2,9.651991348E-1
3.328832083E0,-2.844369283E-1,1.104336138E0,7.412877810E-1,1.360136113E0
3.338858083E0,-2.038719445E-1,1.343760908E0,1.927062185E0,2.358140329E0
3.348885083E0,2.934428099E-1,1.554019766E0,3.494276193E0,3.835498955E0
3.358911083E0,9.551207498E-2,1.475140243E0,4.140877672E0,4.396820350E0
3.368938083E0,-1.157431195E0,1.449883779E0,2.747468641E0,3.315176297E0
3.378964083E0,-1.234513578E0,1.450302440E0,2.084722999E0,2.823733508E0
3.388991083E0,-7.004022950E-1,1.541459947E0,2.311166950E0,2.864987752E0
3.399017083E0,-3.993623440E-1,1.879162964E0,2.341230994E0,3.028548546E0
3.409044083E0,-7.403802931E-2,2.108314760E0,2.452310550E0,3.234856997E0
3.419070083E0,2.467234106E-1,2.155783626E0,2.623266764E0,3.404380120E0
3.429097083E0,3.215427741E-1,2.082280033E0,2.903562402E0,3.587471883E0
3.439123083E0,1.576209073E-1,1.790785807E0,2.887108337E0,3.401051706E0
3.449150083E0,7.506480038E-2,1.539270750E0,2.430020818E0,2.877497236E0
3.459176083E0,9.972455531E-2,1.268054668E0,1.856245387E0,2.250234335E0
3.469203083E0,2.372819115E-1,8.894340062E-1,1.424231898E0,1.695827838E0
3.479229083E0,2.365679665E-1,5.520572644E-1,9.500804499E-1,1.124003775E0
3.489256083E0,3.175150658E-1,-4.302849054E-2,4.592661913E-1,5.599934843E-1
3.499282083E0,5.279456860E-1,-6.954672450E-1,1.054627350E0,1.369175001E0
3.509309083E0,5.098343740E-1,-9.386061662E-1,1.008510214E0,1.469015138E0
3.519335083E0,2.226349287E-1,-8.358290720E-1,1.003721637E0,1.325003273E0
3.529362083E0,-1.902422310E-1,-4.244008523E-1,9.272539432E-1,1.037356287E0
3.539388083E0,-5.121007548E-1,1.228915161E-1,7.343295944E-1,9.036533965E-1
3.549415083E0,-8.141300547E-1,7.495995981E-1,2.666555455E-1,1.138337596E0
3.559441083E0,-1.116590441E0,1.219194165E0,-2.663523674E-1,1.674560303E0
3.569468083E0,-1.161261999E0,1.585921590E0,-7.679376358E-1,2.110309203E0
3.579494083E0,-1.103043611E0,1.796278682E0,-1.141751010E0,2.397272967E0
3.589521083E0,-1.233506687E0,1.733707042E0,-1.699506970E0,2.723160443E0
3.599547083E0,-1.193216740E0,1.487203048E0,-1.871958025E0,2.672034046E0
3.609574083E0,-6.773487702E-1,1.178682316E0,-1.495862482E0,2.021310942E0
3.619600083E0,-5.722675806E-1,1.158392478E0,-1.144638657E0,1.726140484E0
3.629627083E0,-4.469734436E-1,1.008636514E0,-6.127320671E-1,1.261972053E0
3.639653167E0,-1.042552704E-1,7.006975794E-1,-1.765186697E-2,7.086309671E-1
3.649680167E0,6.605482578E-2,5.116980278E-1,5.791792819E-1,7.756589149E-1
3.659706167E0,2.574040809E-1,4.774853843E-1,9.739093155E-1,1.114786306E0
3.669733167E0,4.986189759E-1,5.002181894E-1,9.382334062E-1,1.174359845E0
3.679759167E0,7.408112329E-1,5.829919589E-1,7.227082533E-1,1.187850212E0
3.689786167E0,8.348859161E-1,7.367871791E-1,5.233222926E-1,1.230347944E0
3.699812167E0,7.921220121E-1,9.293611336E-1,3.592856741E-1,1.272892609E0
3.709839167E0,5.408993152E-1,1.174927819E0,2.339678559E-1,1.314446045E0
3.719866167E0,1.920763564E-1,1.483155606E0,2.069066495E-2,1.495684452E0
3.729892167E0,-3.133935097E-1,1.763713784E0,-2.122252768E-1,1.803868446E0
3.739919167E0,-7.628359401E-1,1.895515287E0,-3.398816890E-1,2.071332044E0
3.749945167E0,-1.057142676E0,1.860236111E0,-3.599803233E-1,2.169703865E0
3.759972167E0,-1.318385746E0,1.696985359E0,-4.686733380E-1,2.199444244E0
3.769998167E0,-1.473445427E0,1.553785293E0,-6.601512319E-1,2.240778841E0
3.780025167E0,-1.492721358E0,1.420442464E0,-7.888405547E-1,2.206386926E0
3.790051167E0,-1.273901007E0,1.290800922E0,-6.755484125E-1,1.935292343E0
3.800078167E0,-1.015392972E0,1.235532455E0,-3.274291661E-1,1.632413303E0
3.810104167E0,-7.669354230E-1,1.323686832E0,-1.659071428E-1,1.538785870E0
3.820131167E0,-7.314334685E-1,1.478629276E0,-1.359658903E-1,1.655242030E0
3.830157167E0,-8.230014503E-1,1.631873104E0,-8.489689350E-2,1.829630754E0
3.840184167E0,-1.036411373E0,1.805523714E0,-1.326300538E-1,2.086062115E0
3.850210167E0,-1.172961985E0,1.967018548E0,-2.882478511E-1,2.308265282E0
3.860237167E0,-1.373558612E0,2.038587883E0,-4.911003336E-1,2.506727619E0
3.870263167E0,-1.614395776E0,2.061710113E0,-9.358579749E-1,2.780782706E0
3.880290167E0,-1.789137185E0,2.010133578E0,-1.461562715E0,3.062321740E0
3.890316167E0,-1.821410892E0,1.911774639E0,-1.809870535E0,3.201257762E0
3.900343167E0,-1.717388633E0,1.754973950E0,-2.148397131E0,3.262662642E0
3.910369167E0,-1.503484328E0,1.665403377E0,-2.312185828E0,3.221837494E0
3.920396167E0,-1.471838320E0,1.773916005E0,-2.527214552E0,3.420511574E0
3.930422167E0,-2.578418620E0,1.318909657E0,-3.563446416E0,4.591940289E0
3.940449167E0,-4.965728012E0,-7.557836133E-1,-5.674900546E0,7.578532824E0
3.950475167E0,-7.353405780E0,-5.294478357E0,-6.645546530E0,1.123687529E1
3.960502167E0,-7.182633753E0,-1.292903230E1,-2.622250225E0,1.502086216E1
3.970528167E0,-4.501083698E0,-2.056078192E1,5.876765141E0,2.185273154E1
3.980555167E0,-7.252541310E-1,-2.106461076E1,8.692953769E0,2.279936984E1
3.990581167E0,5.391050971E0,-9.669298450E0,6.408551279E0,1.279172751E1
4.000608167E0,5.628537973E0,2.086363143E0,8.709511914E0,1.057775726E1
4.010634167E0,3.806766016E0,8.895698955E0,1.021118916E1,1.406745576E1
4.020661167E0,3.425800036E0,1.340921149E1,5.701849194E0,1.496843823E1
4.030687167E0,3.281240785E0,1.464022581E1,-5.526089492E-1,1.501359815E1
4.040714167E0,3.663251370E0,1.127657056E1,-2.219809176E0,1.206266998E1
4.050740167E0,5.705251104E0,5.541605079E0,8.769238883E-1,8.001766837E0
4.060767167E0,4.641895176E0,-7.168364793E-1,4.324519713E0,6.384552929E0
4.070793167E0,2.565726653E0,-6.693176195E0,6.433693721E0,9.631924820E0
4.080820167E0,2.574965546E0,-8.948471830E0,5.526063180E0,1.082787929E1
4.090846167E0,2.765579222E0,-8.690988520E0,1.203926646E0,9.199518969E0
4.100873167E0,4.119896693E0,-9.207333330E0,-2.495326177E0,1.039111103E1
4.110899167E0,3.881813859E0,-7.027557408E0,-2.876709648E0,8.528217889E0
4.120926167E0,1.410189810E0,-2.604852712E0,-3.899766858E-1,2.987636987E0
4.130952167E0,-5.519376889E-2,7.130159086E-1,3.096396557E0,3.177909639E0
4.140979167E0,2.062847981E-1,2.795735067E0,4.933313388E0,5.674175620E0
4.151005167E0,1.662316632E-1,4.099612117E0,5.090043325E0,6.537812595E0
4.161032167E0,5.832597613E-4,4.150149602E0,3.848556651E0,5.659958512E0
4.171058167E0,-7.037528957E-1,3.277104757E0,2.582012318E0,4.231013039E0
4.181085167E0,-1.440257508E0,2.031594028E0,1.976710893E0,3.179481395E0
4.191111167E0,-1.046728273E0,1.219560201E0,1.833886803E0,2.438464264E0
4.201138167E0,1.738866918E-2,7.006543100E-1,1.755373900E0,1.890120725E0
4.211164167E0,9.351621562E-1,-1.836551964E-2,1.490666939E0,1.759816318E0
4.221191167E0,1.530229054E0,-7.212563896E-1,7.503989124E-1,1.850651308E0
4.231218167E0,1.938156692E0,-1.086827821E0,-6.309734065E-2,2.222977136E0
4.241244167E0,1.968696845E0,-1.026373458E0,-8.042225325E-1,2.361352076E0
4.251271167E0,1.446857991E0,-5.998529899E-1,-1.332092789E0,2.056135418E0
4.261297167E0,7.123497646E-1,-9.426881075E-3,-1.551484998E0,1.707230727E0
4.271324167E0,7.139282204E-2,6.263297671E-1,-1.435022496E0,1.567378536E0
4.281350167E0,-1.532091100E-1,1.050131865E0,-1.262971099E0,1.649650254E0
4.291377167E0,-1.078902651E-1,9.729591429E-1,-1.352756265E0,1.669802178E0
4.301403167E0,-3.714594309E-1,7.252260643E-1,-1.114713192E0,1.380768067E0
4.311430167E0,-3.988561213E-1,5.099649131E-1,-5.348793143E-1,8.397894373E-1
4.321456167E0,-2.393013205E-1,2.412818456E-1,1.867969419E-1,3.877823469E-1
4.331483167E0,-1.629224315E-2,6.787623346E-2,8.270857304E-1,8.300261597E-1
4.341509167E0,7.357500292E-2,-9.511899590E-2,1.304999131E0,1.310527999E0
4.351536167E0,1.122064604E-1,-1.141978759E-1,1.620255856E0,1.628146333E0
4.361562167E0,2.161361139E-1,-3.813787937E-2,1.591759450E0,1.606819052E0
4.371589167E0,4.361171376E-1,-7.710723281E-3,1.484113380E0,1.546884009E0
4.381615167E0,6.739448136E-1,-2.634053707E-2,1.192010459E0,1.369592776E0
4.391642167E0,7.238073836E-1,1.095867616E-1,6.499875285E-1,9.789740416E-1
4.401668167E0,5.758074119E-1,3.228048956E-1,-3.408488184E-3,6.601278619E-1
4.411695167E0,4.994514001E-1,4.078444612E-1,-4.958288307E-1,8.134095125E-1
4.421721167E0,4.485377200E-1,4.097529924E-1,-1.102521747E0,1.258823977E0
4.431748167E0,5.531083015E-1,1.396525598E-1,-1.510317092E0,1.614462557E0
4.441774167E0,7.614024952E-1,-1.655966556E-1,-1.795645428E0,1.957421395E0
4.451801167E0,7.763386229E-1,-2.920298302E-1,-1.984415769E0,2.150788001E0
4.461827167E0,7.290852267E-1,-5.938432217E-2,-2.177717117E0,2.297290493E0
4.471854167E0,6.937864628E-1,5.260155201E-2,-1.835050253E0,1.962527964E0
4.481880167E0,6.287681291E-1,1.044213313E-1,-1.528521813E0,1.656089402E0
4.491907167E0,6.367739906E-1,9.399866939E-2,-1.276574062E0,1.429670661E0
4.501933167E0,7.505824419E-1,-5.041060030E-2,-1.129209024E0,1.356844962E0
4.511960167E0,9.708953682E-1,-1.436210650E-1,-9.172060879E-1,1.343328640E0
4.521986167E0,1.256734459E0,-2.097039574E-1,-9.090287568E-1,1.565148725E0
4.532013167E0,1.509028658E0,-2.866439599E-1,-1.144418948E0,1.915470433E0
4.542039167E0,1.701277800E0,-3.288573486E-1,-1.420186940E0,2.240407162E0
4.552066167E0,1.861727151E0,-3.928592169E-1,-1.661688349E0,2.526177848E0
4.562092167E0,1.939465006E0,-5.089603615E-1,-1.823129827E0,2.710049359E0
4.572119167E0,1.900527082E0,-5.056829971E-1,-1.993060293E0,2.800001395E0
4.582145167E0,1.769853068E0,-4.061247951E-1,-2.248096836E0,2.889854082E0
4.592172167E0,1.517294282E0,-1.883815008E-1,-2.445780964E0,2.884356783E0
4.602198167E0,1.206713575E0,-3.979848862E-2,-2.617170164E0,2.882242398E0
4.612225167E0,9.459067804E-1,6.068766654E-2,-2.781564925E0,2.938626560E0
4.622251167E0,8.355253091E-1,1.039705110E-1,-2.958491730E0,3.075969071E0
4.632278083E0,8.607360911E-1,4.373834252E-2,-3.072690191E0,3.191270071E0
4.642304083E0,9.799698083E-1,-1.350355983E-1,-3.144744844E0,3.296664310E0
4.652331083E0,1.091206289E0,-2.197032809E-1,-3.103078755E0,3.296679914E0
4.662357083E0,1.107053339E0,-2.977823210E-1,-2.997310518E0,3.209067115E0
4.672384083E0,1.153179977E0,-4.206785148E-1,-3.008136930E0,3.248950948E0
4.682410083E0,1.274883193E0,-7.362849033E-1,-3.171484746E0,3.496535158E0
4.692437083E0,1.575012148E0,-1.902585740E0,-2.851418687E0,3.772410939E0
4.702463083E0,1.859257141E0,-4.157069197E0,-1.757510619E0,4.881281082E0
4.712490083E0,2.122843191E0,-7.332302594E0,-3.884729281E-1,7.643300056E0
4.722516083E0,2.495689289E0,-8.903597959E0,1.105858169E0,9.312649673E0
4.732543083E0,2.805489100E0,-8.258815548E0,2.575012617E0,9.094475979E0
4.742569083E0,1.972009147E0,-5.812048159E0,3.056864702E0,6.856613280E0
4.752596083E0,-1.561489146E0,-3.073495937E0,1.113479429E0,3.622769944E0
4.762622083E0,-5.220251462E0,-1.726709679E0,-1.912012036E0,5.821369399E0
4.772649083E0,-6.236388785E0,-1.320963784E0,-2.413528454E0,6.816348729E0
4.782675083E0,-4.790171794E0,-1.189479784E0,-1.885307803E0,5.283464156E0
4.792702083E0,-3.123828769E0,-1.523993145E0,-1.470468902E0,3.774008489E0
4.802728083E0,-2.528279330E0,-1.890415345E0,-1.038821011E0,3.323404225E0
4.812755083E0,-3.235607067E0,-1.974607065E0,-7.109038943E-1,3.856632015E0
4.822782083E0,-3.300069696E0,-2.056187418E0,1.156649423E-1,3.889954380E0
4.832808083E0,-2.477950006E0,-1.124568674E0,8.921664832E-1,2.863712969E0
4.842835083E0,-1.235680097E0,-1.408272654E-1,1.121453277E0,1.674632818E0
4.852861083E0,-6.755313094E-1,7.310697716E-1,1.137226142E0,1.511320237E0
4.862888083E0,-1.006127912E0,1.502354354E0,1.142261179E0,2.138719846E0
4.872914083E0,-1.271715318E0,1.677898877E0,1.026738324E0,2.342391103E0
4.882941083E0,-1.481983239E0,1.670453618E0,1.162640480E0,2.517622389E0
4.892967083E0,-1.732599141E0,1.656931931E0,1.646220417E0,2.908154891E0
4.902994083E0,-1.937379304E0,1.649751551E0,2.210694244E0,3.370799280E0
4.913020083E0,-1.640871823E0,1.998186547E0,2.816904327E0,3.823631755E0
4.923047083E0,-1.297688065E0,2.505155931E0,2.917789847E0,4.058731100E0
4.933073083E0,-7.854876881E-1,2.669738095E0,3.869948105E0,4.766654040E0
4.943100083E0,-2.390776645E-1,2.763242674E0,4.408969002E0,5.208807528E0
4.953126083E0,8.137964711E-2,2.706993045E0,3.826090479E0,4.687579583E0
4.963153083E0,1.000203513E-1,2.625261834E0,2.860551453E0,3.883910192E0
4.973179083E0,-4.109708212E-1,2.252990078E0,2.139377947E0,3.133975002E0
4.983206083E0,-7.234621055E-1,1.945651653E0,1.730357172E0,2.702423675E0
4.993232083E0,-2.828806919E-1,1.291901953E0,2.357114517E0,2.702780233E0
5.003259083E0,-4.908994818E-1,4.475201583E-1,1.431035718E0,1.577694463E0
5.013285083E0,-3.985868570E-1,-3.176423889E-1,1.013416028E0,1.134363353E0
5.023312083E0,1.017067614E-1,-7.960615736E-1,1.044142854E0,1.316925432E0
5.033338083E0,4.590087676E-1,-1.181601246E0,1.037562397E0,1.638110583E0
5.043365083E0,5.800784375E-1,-1.382449595E0,6.853916153E-1,1.648459749E0
5.053391083E0,4.920193698E-1,-1.280021580E0,3.300095424E-1,1.410476729E0
5.063418083E0,1.604709864E-2,-9.892430538E-1,3.132145849E-1,1.037768136E0
5.073444083E0,-5.973493584E-1,-4.923273718E-1,4.061820978E-1,8.741832723E-1
5.083471083E0,-1.023749958E0,1.523082733E-1,1.457509133E-1,1.045229695E0
5.093497083E0,-7.768277425E-1,7.592761552E-1,-4.965198255E-1,1.194359058E0
5.103524083E0,-4.920667322E-1,1.210718041E0,-1.142310880E0,1.735754012E0
5.113550083E0,-6.093428747E-1,1.295987402E0,-1.341609718E0,1.962345209E0
5.123577083E0,-7.753327556E-1,1.204788380E0,-1.201583813E0,1.869882237E0
5.133603083E0,-8.323243971E-1,1.011127428E0,-7.186602259E-1,1.493859129E0
5.143630083E0,-1.047948514E0,8.281622028E-1,-9.389020354E-2,1.338978750E0
5.153656083E0,-1.076352388E0,6.809053391E-1,5.510073969E-1,1.387723205E0
5.163683083E0,-9.903136790E-1,6.654353607E-1,1.038420769E0,1.581721560E0
5.173709083E0,-7.503397094E-1,9.515472239E-1,1.230091328E0,1.726724203E0
5.183736083E0,-7.525565350E-1,9.911357975E-1,1.114659690E0,1.670675831E0
5.193762083E0,-3.778486834E-1,1.043297639E0,7.755469099E-1,1.353777161E0
5.203789083E0,3.655135435E-1,1.211846554E0,5.071456781E-1,1.363586799E0
5.213815083E0,4.823382810E-1,1.389207222E0,2.668771550E-1,1.494580322E0
5.223842083E0,3.912524021E-1,1.606179854E0,-5.222849965E-2,1.653970973E0
5.233868083E0,2.830403209E-1,1.708066417E0,-3.073322859E-1,1.758424250E0
5.243895083E0,-8.066789478E-2,1.738723369E0,-4.965318123E-1,1.810030415E0
5.253921083E0,-4.313762882E-1,1.756148071E0,-6.629184267E-1,1.926032811E0
5.263948083E0,-6.791178453E-1,1.765097820E0,-8.363117597E-1,2.067894755E0
5.273974083E0,-9.139545974E-1,1.710266140E0,-8.518074659E-1,2.117994153E0
5.284001083E0,-1.134611852E0,1.649010124E0,-6.872174084E-1,2.116328474E0
5.294027083E0,-1.177562574E0,1.590533289E0,-2.998498964E-1,2.001589299E0
5.304054083E0,-1.068464347E0,1.553856629E0,6.724619597E-2,1.886957481E0
5.314080083E0,-9.815311611E-1,1.650076071E0,2.415560800E-1,1.935072040E0
5.324107083E0,-9.278698012E-1,1.830802397E0,2.161040273E-1,2.063850948E0
5.334133083E0,-9.476252040E-1,1.898687986E0,9.757921189E-2,2.124271946E0
5.344160083E0,-9.031922123E-1,1.805282224E0,-2.754243225E-2,2.018801295E0
5.354186083E0,-8.887577757E-1,1.616310155E0,-6.456290871E-2,1.845675288E0
5.364213083E0,-9.293310204E-1,1.422250423E0,-1.321005884E-1,1.704084205E0
5.374239083E0,-1.036935576E0,1.275025719E0,-2.213647673E-1,1.658290786E0
5.384266083E0,-1.224995188E0,1.233584163E0,-2.854797792E-1,1.761772346E0
5.394292083E0,-1.495584447E0,1.336207475E0,-3.767048219E-1,2.040619950E0
5.404319083E0,-1.676000286E0,1.602628255E0,-4.914646152E-1,2.370428601E0
5.414345083E0,-1.927187900E0,1.893207976E0,-9.752746403E-1,2.872185625E0
5.424372083E0,-2.184872063E0,2.061372728E0,-1.595510732E0,3.401261229E0
5.434398083E0,-2.261500116E0,2.132086616E0,-1.691956753E0,3.538770092E0
5.444425083E0,-2.124586977E0,2.233020083E0,-1.358579507E0,3.368380440E0
5.454451083E0,-1.692109658E0,2.561725988E0,-1.136595519E0,3.273763050E0
5.464478083E0,-1.502128359E0,2.956317151E0,-1.341333437E0,3.577062494E0
5.474504083E0,-2.123948461E0,2.959831327E0,-1.889899621E0,4.104080790E0
5.484531083E0,-4.453644068E0,1.496679046E0,-3.967774069E0,6.149652406E0
5.494557083E0,-9.296662998E0,-3.543517351E0,-8.659531084E0,1.318984218E1
5.504584083E0,-1.113285068E1,-1.360792912E1,-5.546847693E0,1.843593281E1
5.514610083E0,-7.917307164E0,-2.500871208E1,4.369959595E0,2.659353267E1
5.524637083E0,-2.488808870E-1,-2.742220180E1,4.662056376E0,2.781679102E1
5.534663083E0,1.065227036E1,-1.406133508E1,3.680317639E0,1.802045355E1
5.544690083E0,9.851463776E0,-4.859702790E-1,1.127427027E1,1.497987569E1
5.554716083E0,6.779462972E0,8.372606458E0,1.377157982E1,1.748479533E1
5.564743083E0,5.362475628E0,1.470985679E1,3.167056942E0,1.597392504E1
5.574769083E0,5.164701744E0,1.741609437E1,-4.335038854E0,1.867584132E1
5.584796083E0,6.557017347E0,1.539510602E1,-2.271800863E0,1.688682460E1
5.594822083E0,6.788498089E0,8.485772885E0,4.721661723E0,1.184846560E1
5.604849083E0,6.233530666E0,8.310045344E-1,1.045777794E1,1.220297474E1
5.614875083E0,1.879906145E0,-5.708427896E0,1.007066770E1,1.172768281E1
5.624902083E0,-2.018280503E-1,-1.067641820E1,5.384896191E0,1.195925362E1
5.634928833E0,4.517381935E-1,-1.240037618E1,-5.993989536E-1,1.242307030E1
5.644954833E0,3.381581052E0,-1.339986764E1,-3.710452434E0,1.430940252E1
5.654981833E0,5.336234493E0,-1.118212867E1,-2.900489105E0,1.272510264E1
5.665007833E0,2.551626970E0,-5.009544123E0,2.338279612E-1,5.626811533E0
5.675034833E0,-6.574262832E-1,-3.785557580E-1,2.785248671E0,2.886715077E0
5.685060833E0,-8.775977799E-1,2.315473425E0,3.798782812E0,4.534572295E0
5.695087833E0,-7.372749831E-1,4.573944098E0,4.095942990E0,6.183954074E0
5.705113833E0,-7.020655355E-1,5.551532482E0,3.858534340E0,6.797109398E0
5.715140833E0,-4.083030291E-1,5.107435868E0,1.840802890E0,5.444370284E0
5.725166833E0,-9.964272353E-1,3.840873994E0,-4.514121381E-1,3.993614052E0
5.735193833E0,-1.382293036E0,2.359995879E0,-9.821544743E-1,2.906018238E0
5.745219833E0,-5.528497083E-1,1.280280027E0,-1.043260217E-2,1.394585453E0
5.755246833E0,4.444130941E-1,4.314233583E-1,8.847609115E-1,1.080014344E0
5.765272833E0,1.001221587E0,-3.609866291E-1,1.054762786E0,1.498426023E0
5.775299833E0,1.382674859E0,-9.278712630E-1,3.357599866E-1,1.698667012E0
5.785325833E0,1.469038381E0,-1.044166535E0,-3.028927875E-1,1.827594473E0
5.795352833E0,1.166012131E0,-6.677134359E-1,-8.334083247E-1,1.581137235E0
5.805378833E0,7.070242667E-1,-8.032261670E-2,-1.409173125E0,1.578639900E0
5.815405833E0,4.289840461E-1,5.185603201E-1,-2.015529388E0,2.124921371E0
5.825431833E0,4.640744298E-1,9.489674324E-1,-2.345980103E0,2.572844128E0
5.835458833E0,5.401927523E-1,1.064321303E0,-2.331508244E0,2.619259196E0
5.845484833E0,5.399727508E-1,8.636425227E-1,-2.090053906E0,2.325032109E0
5.855511833E0,6.448318923E-1,5.148058230E-1,-1.551477982E0,1.757247032E0
5.865537833E0,8.641065723E-1,1.887071908E-1,-2.445094903E-1,9.176466984E-1
5.875564833E0,1.108399734E0,-1.665684628E-1,1.003369342E0,1.504342069E0
5.885590833E0,1.269494545E0,-4.554080522E-1,1.420989763E0,1.959138791E0
5.895617833E0,1.267126277E0,-6.494356245E-1,1.540197533E0,2.097518551E0
5.905643833E0,1.042361061E0,-7.933373559E-1,1.808823883E0,2.233325901E0
5.915670833E0,7.448207418E-1,-6.445391661E-1,1.745298563E0,2.004059816E0
5.925696833E0,4.443843696E-1,-2.649601454E-1,1.612517066E0,1.693485351E0
5.935723833E0,-1.974707418E-1,3.400611985E-1,1.544925007E0,1.594186184E0
5.945749833E0,-5.622825097E-1,7.532973772E-1,8.161385733E-1,1.244869764E0
5.955776833E0,-3.749078994E-1,8.821010131E-1,-1.524596431E-1,9.705163951E-1
5.965802833E0,-1.516767740E-2,7.646345437E-1,-6.121372591E-1,9.795958696E-1
5.975829833E0,3.779028798E-1,5.711952013E-1,-8.937083939E-1,1.125961473E0
5.985855833E0,7.770514715E-1,1.849854380E-1,-1.154177658E0,1.403621982E0
5.995882833E0,1.051418983E0,-1.474205858E-1,-1.392136093E0,1.750787711E0
6.005908833E0,1.189730922E0,-3.005714428E-1,-1.706276730E0,2.101709576E0
6.015935833E0,1.240447917E0,-2.728041852E-1,-1.770879546E0,2.179253892E0
6.025961833E0,1.184590927E0,-1.600669438E-1,-1.801912620E0,2.162352002E0
6.035988833E0,1.094411513E0,-2.870632052E-2,-1.720191934E0,2.039024498E0
6.046014833E0,9.872228408E-1,4.472184420E-2,-1.649702580E0,1.923051633E0
6.056041833E0,9.380969469E-1,7.575184822E-2,-1.477374902E0,1.751685139E0
6.066067833E0,1.039613601E0,2.933197260E-2,-1.177257496E0,1.570857095E0
6.076094833E0,1.231695950E0,5.092340112E-3,-8.933595344E-1,1.521575533E0
6.086120833E0,1.458039914E0,-3.408342004E-2,-6.061698832E-1,1.579393554E0
6.096147833E0,1.696890634E0,-9.122182667E-2,-5.687545735E-1,1.791993585E0
6.106173833E0,1.741805582E0,-1.716134405E-1,-8.516715181E-1,1.946453758E0
6.116200833E0,1.614919102E0,-2.184168935E-1,-1.231447298E0,2.042579764E0
6.126226833E0,1.553427444E0,-3.295794797E-1,-1.552082292E0,2.220522212E0
6.136253833E0,1.500412493E0,-3.562357664E-1,-1.909131406E0,2.454164684E0
6.146279833E0,1.378503017E0,-3.398384196E-1,-2.387792519E0,2.778005369E0
6.156306833E0,1.316862254E0,-2.092788649E-1,-2.873239326E0,3.167558692E0
6.166332833E0,1.258540956E0,-1.352963841E-1,-3.205050688E0,3.445951300E0
6.176359833E0,1.259775303E0,-2.164341027E-1,-3.487706262E0,3.714562222E0
6.186385833E0,1.413925157E0,-3.424363375E-1,-3.604938258E0,3.887419046E0
6.196412833E0,1.528783768E0,-4.504700786E-1,-3.476575210E0,3.824484056E0
6.206438833E0,1.678520729E0,-5.591990536E-1,-3.351427546E0,3.789749597E0
6.216465833E0,1.868283927E0,-5.510591447E-1,-3.324870661E0,3.853429113E0
6.226491833E0,1.867382286E0,-3.790106714E-1,-3.372232524E0,3.873334208E0
6.236518833E0,1.910367799E0,-4.105628318E-1,-3.466821177E0,3.979562293E0
6.246544833E0,2.161218321E0,-9.702852112E-1,-3.504847375E0,4.230398698E0
6.256571833E0,2.602643049E0,-2.294771942E0,-3.236104373E0,4.744691837E0
6.266597833E0,3.082973104E0,-4.228585322E0,-2.362784562E0,5.741812247E0
6.276624833E0,3.504398016E0,-6.042044293E0,-9.549263299E-1,7.049750988E0
6.286650833E0,3.829018180E0,-6.669920649E0,7.278909329E-1,7.725221479E0
6.296677833E0,3.726382296E0,-6.736480089E0,2.177258549E0,8.000408977E0
6.306703833E0,2.088051819E0,-5.416244869E0,2.801276766E0,6.445372014E0
6.316730833E0,-2.595771402E0,-3.174998338E0,7.397379765E-1,4.167236001E0
6.326756833E0,-7.148535715E0,-2.202905168E0,-2.545952539E0,7.901659850E0
6.336783833E0,-8.355290514E0,-1.722549970E0,-2.646530496E0,8.932087194E0
6.346809833E0,-6.797583493E0,-1.609953062E0,-1.821295555E0,7.219155609E0
6.356836833E0,-4.719492406E0,-1.986916038E0,-1.342476421E0,5.293740346E0
6.366862833E0,-4.348308525E0,-2.207623871E0,-1.518846425E0,5.107669199E0
6.376889833E0,-4.328556923E0,-2.585650456E0,-1.360210880E0,5.222276032E0
6.386915833E0,-3.267938662E0,-2.754289418E0,-4.013903777E-1,4.292627113E0
6.396942833E0,-1.815529324E0,-1.916198058E0,9.190389707E-1,2.795101850E0
6.406968833E0,-4.721993552E-1,-9.219825321E-1,1.328791451E0,1.684847394E0
6.416995833E0,8.514912777E-2,-4.751453286E-1,1.081091702E0,1.183964833E0
6.427021833E0,-5.005201980E-2,-3.163285196E-1,9.087140304E-1,9.634988978E-1
6.437048833E0,-5.511662950E-1,-9.166036785E-2,1.188879860E0,1.313629030E0
6.447074833E0,-6.367639773E-1,2.682299083E-1,2.038870304E0,2.152767466E0
6.457101833E0,-9.564294297E-1,3.304828745E-1,3.187441213E0,3.344212564E0
6.467127833E0,-1.845584158E0,3.435835612E-1,3.152693549E0,3.669292461E0
6.477154833E0,-2.470136957E0,6.631947076E-1,2.589762218E0,3.639817598E0
6.487180833E0,-2.110552490E0,1.146612677E0,2.706713548E0,3.618763694E0
6.497207833E0,-1.630706292E0,1.639245858E0,3.045718739E0,3.823968179E0
6.507233833E0,-1.222819585E0,2.056342953E0,2.966714669E0,3.811197976E0
6.517260833E0,-9.258680800E-1,2.353847532E0,3.209371780E0,4.086306049E0
6.527286833E0,-1.169831239E0,2.535359139E0,3.204332650E0,4.250211621E0
6.537313833E0,-1.348027475E0,2.481400448E0,2.538905475E0,3.797442201E0
6.547339833E0,-1.097319772E0,2.173507707E0,2.719088595E0,3.649888932E0
6.557366833E0,-1.019780722E0,1.766472500E0,2.526985341E0,3.247465586E0
6.567392833E0,-7.487090671E-1,1.310591408E0,2.008359825E0,2.512314529E0
6.577419833E0,-4.875846952E-3,5.949933690E-1,9.681452765E-1,1.136374128E0
6.587445833E0,4.681191681E-1,-1.886896491E-3,6.896418102E-1,8.335136126E-1
6.597472833E0,7.335065988E-1,-2.091584122E-1,1.401008365E0,1.595181373E0
6.607498833E0,1.169607145E0,-1.419224489E-1,1.592726872E0,1.981136478E0
6.617525833E0,1.265873072E0,1.000604779E-1,1.366095226E0,1.865117396E0
6.627551833E0,8.699961072E-1,3.707859778E-1,8.803509414E-1,1.292050018E0
6.637579417E0,-1.417803615E-2,6.651219499E-1,6.254848444E-1,9.131371833E-1
6.647605417E0,-7.184095265E-1,1.109216225E0,4.160980985E-1,1.385500093E0
6.657632417E0,-1.014276446E0,1.532278649E0,2.068747821E-1,1.849170555E0
6.667658417E0,-7.135097060E-1,1.786016234E0,-2.942482638E-1,1.945644399E0
6.677685417E0,-3.074278879E-1,1.734909815E0,-6.315554237E-1,1.871706768E0
6.687711417E0,-3.763500421E-1,1.652834787E0,-5.482267535E-1,1.781587708E0
6.697738417E0,-4.146073508E-1,1.422494836E0,-1.537852800E-1,1.489644497E0
6.707764417E0,-2.735929745E-1,1.196363711E0,4.030830735E-1,1.291748896E0
6.717791417E0,-1.794814539E-1,9.588264227E-1,5.868677858E-1,1.138409197E0
6.727817417E0,-4.371816963E-1,7.647912490E-1,2.122773170E-1,9.061430072E-1
6.737844417E0,-4.779519922E-1,6.912414622E-1,-3.285044691E-1,9.023126133E-1
6.747870417E0,-4.597668591E-1,7.628523123E-1,-5.088668060E-1,1.025804388E0
6.757897417E0,-5.966463768E-1,1.001038642E0,-2.419069129E-1,1.190203435E0
6.767923417E0,-4.399360272E-1,1.455977163E0,1.673049197E-1,1.530164744E0
6.777950417E0,-1.763376984E-1,1.815583264E0,7.400116262E-1,1.968515883E0
6.787976417E0,-1.381229281E-2,1.992754483E0,1.234183210E0,2.344028457E0
6.798003417E0,-1.547550407E-1,1.987497252E0,1.466136992E0,2.474601408E0
6.808029417E0,-4.120977259E-1,1.867432864E0,1.368727350E0,2.351710993E0
6.818056417E0,-7.033054376E-1,1.679909735E0,1.134056951E0,2.145418473E0
6.828082417E0,-8.803351539E-1,1.465927370E0,7.164575797E-1,1.853980717E0
6.838109417E0,-9.475269708E-1,1.380066270E0,4.718068609E-1,1.739250409E0
6.848135417E0,-7.578511888E-1,1.480595695E0,3.673162401E-1,1.703356468E0
6.858162417E0,-4.610392132E-1,1.647852960E0,2.775980249E-1,1.733504311E0
6.868188417E0,-1.012503862E-1,1.855337314E0,9.825456530E-2,1.860693997E0
6.878215417E0,1.564969262E-1,2.005689109E0,-7.150998563E-2,2.013055828E0
6.888241417E0,1.357852113E-1,2.059638444E0,-2.449878109E-1,2.078597405E0
6.898268417E0,-1.714295456E-1,2.088234837E0,-6.953377292E-1,2.207624828E0
6.908294417E0,-5.462960029E-1,2.142432094E0,-1.146278216E0,2.490463481E0
6.918321417E0,-7.738301674E-1,2.246499084E0,-1.440837260E0,2.778773699E0
6.928347417E0,-1.010293323E0,2.417323735E0,-1.781950372E0,3.168516020E0
6.938374417E0,-1.448357364E0,2.567070928E0,-2.079975353E0,3.607476912E0
6.948400417E0,-1.938449345E0,2.736414480E0,-2.266392189E0,4.047478675E0
6.958427417E0,-2.459749670E0,2.856347305E0,-2.498870759E0,4.522548334E0
6.968453417E0,-3.001967240E0,2.868466244E0,-2.563912847E0,4.879913420E0
6.978480417E0,-3.696781644E0,2.443637375E0,-2.947438738E0,5.322119245E0
6.988506417E0,-5.051665125E0,9.594766331E-1,-5.327032730E0,7.403863428E0
6.998533417E0,-8.074344665E0,-3.133609407E0,-8.952565466E0,1.245644324E1
7.008559417E0,-1.052926015E1,-1.136417355E1,-7.283659022E0,1.711903760E1
7.018586417E0,-6.827430021E0,-2.010794781E1,6.265645913E0,2.214049874E1
7.028612417E0,-7.969637990E-1,-2.281100100E1,1.320864030E1,2.637129304E1
7.038639417E0,5.096208630E0,-1.328759409E1,9.856300592E0,1.731121487E1
7.048665417E0,5.818901095E0,-4.431739229E-1,1.066888698E1,1.216063989E1
7.058692417E0,4.318299152E0,7.238399234E0,7.767679839E0,1.146206705E1
7.068718417E0,4.483486210E0,1.201815421E1,6.871051419E-1,1.284561376E1
7.078745417E0,6.160926958E0,1.311555731E1,-2.363515903E0,1.468199823E1
7.088771417E0,7.282714112E0,9.366631950E0,3.906410757E-1,1.187115493E1
7.098798417E0,7.374093229E0,3.255598113E0,5.626824739E0,9.830428610E0
7.108824417E0,4.349514805E0,-3.129633300E0,8.488362032E0,1.003818577E1
7.118851417E0,2.611747164E0,-7.891817397E0,7.734550685E0,1.135452682E1
7.128877417E0,2.011950161E0,-9.224583201E0,3.624168581E0,1.011313387E1
7.138904417E0,4.566873938E0,-1.157583340E1,-2.922552989E0,1.278270599E1
7.148930417E0,6.917252609E0,-1.140308092E1,-4.575497704E0,1.410013537E1
7.158957417E0,4.567487018E0,-6.805995882E0,-1.625747999E0,8.356229662E0
7.168983417E0,1.023356002E0,-1.890232328E0,2.029957978E0,2.956512329E0
7.179010417E0,-1.302015589E-1,1.758444858E0,4.336844766E0,4.681591961E0
7.189036417E0,-4.871068315E-1,4.677718728E0,5.228282028E0,7.032301083E0
7.199063417E0,-7.127498603E-1,6.321480390E0,5.016601127E0,8.101568586E0
7.209089417E0,-8.974916156E-1,6.275126004E0,3.217391821E0,7.108748673E0
7.219116417E0,-1.340439397E0,4.661546499E0,6.748926473E-1,4.897169960E0
7.229142417E0,-1.853494856E0,2.921318641E0,-9.594824803E-1,3.590285841E0
7.239169417E0,-1.096012554E0,2.170332668E0,-1.203251366E-1,2.434351155E0
7.249195417E0,3.266276591E-1,1.277118437E0,1.039802246E0,1.678959750E0
7.259222417E0,7.447071596E-1,1.773489743E-1,9.485575426E-1,1.218935119E0
7.269248417E0,1.078790530E0,-5.556831229E-1,-2.229250968E-1,1.233802391E0
7.279275417E0,1.428209759E0,-9.479453391E-1,-9.414286172E-1,1.955676692E0
7.289301417E0,1.555068172E0,-9.393779987E-1,-1.265219353E0,2.213921421E0
7.299328417E0,1.358621022E0,-7.790666413E-1,-1.616118951E0,2.250474700E0
7.309354417E0,1.040914168E0,-5.535857266E-1,-1.947438562E0,2.276505307E0
7.319381417E0,8.949866684E-1,-3.151041126E-1,-2.024639350E0,2.235946385E0
7.329407417E0,8.759580014E-1,-2.098244101E-1,-1.851400384E0,2.058886127E0
7.339434417E0,1.019655519E0,-4.192219734E-2,-1.570200182E0,1.872694171E0
7.349460417E0,1.078663938E0,1.027928817E-1,-8.928458565E-1,1.404014242E0
7.359487417E0,7.457312994E-1,2.717493474E-2,-2.049104283E-1,7.738487783E-1
7.369513417E0,2.526902749E-1,-1.272512001E-1,4.762709177E-1,5.539668131E-1
7.379540417E0,2.225573800E-1,-1.480731350E-1,1.214018210E0,1.243100018E0
7.389566417E0,3.697079705E-1,-1.496559763E-1,1.877556149E0,1.919452523E0
7.399593417E0,2.963398860E-1,-7.707331896E-2,2.235130343E0,2.256006488E0
7.409619417E0,8.250063144E-2,-6.267805874E-2,2.192026423E0,2.194473680E0
7.419646417E0,-1.628339924E-2,-5.945273459E-2,2.050284069E0,2.051210506E0
7.429672417E0,-1.457047934E-1,2.564588785E-3,1.770728104E0,1.776714519E0
7.439699417E0,-1.005490858E-1,7.350827157E-2,1.249779196E0,1.255970391E0
7.449726417E0,5.226124406E-2,1.542255753E-1,5.323134830E-1,5.566636416E-1
7.459752417E0,4.175861418E-1,1.370803696E-1,-2.592767248E-1,5.102877948E-1
7.469779417E0,8.789433704E-1,1.171840489E-1,-8.530942187E-1,1.230464667E0
7.479805417E0,1.390436600E0,-7.918767214E-2,-1.042742811E0,1.739798033E0
7.489831417E0,1.480112422E0,-8.209958553E-2,-1.139983104E0,1.870035989E0
7.499858417E0,1.428031273E0,1.361231804E-3,-1.361336323E0,1.972944944E0
7.509885417E0,1.593648393E0,-1.146282309E-1,-1.509630044E0,2.198144150E0
7.519911417E0,1.612078232E0,-2.299879485E-1,-1.721445431E0,2.369612849E0
7.529937417E0,1.526407606E0,-2.611401594E-1,-1.925564128E0,2.471014281E0
7.539964417E0,1.439475735E0,-2.507590127E-1,-1.714198392E0,2.252431265E0
7.549990417E0,1.401036432E0,-2.348499084E-1,-1.575662797E0,2.121502018E0
7.560017417E0,1.419850726E0,-1.429433727E-1,-1.518487991E0,2.083798136E0
7.570044417E0,1.466735893E0,2.250476360E-2,-1.603738056E0,2.173429640E0
7.580070417E0,1.557112944E0,1.014603013E-1,-1.723759174E0,2.325132384E0
7.590097417E0,1.613754629E0,1.708509636E-1,-1.931500952E0,2.522714804E0
7.600123417E0,1.673453824E0,2.090590096E-1,-2.164914492E0,2.744268232E0
7.610149417E0,1.746985484E0,1.531982195E-1,-2.449359314E0,3.012439050E0
7.620176417E0,1.888669952E0,6.244300067E-2,-2.702714637E0,3.297823483E0
7.630202417E0,2.109401465E0,2.729714155E-2,-2.829479933E0,3.529345034E0
7.640228958E0,2.330902765E0,-1.868302345E-2,-2.911645008E0,3.729763184E0
7.650255958E0,2.438291412E0,-6.311601520E-2,-2.875520325E0,3.770658534E0
7.660281958E0,2.497323878E0,-9.977922678E-2,-2.810276508E0,3.760882409E0
7.670308958E0,2.402600446E0,-6.774700999E-2,-2.802779208E0,3.692241846E0
7.680334958E0,2.233131472E0,-3.573175013E-2,-2.848526654E0,3.619703997E0
7.690361958E0,2.085933227E0,-1.495951653E-2,-2.911572210E0,3.581702660E0
7.700387958E0,1.868759159E0,-2.604466796E-2,-3.114984856E0,3.632639505E0
7.710413958E0,1.593557177E0,-1.335112292E-1,-3.319809312E0,3.684885831E0
7.720440958E0,1.364970075E0,-4.485726571E-1,-3.379460852E0,3.672208652E0
7.730466958E0,1.302489067E0,-1.500673279E0,-2.993966787E0,3.593373789E0
7.740493958E0,1.346648410E0,-3.546024052E0,-2.119336908E0,4.345035954E0
7.750520958E0,1.393643651E0,-6.386482133E0,-1.063299648E0,6.622688487E0
7.760546958E0,1.591770999E0,-8.145283670E0,1.564426933E-1,8.300834615E0
7.770573958E0,1.490578646E0,-7.826210468E0,1.444248233E0,8.096743045E0
7.780599958E0,7.995413978E-1,-5.941448795E0,2.450149273E0,6.476365624E0
7.790626958E0,-1.798173033E0,-3.932526176E0,1.519469885E0,4.583336897E0
7.800652958E0,-5.005945746E0,-2.659128907E0,-1.174669079E-1,5.669590623E0
7.810678958E0,-6.380617375E0,-2.085838648E0,-5.427099786E-1,6.734800300E0
7.820705958E0,-6.012407681E0,-1.825869101E0,-3.243527267E-1,6.291903431E0
7.830731958E0,-4.493751290E0,-2.037508487E0,-2.115013915E-1,4.938620691E0
7.840758958E0,-3.220983181E0,-2.239137440E0,-1.538560678E-1,3.925829952E0
7.850785958E0,-3.157402897E0,-1.789563155E0,2.614365767E-1,3.638691856E0
7.860811958E0,-3.420432292E0,-1.289288247E0,9.188168496E-1,3.769064294E0
7.870838958E0,-2.816665176E0,-7.364901406E-1,1.046649263E0,3.093783302E0
7.880864958E0,-1.711300512E0,-8.868413508E-2,1.099057857E0,2.035765824E0
7.890890958E0,-1.120686561E0,6.750341499E-1,9.849038351E-1,1.637572910E0
7.900917958E0,-9.391898645E-1,1.783628815E0,1.092093823E0,2.292613851E0
7.910943958E0,-8.338264006E-1,2.530375557E0,1.268594366E0,2.950830153E0
7.920970958E0,-9.027216576E-1,2.811488051E0,1.520329864E0,3.321260957E0
7.930997958E0,-1.115312678E0,2.622760395E0,2.224376729E0,3.615334879E0
7.941023958E0,-1.312856473E0,2.146487138E0,2.852419145E0,3.803589638E0
7.951049958E0,-1.466125590E0,1.772791586E0,3.099242982E0,3.859743685E0
7.961076958E0,-1.224290890E0,1.662371596E0,2.932845258E0,3.586634748E0
7.971102958E0,-1.017092173E0,1.712240160E0,2.606986946E0,3.280643807E0
7.981129958E0,-5.328039913E-1,1.909826932E0,2.860111742E0,3.480166401E0
7.991155958E0,-3.136732990E-1,2.091670661E0,2.898716522E0,3.588319184E0
8.001182958E0,-4.640344495E-1,2.167352927E0,2.440022042E0,3.296430531E0
8.011208958E0,-3.843598504E-1,1.994120393E0,2.316629566E0,3.080750100E0
8.021235958E0,-1.658473550E-1,1.678726258E0,2.368335032E0,2.907686025E0
8.031261958E0,-1.671631247E-1,1.171429430E0,1.731002705E0,2.096797745E0
8.041288958E0,-5.787676379E-2,4.694337684E-1,1.309947191E0,1.392723744E0
8.051314958E0,3.271034762E-2,-1.868436831E-1,1.041065464E0,1.058205004E0
8.061341958E0,2.396276683E-1,-6.475855654E-1,7.088347109E-1,9.895631012E-1
8.071367958E0,6.273161924E-1,-8.761485475E-1,5.388115668E-1,1.204773749E0
8.081394958E0,8.614072783E-1,-7.976350594E-1,5.627407122E-1,1.301891430E0
8.091420958E0,8.868952914E-1,-5.602650011E-1,3.281992444E-1,1.099179182E0
8.101447958E0,2.027916715E-1,-2.511601317E-1,1.106322438E-1,3.412409224E-1
8.111473958E0,-6.669654308E-1,1.960132867E-1,1.975160211E-2,6.954525291E-1
8.121500958E0,-1.041792566E0,6.639507526E-1,-9.230648518E-2,1.238823167E0
8.131526958E0,-9.601271358E-1,9.572459203E-1,-1.392324373E-1,1.362919492E0
8.141553958E0,-7.777828851E-1,1.064823579E0,-1.508654729E-1,1.327236174E0
8.151579958E0,-8.858093172E-1,9.910399032E-1,-1.335606381E-1,1.335910431E0
8.161606958E0,-1.013121621E0,8.508762968E-1,-5.115261197E-2,1.324017553E0
8.171632958E0,-9.546833780E-1,6.398707491E-1,-1.309735376E-1,1.156723388E0
8.181659958E0,-7.273243377E-1,5.753227508E-1,-9.387149245E-2,9.320991454E-1
8.191685958E0,-4.534539127E-1,6.554553330E-1,2.482245371E-1,8.347799502E-1
8.201712958E0,-2.980314124E-1,7.493165928E-1,5.932082140E-1,1.001096431E0
8.211738958E0,-1.705144563E-1,9.644900358E-1,8.103995311E-1,1.271244905E0
8.221765958E0,-1.565659234E-1,1.088752139E0,8.992587903E-1,1.420760529E0
8.231791958E0,-2.323797521E-1,1.022138320E0,8.422037065E-1,1.344646488E0
8.241818958E0,-3.042712685E-1,9.834315062E-1,5.013779846E-1,1.145032059E0
8.251844958E0,-2.895564580E-1,9.418256432E-1,-9.614459753E-2,9.900112465E-1
8.261871958E0,-2.687427092E-1,6.940212286E-1,-4.893192717E-1,8.906859486E-1
8.271897958E0,-1.880265749E-1,5.415059638E-1,-6.044638118E-1,8.330421367E-1
8.281924958E0,-1.734044427E-1,6.278705084E-1,-9.190741271E-1,1.126493554E0
8.291950958E0,1.774325895E-1,8.799907529E-1,-1.214550014E0,1.510297251E0
8.301977958E0,5.854732248E-1,1.254088594E0,-1.148468291E0,1.798470604E0
8.312003958E0,6.969883981E-1,1.628860618E0,-5.853118417E-1,1.865896485E0
8.322030958E0,3.080453539E-1,1.945558097E0,3.032637933E-1,1.993002052E0
8.332056958E0,-4.370782006E-1,2.152045501E0,1.336189349E0,2.570552308E0
8.342083958E0,-1.254050587E0,2.412940078E0,1.862893963E0,3.296254937E0
8.352109958E0,-1.833367278E0,2.664325327E0,1.556969979E0,3.589431785E0
8.362136958E0,-2.172796100E0,2.667595675E0,9.892819378E-1,3.579914570E0
8.372162958E0,-2.156180068E0,2.377648038E0,3.492226160E-1,3.228665222E0
8.382189958E0,-1.918039639E0,1.968218397E0,-3.712505391E-1,2.773190703E0
8.392215958E0,-1.488134510E0,1.640649775E0,-9.560267758E-1,2.412522165E0
8.402242958E0,-1.092086514E0,1.423329819E0,-1.341537504E0,2.240143657E0
8.412268958E0,-9.467364272E-1,1.342237709E0,-1.627133059E0,2.312028097E0
8.422295958E0,-1.091956121E0,1.373230875E0,-1.721148685E0,2.457739612E0
8.432321958E0,-1.368349620E0,1.504978584E0,-1.765091388E0,2.693118792E0
8.442348958E0,-1.657748787E0,1.667404295E0,-1.810107054E0,2.967297705E0
8.452374958E0,-1.948282023E0,1.883303962E0,-1.745452637E0,3.223234642E0
8.462401958E0,-2.170622983E0,2.167095065E0,-1.670540010E0,3.492650724E0
8.472427958E0,-2.490775874E0,2.363310081E0,-1.523657222E0,3.756425205E0
8.482454958E0,-3.223429656E0,2.076859079E0,-1.362129936E0,4.069304651E0
8.492480958E0,-4.761492956E0,8.924751431E-1,-1.850751343E0,5.185904702E0
8.502507958E0,-7.323872663E0,-1.913202530E0,-3.161750594E0,8.203421330E0
8.512533958E0,-9.815587599E0,-6.932605058E0,-3.491297329E0,1.251382954E1
8.522560958E0,-8.651920933E0,-1.330598943E1,-1.607415663E0,1.595270747E1
8.532586958E0,-3.401938718E0,-1.719719450E1,4.010918042E0,1.798344097E1
8.542613958E0,3.582384378E0,-1.232938396E1,5.828610982E0,1.410035080E1
8.552639958E0,6.498906548E0,-1.969796560E0,5.630543568E0,8.821502462E0
8.562666958E0,4.799057223E0,4.884038317E0,7.384060977E0,1.007021038E1
8.572692958E0,3.443819108E0,9.258123415E0,4.472179742E0,1.084311444E1
8.582719958E0,2.925572198E0,1.099067329E1,4.589500031E-1,1.138264061E1
8.592745958E0,4.410104531E0,8.676059994E0,-3.306256928E-1,9.738190403E0
8.602772958E0,7.387083403E0,4.066702234E0,1.723914418E0,8.606912872E0
8.612798958E0,7.216140638E0,-5.816494381E-1,4.117727961E0,8.328666480E0
8.622825958E0,4.859770325E0,-4.754957523E0,4.962809082E0,8.417628089E0
8.632851958E0,3.137629368E0,-6.478100985E0,4.788259170E0,8.645110543E0
8.642879417E0,2.109851116E0,-5.675219804E0,2.499361925E0,6.550297825E0
8.652905417E0,3.154088110E0,-6.393667191E0,-1.202120880E0,7.229961727E0
8.662932417E0,3.748000621E0,-6.480984832E0,-3.217257335E0,8.148706512E0
8.672958417E0,2.372672642E0,-3.960308052E0,-1.360186322E0,4.812870470E0
8.682985417E0,4.913007469E-1,-9.541521585E-1,2.056808392E0,2.319966277E0
8.693011417E0,2.828286517E-1,1.031531872E0,4.191373057E0,4.325697418E0
8.703038417E0,9.006097895E-1,2.613109565E0,4.228411660E0,5.051623973E0
8.713064417E0,6.320306562E-1,3.500588847E0,3.669130161E0,5.110391489E0
8.723091417E0,-7.880555660E-2,3.432505038E0,2.038736987E0,3.993087734E0
8.733117417E0,-9.721644332E-1,2.699544277E0,3.984538694E-1,2.896792791E0
8.743144417E0,-1.275307555E0,1.783780258E0,6.783939600E-1,2.295321270E0
8.753170417E0,-6.706345586E-1,8.826237541E-1,1.356238282E0,1.751615734E0
8.763197417E0,4.683260134E-1,-1.706591749E-1,1.443210937E0,1.526863326E0
8.773223417E0,1.089564244E0,-9.678860986E-1,7.290390337E-1,1.629555662E0
8.783250417E0,1.476652479E0,-1.181338121E0,2.865977669E-1,1.912642303E0
8.793276417E0,1.614895567E0,-8.950069875E-1,-2.444229698E-1,1.862435982E0
8.803303417E0,1.371745098E0,-3.468123937E-1,-8.628280056E-1,1.657237345E0
8.813329417E0,1.073315344E0,1.765017128E-1,-6.538204515E-1,1.269109871E0
8.823356417E0,8.701937431E-1,4.725596899E-1,-1.356232435E-1,9.994715980E-1
8.833382417E0,5.587450904E-1,5.990297019E-1,-3.818454015E-1,9.037912207E-1
8.843409417E0,2.476031973E-1,5.793023658E-1,-1.152281918E-1,6.404499282E-1
8.853435417E0,-6.119812846E-2,5.487968570E-1,1.511516941E-1,5.725120399E-1
8.863462417E0,-3.122753759E-1,5.370386910E-1,1.792095584E-1,6.465620866E-1
8.873488417E0,-2.197691717E-1,4.923501760E-1,4.815555946E-1,7.229128408E-1
8.883515417E0,-1.066854828E-1,3.301039749E-1,7.199611583E-1,7.991836434E-1
8.893541417E0,4.311375026E-2,-3.983474135E-2,9.105225011E-1,9.124126408E-1
8.903568417E0,1.382640288E-1,-3.954612279E-1,7.796811106E-1,8.851040383E-1
8.913594417E0,1.980770615E-1,-4.897563511E-1,3.892456377E-1,6.562072631E-1
8.923621417E0,3.545017746E-1,-4.328787303E-1,-5.984332860E-2,5.627048314E-1
8.933647417E0,5.702226997E-1,-2.550678259E-1,-4.635018412E-1,7.778479799E-1
8.943674417E0,5.658421119E-1,3.678307950E-2,-6.618540142E-1,8.715394579E-1
8.953700417E0,5.870138200E-1,3.246151936E-1,-7.612349725E-1,1.014612701E0
8.963727417E0,6.313124719E-1,4.155978692E-1,-8.619187635E-1,1.146377329E0
8.973753417E0,7.244466305E-1,5.161664701E-1,-7.862288958E-1,1.187184325E0
8.983780417E0,8.213864493E-1,5.123692882E-1,-6.591402483E-1,1.171180538E0
8.993806417E0,8.642913444E-1,3.632150030E-1,-7.234093344E-1,1.184164571E0
9.003833417E0,8.379280762E-1,1.726747102E-1,-9.535368852E-1,1.281082592E0
9.013859417E0,8.848602410E-1,-1.093692452E-1,-1.127626622E0,1.437526026E0
9.023886417E0,9.166291869E-1,-2.941237181E-1,-1.318441149E0,1.632484270E0
9.033912417E0,1.020960983E0,-2.134093380E-1,-1.255865124E0,1.632514038E0
9.043939417E0,9.589215861E-1,-5.367743969E-4,-1.164373741E0,1.508408799E0
9.053965417E0,8.684241564E-1,4.565155149E-2,-1.368375347E0,1.621325282E0
9.063992417E0,9.827297672E-1,9.583703399E-2,-1.667612748E0,1.938007949E0
9.074018417E0,1.148318968E0,8.211654246E-2,-2.010910673E0,2.317140762E0
9.084045417E0,1.341004969E0,3.629366755E-3,-2.174871862E0,2.555068515E0
9.094071417E0,1.566112393E0,-1.482871431E-1,-2.219621188E0,2.720554231E0
9.104098417E0,1.805470505E0,-2.960883826E-1,-2.188982509E0,2.852899665E0
9.114124417E0,1.804346962E0,-2.930987012E-1,-2.148314978E0,2.820785716E0
9.124151417E0,1.743144741E0,-2.302604288E-1,-2.336479693E0,2.924159847E0
9.134177417E0,1.578021125E0,-1.829313111E-1,-2.612942920E0,3.057954420E0
9.144204417E0,1.282519510E0,-8.588916600E-2,-2.952361217E0,3.220041925E0
9.154230417E0,9.688061580E-1,-4.414647818E-2,-3.326365210E0,3.464857831E0
9.164257417E0,7.404210775E-1,-5.643264771E-2,-3.545288765E0,3.622220374E0
9.174283417E0,6.248974185E-1,1.864840794E-1,-3.661170346E0,3.718795692E0
9.184310417E0,5.025532749E-1,5.523244822E-1,-3.861659676E0,3.933196866E0
9.194336417E0,4.802438083E-1,7.444312441E-1,-4.256692888E0,4.347901372E0
9.204363417E0,6.868433328E-1,6.255631971E-1,-4.495047033E0,4.590046939E0
9.214389417E0,1.365993338E0,-2.613775563E-1,-4.014048349E0,4.248157268E0
9.224416417E0,2.293513476E0,-2.524423091E0,-2.784132437E0,4.402761569E0
9.234442417E0,2.940260112E0,-6.351480115E0,-1.327993599E0,7.123903156E0
9.244469417E0,3.754092835E0,-9.313477251E0,-1.967120290E-1,1.004354356E1
9.254495417E0,4.667528200E0,-9.748974364E0,1.084188826E0,1.086295476E1
9.264522417E0,4.703871569E0,-7.902485642E0,2.448102601E0,9.516769063E0
9.274548417E0,3.120740855E0,-4.997683046E0,2.406205109E0,6.364407461E0
9.284575417E0,-1.246913914E0,-2.977199312E0,2.262578635E-1,3.235691993E0
9.294601417E0,-5.758225708E0,-2.163551068E0,-1.800523760E0,6.409368326E0
9.304628417E0,-7.345153604E0,-1.703794441E0,-6.265974234E-1,7.566162918E0
9.314654417E0,-6.680608774E0,-1.634946985E0,7.378309071E-1,6.917223409E0
9.324681417E0,-5.395654483E0,-2.284773788E0,7.193302437E-1,5.903449379E0
9.334707417E0,-5.729819934E0,-2.548780838E0,1.976288724E-1,6.274247159E0
9.344734417E0,-6.411093648E0,-2.506936408E0,4.106482011E-1,6.896048424E0
9.354760417E0,-4.968503686E0,-1.962015086E0,8.222079831E-1,5.404771784E0
9.364787417E0,-2.792203934E0,-1.165832475E0,6.450788641E-1,3.093815590E0
9.374813417E0,-9.225081968E-1,-3.001703238E-1,8.241884351E-1,1.272953327E0
9.384840417E0,1.695688154E-1,6.938323635E-1,1.032573845E0,1.255534021E0
9.394866417E0,2.714524551E-1,1.296559845E0,1.463829389E0,1.974221453E0
9.404893417E0,-4.694831774E-2,1.362858499E0,2.048588376E0,2.460955458E0
9.414919417E0,-4.911576363E-1,1.173969460E0,2.310652395E0,2.637907241E0
9.424946417E0,-7.309798707E-1,9.794150537E-1,2.556271706E0,2.833392040E0
9.434972417E0,-6.147771308E-1,1.158248636E0,2.384244282E0,2.721049728E0
9.444999417E0,-6.963207923E-1,1.648630639E0,2.226553208E0,2.856638728E0
9.455025417E0,-7.024939902E-1,2.276606982E0,2.203067282E0,3.244987305E0
9.465052417E0,-5.376206352E-1,2.787513297E0,2.159164925E0,3.566687469E0
9.475078417E0,-1.909541295E-1,2.984438750E0,3.070360075E0,4.286076192E0
9.485105417E0,-4.845879972E-2,3.057662262E0,3.417759237E0,4.586144891E0
9.495131417E0,-2.294111207E-2,2.912301065E0,2.929569647E0,4.130908146E0
9.505158417E0,6.018407509E-2,2.510739437E0,2.216442203E0,3.349634411E0
9.515184417E0,1.759959286E-1,1.913429402E0,1.984904889E0,2.762613628E0
9.525211417E0,5.076728046E-1,8.931721312E-1,1.971117885E0,2.222789655E0
9.535237417E0,9.517385741E-1,5.125493824E-2,1.271574107E0,1.589129980E0
9.545264417E0,9.560500185E-1,-6.636198002E-1,8.221676373E-1,1.424914910E0
9.555290417E0,1.065136112E0,-1.034886419E0,3.183475631E-1,1.518831791E0
9.565317417E0,1.036265193E0,-1.075947906E0,-4.345358312E-3,1.493830087E0
9.575343417E0,3.558472189E-1,-8.426901948E-1,1.553154963E-1,9.278345279E-1
9.585370417E0,-3.350337625E-1,-3.188241112E-1,6.956634191E-1,8.353705935E-1
9.595396417E0,-6.858912599E-1,4.044986844E-1,5.484369609E-1,9.668759518E-1
9.605423417E0,-3.245204687E-1,1.179336619E0,-5.421187520E-2,1.224372216E0
9.615449417E0,6.451145321E-2,1.524862041E0,-4.631050345E-1,1.594939574E0
9.625476417E0,5.392653108E-2,1.336555384E0,-3.998606730E-1,1.396129265E0
9.635502417E0,-2.291509196E-1,9.194886947E-1,-9.929390788E-2,9.528005477E-1
9.645529208E0,-2.945868176E-1,4.336955863E-1,1.641696426E-1,5.493859538E-1
9.655555208E0,-5.242832825E-1,1.472714818E-1,4.491430530E-1,7.058975362E-1
9.665582208E0,-7.520779404E-1,1.710684800E-1,7.515236244E-1,1.076881336E0
9.675608208E0,-6.879091340E-1,2.344107825E-1,1.000389601E0,1.236505861E0
9.685635208E0,-8.196018791E-1,1.164215720E-1,1.274542154E0,1.519789105E0
9.695661208E0,-1.076915621E0,1.572608650E-1,1.377348192E0,1.755439055E0
9.705688208E0,-1.262668213E0,5.027430171E-1,1.289449046E0,1.873435454E0
9.715714208E0,-1.303847814E0,9.747016132E-1,1.038022573E0,1.930687240E0
9.725741208E0,-1.186361464E0,1.507620941E0,5.766939229E-1,2.003234960E0
9.735767208E0,-1.109770541E0,1.805782746E0,2.710090899E-1,2.136793838E0
9.745794208E0,-1.086048971E0,1.932094299E0,1.783546954E-2,2.216485698E0
9.755820208E0,-1.001895551E0,2.007553201E0,-1.731503811E-1,2.250343442E0
9.765846208E0,-9.217267165E-1,2.027434904E0,-1.422460923E-1,2.231660006E0
9.775873208E0,-7.813379923E-1,1.928024637E0,1.166978529E-1,2.083599397E0
9.785900208E0,-6.051236701E-1,1.826184266E0,3.073331630E-1,1.948224141E0
9.795926208E0,-5.228188473E-1,1.726237224E0,3.884024692E-1,1.845017881E0
9.805953208E0,-5.202919731E-1,1.696676626E0,4.932164410E-1,1.841922302E0
9.815979208E0,-5.709145349E-1,1.744676419E0,5.707285935E-1,1.922386626E0
9.826005208E0,-6.248279098E-1,1.811774973E0,6.321801987E-1,2.018065973E0
9.836032208E0,-6.675023514E-1,1.881579033E0,6.352748376E-1,2.095106958E0
9.846058208E0,-7.770189464E-1,1.937308846E0,4.304401490E-1,2.131244408E0
9.856085208E0,-8.904911828E-1,1.984422201E0,6.486345559E-2,2.176031545E0
9.866111208E0,-9.386204919E-1,1.955156887E0,-3.895330283E-1,2.203493331E0
9.876138208E0,-9.484373823E-1,1.881450979E0,-9.898935565E-1,2.327934816E0
9.886164208E0,-7.920179316E-1,1.832919089E0,-1.415842752E0,2.447753151E0
9.896191208E0,-7.164727825E-1,1.845522763E0,-1.692567495E0,2.604625163E0
9.906217208E0,-8.133354181E-1,1.934474700E0,-1.991644097E0,2.893156248E0
9.916244208E0,-1.023269463E0,2.147739612E0,-2.272778810E0,3.290195945E0
9.926270208E0,-1.340383264E0,2.403300943E0,-2.380825415E0,3.638792708E0
9.936297208E0,-1.598522340E0,2.653754731E0,-2.290804022E0,3.852982080E0
9.946323208E0,-1.612110685E0,2.891068071E0,-1.932551551E0,3.833005472E0
9.956350208E0,-1.536920754E0,3.030888446E0,-1.773724802E0,3.833341864E0
9.966376208E0,-1.492029925E0,3.063463869E0,-1.570900678E0,3.752158461E0
9.976403208E0,-1.321762806E0,3.129661367E0,-1.429730473E0,3.685914597E0
9.986429208E0,-1.948817920E0,2.993814175E0,-2.167306150E0,4.178280812E0
9.996456208E0,-4.551897464E0,1.498826144E0,-4.716556226E0,6.723998287E0
1.000648221E1,-8.753178921E0,-2.874296502E0,-8.607241774E0,1.260810583E1
1.001650921E1,-1.032908774E1,-1.217170677E1,-4.993453170E0,1.672647823E1
1.002653521E1,-6.372286847E0,-2.358887481E1,8.828208053E0,2.598034472E1
1.003656221E1,8.525480157E-1,-2.638048291E1,8.440715411E0,2.771105183E1
1.004658821E1,8.611899666E0,-1.464773714E1,2.237172775E0,1.713843520E1
1.005661521E1,7.497828498E0,-9.024540013E-1,9.419048145E0,1.207270986E1
1.006664121E1,4.530035309E0,7.828213139E0,1.208352842E1,1.509350191E1
1.007666821E1,3.084595706E0,1.316181463E1,4.859955389E0,1.436548856E1
1.008669421E1,3.561270082E0,1.501642046E1,-3.460067058E0,1.581605488E1
1.009672121E1,5.413387919E0,1.276961030E1,-5.052657398E0,1.476133676E1
1.010674721E1,6.424418868E0,6.548662260E0,7.690401283E-1,9.205952308E0
1.011677421E1,3.999131809E0,-7.230345279E-1,7.225251185E0,8.289758069E0
1.012680021E1,1.825829925E0,-7.805103189E0,9.877398516E0,1.272070329E1
1.013682721E1,1.424081186E0,-8.980462532E0,8.248613327E0,1.227665819E1
1.014685321E1,4.635714669E0,-1.167554714E1,2.311063747E-1,1.256430108E1
1.015688021E1,7.188030149E0,-1.227420963E1,-6.299734011E0,1.555669143E1
1.016690621E1,3.791464437E0,-7.296962607E0,-3.447706629E0,8.916700447E0
1.017693321E1,4.074146909E-1,-2.410997633E0,2.186833803E0,3.280417412E0
1.018695921E1,2.817507175E-1,1.428254929E0,5.381438148E0,5.574869698E0
1.019698621E1,2.332973995E-1,4.760817602E0,5.955901358E0,7.628405660E0
1.020701221E1,-6.358533465E-1,6.528900425E0,5.652565352E0,8.659234683E0
1.021703921E1,-7.600615094E-1,6.481835017E0,3.946919682E0,7.626929504E0
1.022706521E1,-1.880331822E0,5.149741643E0,7.110810649E-1,5.528211558E0
1.023709221E1,-2.757971994E0,3.101414638E0,-1.215475920E0,4.324646111E0
1.024711821E1,-1.420106103E0,1.700214191E0,-3.998501480E-1,2.251068586E0
1.025714521E1,2.267836013E-1,9.328782338E-1,3.019127941E-1,1.006401479E0
1.026717121E1,1.184587419E0,3.481724560E-2,2.406164324E-1,1.209279067E0
1.027719821E1,1.550619026E0,-6.764105844E-1,9.362331469E-2,1.694318732E0
1.028722421E1,1.954650810E0,-1.111804202E0,-4.925904600E-1,2.302045554E0
1.029725121E1,2.068452391E0,-1.085999855E0,-1.190824059E0,2.622203828E0
1.030727721E1,1.649417382E0,-5.769248879E-1,-1.432057958E0,2.259249880E0
1.031730421E1,1.060643185E0,1.826395351E-1,-1.453346500E0,1.808462666E0
1.032733021E1,6.019052164E-1,6.945696974E-1,-1.326599330E0,1.613871971E0
1.033735721E1,3.548213980E-1,6.516154665E-1,-1.235112040E0,1.440834027E0
1.034738321E1,1.810783285E-1,3.772869122E-1,-7.808740157E-1,8.859452599E-1
1.035741021E1,1.011565750E-1,9.223339498E-2,1.461215537E-2,1.376705012E-1
1.036743621E1,8.070389170E-2,-2.715446949E-3,7.723802771E-1,7.765898430E-1
1.037746321E1,1.187540263E-2,-7.176521659E-2,1.379640008E0,1.381556305E0
1.038748921E1,3.953302503E-3,-4.461308599E-2,1.582154229E0,1.582788034E0
1.039751621E1,1.269977598E-1,-7.762646556E-2,1.219295833E0,1.228347112E0
1.040754221E1,3.003252385E-1,-1.035682225E-1,8.589882121E-1,9.158506287E-1
1.041756921E1,5.060963953E-1,4.812843204E-2,6.726619345E-1,8.431630835E-1
1.042759521E1,4.459266458E-1,-5.991992712E-2,5.790380716E-1,7.332980701E-1
1.043762221E1,3.629423766E-1,-1.685594398E-1,4.232319939E-1,5.824643973E-1
1.044764821E1,2.413496367E-1,-2.693642682E-1,-1.233163163E-2,3.618823362E-1
1.045767521E1,7.760070127E-2,-3.588249135E-1,-7.011769049E-1,7.914709340E-1
1.046770121E1,-9.138540253E-2,-2.994125247E-1,-1.394494860E0,1.429200848E0
1.047772821E1,-9.351539701E-2,-2.035784143E-1,-1.934910902E0,1.947837134E0
1.048775421E1,1.691864440E-1,-1.028215331E-1,-2.235068216E0,2.243819567E0
1.049778121E1,5.894936607E-1,-4.099892199E-2,-2.374242181E0,2.446673175E0
1.050780721E1,1.008842628E0,1.064836442E-2,-2.420594668E0,2.622433103E0
1.051783421E1,1.311869317E0,9.397294164E-2,-2.536068406E0,2.856829533E0
1.052786021E1,1.472830008E0,7.285572231E-2,-2.568207042E0,2.961456331E0
1.053788721E1,1.491694441E0,-9.342856586E-2,-2.291553781E0,2.735891068E0
1.054791321E1,1.546281707E0,-2.992242444E-1,-1.869440944E0,2.444449163E0
1.055794021E1,1.665104731E0,-5.031301028E-1,-1.626969044E0,2.381751863E0
1.056796621E1,1.649646154E0,-5.540950191E-1,-1.606595152E0,2.368438665E0
1.057799321E1,1.575935423E0,-3.798567635E-1,-1.857273035E0,2.465223467E0
1.058801921E1,1.511149735E0,-2.161557752E-1,-2.420735147E0,2.861862242E0
1.059804621E1,1.473446889E0,-8.793861508E-2,-2.943869598E0,3.293197101E0
1.060807221E1,1.456585566E0,-6.662142098E-2,-3.117129614E0,3.441304543E0
1.061809921E1,1.539917159E0,-3.442203230E-1,-3.257882620E0,3.619893873E0
1.062812521E1,1.745394896E0,-5.314744806E-1,-3.313021864E0,3.782192794E0
1.063815154E1,1.859779882E0,-6.279909611E-1,-3.287992565E0,3.829366653E0
1.064817754E1,1.783662437E0,-5.985350275E-1,-3.386098318E0,3.873674959E0
1.065820454E1,1.649454951E0,-3.678635395E-1,-3.706614029E0,4.073697679E0
1.066823054E1,1.264255732E0,8.033957362E-2,-4.162790698E0,4.351278364E0
1.067825754E1,1.121018245E0,2.532616210E-1,-4.392133698E0,4.540006804E0
1.068828354E1,1.065736183E0,1.853403640E-1,-4.478576888E0,4.607363194E0
1.069831054E1,1.428378305E0,-1.038381300E0,-3.975759319E0,4.350306020E0
1.070833654E1,2.531288892E0,-4.057551926E0,-2.430612410E0,5.364608818E0
1.071836354E1,3.991011781E0,-7.638361064E0,5.595867240E-1,8.636311254E0
1.072838954E1,5.208481602E0,-8.888623239E0,3.345071914E0,1.083168546E1
1.073841654E1,5.369831425E0,-8.641254442E0,5.180410289E0,1.141678670E1
1.074844254E1,3.645374093E0,-7.632013326E0,5.400065038E0,1.003479358E1
1.075846954E1,-2.903556262E0,-4.864608019E0,1.720994611E0,5.920884444E0
1.076849554E1,-9.188739769E0,-3.616133337E0,-2.837795259E0,1.027435841E1
1.077852254E1,-9.158919554E0,-3.147301247E0,-1.741817569E0,9.839981757E0
1.078854854E1,-6.627454076E0,-2.204416088E0,-5.755245528E-1,7.008125736E0
1.079857554E1,-4.232444485E0,-1.587951159E0,-6.733437198E-1,4.570401182E0
1.080860154E1,-4.035306486E0,-1.375914747E0,-1.215705131E0,4.433371042E0
1.081862854E1,-4.549990395E0,-1.511492382E0,-1.340525059E0,4.978356079E0
1.082865454E1,-3.100996562E0,-1.862195513E0,-5.836579933E-1,3.663960761E0
1.083868154E1,-1.248763242E0,-1.934439617E0,1.465586879E-1,2.307150995E0
1.084870754E1,1.816588108E-1,-1.195697129E0,1.005808800E-1,1.213593038E0
1.085873454E1,6.132219176E-1,-1.766367835E-1,4.349100530E-1,7.722618906E-1
1.086876054E1,3.967597483E-1,4.535544848E-1,8.904841661E-1,1.075217196E0
1.087878754E1,2.262331590E-1,7.755571425E-1,1.529740519E0,1.729964271E0
1.088881354E1,-1.848616232E-1,8.928552121E-1,2.113125265E0,2.301447943E0
1.089883954E1,-9.657813933E-1,9.719943523E-1,2.714645880E0,3.040856619E0
1.090886654E1,-1.547101341E0,1.218525828E0,3.250001743E0,3.800110404E0
1.091889254E1,-1.375244364E0,1.771418660E0,3.022167324E0,3.763338473E0
1.092891954E1,-1.367534518E0,2.368668469E0,2.943619337E0,4.018163234E0
1.093894554E1,-8.263738319E-1,2.828794055E0,3.581948175E0,4.638461194E0
1.094897254E1,-4.033383045E-1,3.144915583E0,3.292758923E0,4.571152714E0
1.095899854E1,-2.860438894E-1,3.284116153E0,2.831439335E0,4.345605680E0
1.096902554E1,1.233674794E-2,2.925276037E0,2.830321348E0,4.070394455E0
1.097905154E1,-8.309244275E-2,2.297054695E0,2.316395677E0,3.263288764E0
1.098907854E1,-6.398754269E-2,1.765438128E0,1.746655117E0,2.484284662E0
1.099910454E1,1.087481247E-1,1.221040131E0,2.160196812E0,2.483790536E0
1.100913154E1,7.557235332E-1,4.347790754E-1,2.195626846E0,2.362398813E0
1.101915754E1,1.454053721E0,-6.854749382E-2,1.802343414E0,2.316767741E0
1.102918454E1,1.786785142E0,-5.272580534E-1,1.446230147E0,2.358428256E0
1.103921054E1,1.691617761E0,-8.466703945E-1,1.033957004E0,2.155803445E0
1.104923754E1,1.437078085E0,-1.002398704E0,9.068668950E-1,1.972917674E0
1.105926354E1,1.021948870E0,-8.727366972E-1,1.309859044E0,1.876640496E0
1.106929054E1,6.556620321E-1,-3.921499497E-1,1.262450404E0,1.475620313E0
1.107931654E1,3.991446814E-1,3.102269500E-1,4.843959162E-1,7.001404436E-1
1.108934354E1,4.917441121E-1,1.128679267E0,-4.566125786E-1,1.313097181E0
1.109936954E1,4.325547945E-1,1.529373168E0,-8.162180954E-1,1.786700287E0
1.110939654E1,2.201707658E-1,1.639106694E0,-6.343799213E-1,1.771322615E0
1.111942254E1,9.383904040E-3,1.566197762E0,-1.919407010E-1,1.577943193E0
1.112944954E1,5.220131010E-2,1.280426792E0,2.635062352E-1,1.308301679E0
1.113947554E1,-1.285261855E-1,1.033222302E0,5.124587506E-1,1.160465974E0
1.114950254E1,-3.005328512E-1,8.700288516E-1,7.245822859E-1,1.171447688E0
1.115952854E1,-3.816009879E-1,8.238691771E-1,9.278648311E-1,1.298196010E0
1.116955554E1,-3.787545633E-1,7.603935581E-1,1.244328421E0,1.506654109E0
1.117958154E1,-4.189910084E-1,8.178325117E-1,1.613172539E0,1.856536863E0
1.118960854E1,-5.198864686E-1,1.021906770E0,1.866311368E0,2.190363785E0
1.119963454E1,-4.170444703E-1,1.322477628E0,2.044101807E0,2.470065863E0
1.120966154E1,-3.349878618E-1,1.587866959E0,2.080601297E0,2.638643611E0
1.121968754E1,-3.176438507E-1,1.842794452E0,1.904934567E0,2.669375341E0
1.122971454E1,-3.082318801E-1,2.049281271E0,1.533143452E0,2.577807104E0
1.123974054E1,-2.827514684E-1,2.167729488E0,1.101140635E0,2.447756161E0
1.124976754E1,-1.784809953E-1,2.201828696E0,7.618468836E-1,2.336731851E0
1.125979354E1,-2.576300758E-1,2.157849448E0,3.209945977E-1,2.196753292E0
1.126982054E1,-2.601639667E-1,2.042243562E0,-2.534063396E-1,2.074285137E0
1.127984654E1,-1.861168742E-1,1.920150776E0,-2.771670851E-1,1.948958718E0
1.128987354E1,-3.162001732E-1,1.787370449E0,-3.166618109E-1,1.842539110E0
1.129989954E1,-4.995641783E-1,1.657486247E0,-3.866158524E-1,1.773780383E0
1.130992654E1,-7.302479455E-1,1.604033926E0,-4.840500534E-1,1.827701111E0
1.131995254E1,-8.560540062E-1,1.599779491E0,-5.225682941E-1,1.888173854E0
1.132997954E1,-8.210239220E-1,1.583188017E0,-5.761694276E-1,1.874176029E0
1.134000554E1,-7.024736711E-1,1.550126106E0,-6.415521160E-1,1.818776875E0
1.135003254E1,-7.368596846E-1,1.507158426E0,-8.814864707E-1,1.895127203E0
1.136005854E1,-8.152968666E-1,1.479942561E0,-1.208120123E0,2.077135815E0
1.137008554E1,-9.834937790E-1,1.513152407E0,-1.493566281E0,2.342569200E0
1.138011154E1,-1.205363453E0,1.582309765E0,-1.722763978E0,2.631448455E0
1.139013854E1,-1.495796701E0,1.792223053E0,-1.752550572E0,2.919058881E0
1.140016454E1,-1.819293907E0,2.067457926E0,-1.594116171E0,3.182046348E0
1.141019154E1,-1.973932881E0,2.411527975E0,-1.464941529E0,3.443534794E0
1.142021754E1,-1.957819416E0,2.828977658E0,-1.347809813E0,3.694964512E0
1.143024454E1,-1.749745663E0,3.446471112E0,-1.229835513E0,4.056139593E0
1.144027054E1,-2.117861509E0,3.828084379E0,-2.096416846E0,4.851240149E0
1.145029754E1,-4.684454135E0,2.326173829E0,-4.794088552E0,7.094961612E0
1.146032354E1,-9.408162968E0,-3.626208090E0,-1.138088255E1,1.520484802E1
1.147035054E1,-1.076772013E1,-1.573942517E1,-8.328468751E0,2.080953371E1
1.148037654E1,-7.343746179E0,-2.868921157E1,1.484176997E1,3.312521101E1
1.149040354E1,-1.617574030E0,-3.055853601E1,1.156909624E1,3.271520528E1
1.150042954E1,6.772309488E0,-1.680663090E1,4.749088965E0,1.873181422E1
1.151045654E1,4.743824424E0,-1.132188765E0,1.065067524E1,1.171420525E1
1.152048254E1,7.798165467E-1,8.344335755E0,1.437061654E1,1.663582498E1
1.153050954E1,9.475728714E-1,1.505411746E1,5.724251046E0,1.613354880E1
1.154053554E1,3.561948944E0,1.848128165E1,-7.244269254E0,2.016741651E1
1.155056254E1,7.670442397E0,1.790665121E1,-9.076785470E0,2.149120468E1
1.156058854E1,8.907915543E0,1.079991022E1,1.711498733E0,1.410383806E1
1.157061554E1,8.353739832E0,2.691150599E0,9.654181058E0,1.304724004E1
1.158064154E1,4.983987697E0,-1.532545867E0,9.677776912E0,1.099309766E1
1.159066854E1,1.843049390E0,-9.755531432E0,8.323757064E0,1.295577694E1
1.160069454E1,2.979744020E0,-1.429955533E1,1.173817140E0,1.465380509E1
1.161072154E1,6.008271360E0,-1.664607337E1,-6.221429268E0,1.875892496E1
1.162074754E1,5.578330856E0,-1.239275375E1,-4.510511749E0,1.431931691E1
1.163077454E1,1.823700369E0,-5.256183772E0,1.861885026E-1,5.566688157E0
1.164080067E1,2.125302091E-1,-4.667849797E-1,3.793810633E0,3.828322926E0
1.165082767E1,4.834401157E-1,3.160196697E0,5.918081567E0,6.726384389E0
1.166085367E1,1.350429804E-1,5.736841271E0,6.430732691E0,8.618811248E0
1.167088067E1,-3.765336446E-1,6.579324474E0,4.958079854E0,8.246929366E0
1.168090667E1,-7.768087390E-1,5.699455343E0,2.883315833E0,6.434340154E0
1.169093367E1,-2.081641809E0,4.023784255E0,7.048290758E-1,4.584850748E0
1.170095967E1,-3.460109158E0,2.503429833E0,-1.130757879E0,4.417932740E0
1.171098667E1,-2.394290968E0,1.495369855E0,-4.994306425E-1,2.866738776E0
1.172101267E1,-5.187390257E-1,5.747058696E-1,1.210413474E0,1.436829075E0
1.173103967E1,2.222552982E-1,-4.381704605E-1,1.816100743E0,1.881385840E0
1.174106567E1,8.335689770E-1,-1.046127107E0,9.656805289E-1,1.649775150E0
1.175109267E1,1.393620701E0,-1.146897436E0,-1.391344965E-1,1.810223963E0
1.176111867E1,1.524890692E0,-7.984741348E-1,-1.016380639E0,1.998970278E0
1.177114567E1,1.433743710E0,-2.944149095E-1,-1.693009837E0,2.237986477E0
1.178117167E1,1.220075267E0,5.885807276E-2,-1.860752420E0,2.225858823E0
1.179119867E1,9.729159466E-1,3.610357457E-1,-1.342470428E0,1.696802610E0
1.180122467E1,8.339157169E-1,5.148058230E-1,-1.148399001E0,1.509722069E0
1.181125067E1,9.309433170E-1,6.981376684E-1,-1.168529795E0,1.649094766E0
1.182127767E1,6.980642858E-1,5.214529377E-1,-9.686859977E-1,1.302904247E0
1.183130367E1,3.008009461E-1,2.227736539E-1,-5.118336833E-1,6.341001729E-1
1.184133067E1,7.525538307E-2,7.574717045E-2,2.305557132E-1,2.540805844E-1
1.185135667E1,-1.443000729E-1,6.501285195E-2,9.088531941E-1,9.225309265E-1
1.186138367E1,-3.052802056E-1,1.354115742E-1,1.315291400E0,1.357027548E0
1.187140967E1,-4.358622355E-1,1.926868057E-1,1.629607308E0,1.697858672E0
1.188143667E1,-5.300800293E-1,1.612931049E-1,1.558647253E0,1.654201186E0
1.189146267E1,-4.392073180E-1,1.359846014E-1,1.291922418E0,1.371298076E0
1.190148967E1,-2.798942082E-1,1.022999614E-1,1.042210642E0,1.083978354E0
1.191151567E1,-5.368518725E-2,1.051007777E-1,6.310338521E-1,6.419750737E-1
1.192154267E1,4.770657370E-2,3.326516068E-1,4.177455149E-1,5.361383440E-1
1.193156867E1,4.805815581E-2,3.525450039E-1,-1.437486074E-1,3.837463071E-1
1.194159567E1,1.175930799E-1,4.692688769E-1,-6.636390960E-1,8.212540783E-1
1.195162167E1,2.564336259E-1,2.245237255E-1,-8.414693693E-1,9.078765375E-1
1.196164867E1,5.543831407E-1,2.144384480E-1,-9.624247992E-1,1.131187875E0
1.197167467E1,6.999731094E-1,2.284378517E-1,-1.371155698E0,1.556346412E0
1.198170167E1,8.881881107E-1,2.722843677E-1,-1.620095057E0,1.867545151E0
1.199172767E1,1.290281397E0,3.065677625E-1,-1.433467575E0,1.952854107E0
1.200175467E1,1.623733341E0,1.126618123E-1,-1.161655663E0,1.999661603E0
1.201178067E1,2.338395533E0,-9.712517560E-2,-1.088848618E0,2.581301665E0
1.202180767E1,2.759831701E0,5.259149480E-1,-1.992438734E-1,2.816550314E0
1.203183367E1,2.265482216E0,8.597687423E-2,-7.262453071E-1,2.380595291E0
1.204186067E1,2.380247126E0,3.502464634E-1,-9.939763749E-1,2.603120819E0
1.205188667E1,1.631154920E0,4.170117259E-2,-1.531619668E0,2.237915139E0
1.206191367E1,1.059174145E0,-1.453085715E-1,-2.212390667E0,2.457160336E0
1.207193967E1,1.014395071E0,-1.297111237E-1,-2.590471485E0,2.785025108E0
1.208196667E1,1.141924160E0,-1.593752182E-1,-2.117597215E0,2.411142719E0
1.209199267E1,1.090486423E0,-3.448442209E-1,-2.193631484E0,2.473883034E0
1.210201967E1,9.716071205E-1,-3.319891173E-1,-2.592652497E0,2.788563096E0
1.211204567E1,6.554196650E-1,-2.562168038E-1,-3.100480837E0,3.179340090E0
1.212207267E1,2.994640533E-1,-2.343324298E-1,-3.707103733E0,3.726554507E0
1.213209867E1,2.082233693E-1,7.937595248E-3,-3.965664101E0,3.971134818E0
1.214212567E1,3.559059104E-1,2.819141471E-1,-3.979105681E0,4.004925295E0
1.215215167E1,7.422101062E-1,3.696264750E-1,-3.941471246E0,4.027740702E0
1.216217867E1,1.292443259E0,3.830318016E-1,-3.865206013E0,4.093524210E0
1.217220467E1,1.587560857E0,7.196869969E-2,-3.677029749E0,4.005755453E0
1.218223167E1,1.826994690E0,-2.126170403E-1,-3.278340858E0,3.759073608E0
1.219225767E1,1.880115329E0,-3.744089127E-1,-2.599438775E0,3.229875792E0
1.220228467E1,1.786364143E0,-1.447295217E0,-2.059410403E0,3.086572776E0
1.221231067E1,2.186464406E0,-3.727394741E0,-1.042511042E0,4.445326470E0
1.222233767E1,2.997685032E0,-6.847004160E0,1.331475470E0,7.592128057E0
1.223236367E1,4.229202496E0,-8.558133348E0,3.852277819E0,1.029406842E1
1.224239067E1,5.182373784E0,-8.424271871E0,6.455486879E0,1.181095531E1
1.225241667E1,4.938745451E0,-9.230987656E0,8.878788807E0,1.372717125E1
1.226244367E1,4.026693830E-1,-7.436312866E0,8.676549990E0,1.143430852E1
1.227246967E1,-7.729948926E0,-4.916060593E0,-3.039938913E-1,9.165815536E0
1.228249667E1,-1.087449730E1,-3.296218720E0,-2.978606737E0,1.174699313E1
1.229252267E1,-7.005446162E0,-1.803665469E0,2.013550106E0,7.508919302E0
1.230254967E1,-4.351766276E0,-2.499918580E-2,1.830939222E0,4.721316883E0
1.231257567E1,-4.887989865E0,3.509580696E-1,3.407163424E-3,4.900574262E0
1.232260267E1,-4.615744674E0,-8.026864690E-1,-4.014394212E-1,4.702186520E0
1.233262867E1,-2.949959473E0,-1.993349145E0,9.309001207E-2,3.561511962E0
1.234265567E1,-1.274572121E0,-2.174491208E0,6.931406379E-1,2.614075372E0
1.235268167E1,-1.156092475E-1,-3.468012840E-1,1.794398217E0,1.831256834E0
1.236270867E1,-9.641438806E-1,7.165330088E-1,2.228391427E0,2.531545245E0
1.237273467E1,-2.300641962E0,1.236311304E0,1.832878743E0,3.190746553E0
1.238276167E1,-2.472683419E0,2.565883359E0,1.363142674E0,3.815242935E0
1.239278767E1,-2.645703115E0,3.523465494E0,1.887471711E0,4.793443806E0
1.240281467E1,-2.690185516E0,3.492399237E0,2.529935846E0,5.082767546E0
1.241284067E1,-2.369573764E0,3.200186389E0,2.409198006E0,4.654063577E0
1.242286767E1,-1.987718423E0,2.913111489E0,1.709929340E0,3.919324103E0
1.243289367E1,-1.291245603E0,1.923519357E0,1.218150437E0,2.617466792E0
1.244292067E1,-2.970208673E-1,1.850494065E0,1.259692273E0,2.258179422E0
1.245294667E1,4.129831405E-1,2.427708390E0,1.554608873E0,2.912238289E0
1.246297367E1,7.519908169E-1,2.047490269E0,2.195105567E0,3.094542784E0
1.247299967E1,1.135631752E0,1.492710541E0,2.805684397E0,3.374864319E0
1.248302667E1,1.592528944E0,1.067608607E0,3.758480294E0,4.219254756E0
1.249305267E1,1.741679575E0,7.676277333E-1,3.873324287E0,4.315708645E0
1.250307967E1,1.229442872E0,4.401608527E-1,3.134101743E0,3.395270988E0
1.251310567E1,6.805121139E-1,1.993988246E-1,2.220695029E0,2.331167742E0
1.252313267E1,2.843696854E-1,1.780798763E-1,1.245836418E0,1.290227477E0
1.253315867E1,-8.477132455E-2,2.096694589E-2,6.839681107E-1,6.895202439E-1
1.254318467E1,-9.150848642E-2,-4.446807504E-1,5.625889769E-1,7.229253971E-1
1.255321167E1,3.836673939E-1,-9.813668543E-1,5.198174715E-1,1.174943307E0
1.256323867E1,8.596639310E-1,-1.017712562E0,3.724623746E-1,1.383289252E0
1.257326467E1,1.107816401E0,-9.004560077E-1,6.276956767E-2,1.428992029E0
1.258329067E1,1.287077123E0,-6.266858625E-1,-2.376217809E-1,1.451126046E0
1.259331767E1,1.287435411E0,-2.362918317E-2,-3.525464657E-1,1.335042054E0
1.260334367E1,1.238124379E0,7.084363693E-1,-3.285068080E-1,1.463813783E0
1.261337067E1,9.101805121E-1,1.203264011E0,-1.051841006E-1,1.512394307E0
1.262339667E1,2.445792367E-1,1.523973849E0,2.089417729E-1,1.557553196E0
1.263342367E1,-1.130136685E-1,1.706688813E0,5.917236060E-1,1.809888289E0
1.264345021E1,-1.588249952E-2,1.284768934E0,1.159513681E0,1.730709521E0
1.265347721E1,1.554491052E-1,5.866382825E-1,1.584214496E0,1.696480023E0
1.266350321E1,3.063949773E-1,2.654074574E-1,1.601404725E0,1.651912859E0
1.267353021E1,2.074597961E-1,2.619558460E-1,1.380603922E0,1.420467395E0
1.268355621E1,6.298079833E-2,4.580287743E-1,1.299772597E0,1.379552733E0
1.269358321E1,-1.309311453E-1,3.769360793E-1,1.297248062E0,1.357231118E0
1.270360921E1,-2.347069439E-1,1.940954000E-1,1.175859865E0,1.214663244E0
1.271363621E1,-2.343344763E-1,-1.313927829E-2,1.047947052E0,1.073907963E0
1.272366221E1,-3.878247643E-1,-3.200315613E-1,9.025267991E-1,1.033142232E0
1.273368921E1,-8.367988327E-1,-6.882582128E-2,6.179197168E-1,1.042494152E0
1.274371521E1,-1.295573419E0,9.694151455E-1,3.343578243E-1,1.652292760E0
1.275374221E1,-1.534406305E0,1.024709340E0,2.789156950E-1,1.866072320E0
1.276376821E1,-1.293340806E0,9.712997031E-1,6.348956457E-1,1.737597777E0
1.277379521E1,-1.148371958E0,8.703720832E-1,1.074804483E0,1.797640229E0
1.278382121E1,-9.831677967E-1,7.221428275E-1,1.402459352E0,1.858763410E0
1.279384821E1,-5.506771754E-1,5.057169110E-1,1.671175456E0,1.830798283E0
1.280387421E1,-5.336630934E-1,6.756937158E-1,1.945428582E0,2.127451682E0
1.281390121E1,-4.391573243E-1,9.456865597E-1,2.139980649E0,2.380483019E0
1.282392721E1,-2.769212097E-1,1.043321028E0,2.270622357E0,2.514145981E0
1.283395421E1,-3.675970526E-1,1.150933185E0,2.595785727E0,2.863193729E0
1.284398021E1,-7.960412546E-1,1.288048638E0,2.657028295E0,3.058193965E0
1.285400721E1,-1.139413585E0,1.410460097E0,2.629388798E0,3.193954674E0
1.286403321E1,-1.095583003E0,1.470304011E0,3.082312661E0,3.586467251E0
1.287406021E1,-8.948668005E-1,1.477555727E0,3.512344382E0,3.914143658E0
1.288408621E1,-8.977950861E-1,1.170154737E0,3.277884775E0,3.594416048E0
1.289411321E1,-1.086345133E0,3.311272377E-1,2.480286261E0,2.727931622E0
1.290413921E1,-1.018005361E0,-6.949503511E-1,1.415805037E0,1.877177352E0
1.291416621E1,-7.896900820E-1,-1.226917167E0,1.872323768E-1,1.471051367E0
1.292419221E1,-9.129920726E-1,-1.528215419E0,-8.419392662E-1,1.969227925E0
1.293421921E1,-1.010789605E0,-1.324256936E0,-1.251742545E0,2.083797364E0
1.294424521E1,-4.909801733E-1,-4.062540185E-1,6.692942306E-2,6.407678253E-1
1.295427221E1,2.828521867E-1,6.672672933E-1,2.403418326E0,2.510312859E0
1.296429821E1,2.146815459E-1,-1.506845600E0,3.952058215E0,4.235024907E0
1.297432521E1,-5.729321167E-1,-4.410665864E0,3.068356819E0,5.403428369E0
1.298435121E1,-1.235674835E0,-4.231321235E0,1.344221084E0,4.608459831E0
1.299437821E1,-1.781189357E0,-3.068311796E0,-1.113870462E-1,3.549588691E0
1.300440421E1,-7.836659150E-1,-2.184428551E0,-2.089149342E0,3.122563904E0
1.301443121E1,9.116966220E-1,-1.461969389E0,-3.680975450E0,4.064249684E0
1.302445721E1,1.665984883E0,-1.186542143E0,-3.102281195E0,3.715849365E0
1.303448421E1,1.392560016E0,-4.967373419E-1,-8.738967117E-1,1.717459417E0
1.304451021E1,4.836319043E-1,6.312349963E-1,7.248548392E-1,1.075998131E0
1.305453721E1,-6.501048383E-1,-1.569375139E-1,1.176907686E0,1.353653348E0
1.306456321E1,-1.125639592E0,-2.437167431E0,1.107667297E0,2.904096489E0
1.307459021E1,-4.790948305E-1,-3.072217736E0,1.176904178E0,3.324628869E0
1.308461621E1,5.596336479E-1,-2.214020725E0,1.233084226E0,2.595298499E0
1.309464321E1,1.261325693E0,-3.291415232E-1,1.443544228E0,1.945018402E0
1.310466921E1,1.749884242E0,1.873557238E0,1.852237705E0,3.162767158E0
1.311469621E1,2.224150587E0,3.784034965E0,2.153734177E0,4.889206210E0
1.312472221E1,2.829243706E0,5.519720120E0,2.473810762E0,6.677699442E0
1.313474921E1,2.911659041E0,6.197699513E0,1.556061029E0,7.022148072E0
1.314477521E1,1.854537415E0,4.127324996E0,-7.639048111E-1,4.588863825E0
1.315480221E1,2.842515716E-1,-1.556877885E0,-2.060865190E0,2.598428956E0
1.316482821E1,1.073066399E-1,-3.153530871E0,-2.224198973E-1,3.163185464E0
1.317485521E1,3.408353698E-1,-2.387466098E0,1.183885753E0,2.686586793E0
1.318488121E1,-1.073075169E-1,-1.939828995E0,1.319339427E0,2.348426699E0
1.319490821E1,-9.172841482E-1,-1.330947905E0,7.879707813E-1,1.798257625E0
1.320493421E1,-1.441404586E0,-6.896925348E-1,3.482736129E-1,1.635425780E0
1.321496121E1,-1.211957505E0,5.706707060E-1,3.552522647E-1,1.385896901E0
1.322498721E1,-8.568457923E-1,2.210024738E0,6.467371345E-1,2.456962143E0
1.323501321E1,-7.548501053E-1,2.118752625E0,8.123185873E-1,2.391395587E0
1.324504021E1,-7.415076363E-1,8.131980085E-1,9.125106275E-1,1.429615410E0
1.325506621E1,-9.204153322E-1,-5.633903378E-1,1.202505042E0,1.615732475E0
1.326509321E1,-1.234493697E0,-1.034370695E0,1.296484416E0,2.067551514E0
1.327511921E1,-1.421230668E0,-5.920481265E-1,1.042173219E0,1.859177941E0
1.328514621E1,-1.319637928E0,-6.726636887E-2,6.446566951E-1,1.470221507E0
1.329517221E1,-5.830274076E-1,1.142762285E0,-4.025102656E-2,1.283529020E0
1.330519921E1,8.971704572E-2,1.462553526E0,-1.835347438E-1,1.476752169E0
1.331522521E1,-2.098050412E-1,8.537361699E-1,5.233930439E-1,1.023144116E0
1.332525221E1,-5.546038000E-1,2.460976124E-2,6.569878882E-1,8.601302811E-1
1.333527821E1,-6.002343380E-1,-1.519790166E0,7.990861556E-2,1.635979461E0
1.334530521E1,-7.125426496E-1,-1.198937656E0,-2.711085109E-1,1.420798492E0
1.335533121E1,1.346724862E-1,2.086204684E-1,1.867062736E-1,3.106741234E-1
1.336535821E1,1.133353019E0,1.238881155E0,3.869014889E-1,1.723081062E0
1.337538421E1,1.673205902E0,1.018664489E0,4.124415421E-1,2.001849984E0
1.338541121E1,2.215618038E0,7.552257890E-1,2.528347743E-1,2.354411754E0
1.339543721E1,2.111593879E0,6.611078364E-1,3.669923043E-1,2.242894476E0
1.340546421E1,1.588092954E0,5.716764271E-2,4.249446434E-1,1.644957543E0
1.341549021E1,1.446144339E0,-9.948084337E-1,4.287125891E-1,1.806867940E0
1.342551721E1,1.612264759E0,-1.466429061E0,1.389482042E0,2.584660942E0
1.343554321E1,1.775053727E0,-1.445453344E0,3.313500751E0,4.027336381E0
1.344557021E1,8.767515416E-1,-1.109704467E0,5.442708782E0,5.623452334E0
1.345559621E1,-1.098640512E0,-1.885668576E0,5.658710191E0,6.064961498E0
1.346562321E1,-3.258781922E0,-3.446819022E0,-8.509745300E-1,4.819167836E0
1.347564921E1,-3.550298951E0,-2.000061749E0,-2.598939423E0,4.833151742E0
1.348567621E1,-3.521145903E0,-4.820941597E-1,-1.621560370E0,3.906448679E0
1.349570221E1,-2.868662125E0,1.507178307E-1,-1.973529423E0,3.485219740E0
1.350572921E1,-1.671812510E0,8.632402343E-1,-1.623635547E0,2.485222960E0
1.351575521E1,-1.267445096E0,9.470296651E-1,-1.485067645E0,2.169955799E0
1.352578221E1,-3.733786333E-1,1.057190623E0,-1.218476712E0,1.655822791E0
1.353580821E1,1.251463925E0,1.232153349E0,-4.837624069E-1,1.821644833E0
1.354583521E1,2.474350460E0,3.342554981E-1,2.581445942E-1,2.510134572E0
1.355586121E1,2.133352830E0,-3.836785036E-1,1.141936074E0,2.449983977E0
1.356588821E1,1.598457582E0,-5.405797648E-1,1.547723485E0,2.289703280E0
1.357591421E1,1.019796802E0,-6.376154780E-2,1.605943626E0,1.903445818E0
1.358594121E1,-3.671115418E-2,-2.657875264E-1,5.458902061E-1,6.082654315E-1
1.359596721E1,8.726213609E-1,-7.005139768E-1,-1.119920722E0,1.583164646E0
1.360599421E1,1.922593743E0,6.554512399E-1,-2.903036152E0,3.543106254E0
1.361602021E1,2.012576544E-1,1.924154949E0,-1.151600937E0,2.251457668E0
1.362604721E1,-2.262110858E0,3.120337397E0,1.331144371E0,4.077449735E0
1.363607321E1,-2.234353248E0,1.698781623E0,1.597795531E0,3.229728162E0
1.364610004E1,-4.927765842E-1,1.651382339E-1,1.593092616E0,1.675721779E0
1.365612604E1,1.112516685E0,-6.153662378E-1,3.595707259E0,3.813853651E0
1.366615304E1,1.348822112E0,-2.051446495E0,4.077665763E0,4.759738636E0
1.367617904E1,-6.461173296E-4,-3.407612271E0,1.945401977E0,3.923826023E0
1.368620604E1,-5.201941418E-1,-3.969996303E0,-4.769279620E-2,4.004216178E0
1.369623204E1,-5.226690124E-1,-3.654034989E0,-1.525956640E0,3.994208090E0
1.370625904E1,-7.886056428E-1,-2.371710191E0,-2.782896336E0,3.740510674E0
1.371628504E1,-1.719083156E0,-6.539333028E-1,-3.067389690E0,3.576556328E0
1.372631204E1,-1.107041937E0,-2.297376292E0,-2.948352073E0,3.898238016E0
1.373633804E1,-1.081823481E0,-5.457195259E0,-1.759195640E0,5.834902864E0
1.374636504E1,1.236168193E0,-5.930153729E0,-5.307412763E-1,6.080832291E0
1.375639104E1,3.277623697E0,-6.735774330E0,-1.018636422E0,7.559834197E0
1.376641804E1,1.378597888E0,-6.851368521E0,-1.714156292E0,7.195840086E0
1.377644404E1,-8.359612191E-1,-7.746646820E0,-1.002652473E0,7.855869149E0
1.378647104E1,-2.044723074E0,-8.377395328E0,3.105978828E-2,8.623375768E0
1.379649704E1,-2.200276114E0,-7.297009969E0,1.453956950E0,7.758966444E0
1.380652404E1,-5.612935263E-1,-5.940519088E0,1.785296441E0,6.228330502E0
1.381655004E1,1.274752946E0,-6.052350011E0,2.037333071E0,6.512039755E0
1.382657704E1,3.754701823E0,-5.995541972E0,3.197089119E0,7.763097845E0
1.383660304E1,5.161813220E0,-5.346907416E0,2.954485803E0,7.997669722E0
1.384663004E1,3.299077424E0,-4.738728576E0,3.394308686E-2,5.774133051E0
1.385665604E1,1.199616810E0,-3.993964040E0,-6.145382720E-1,4.215268263E0
1.386668204E1,2.770228635E0,-4.744076439E0,-2.979507573E-1,5.501745415E0
1.387670904E1,2.031396977E0,-3.318028250E0,5.104397070E-1,3.923828977E0
1.388673604E1,3.653698774E0,-1.179895613E0,9.580879924E-1,3.957221372E0
1.389676204E1,3.608144871E0,-4.305447557E0,-1.921531304E0,5.936991715E0
1.390678904E1,-1.020482388E0,-4.433357154E0,-3.660661054E-1,4.563994341E0
1.391681504E1,-5.143547103E0,-2.644423159E0,-2.945986875E0,6.490600073E0
1.392684104E1,-7.431987680E0,1.285399264E-1,-8.516873640E0,1.130433987E1
1.393686804E1,-6.760109857E0,7.301693004E-1,-3.919138976E0,7.848049618E0
1.394689404E1,-5.184264189E0,3.009104644E0,1.429973425E0,6.162477581E0
1.395692104E1,-1.451536787E0,4.169004534E0,-1.996192354E0,4.844826288E0
1.396694704E1,9.304681869E0,4.740152373E0,-1.124346597E1,1.534476054E1
1.397697404E1,1.060167090E1,8.161194529E0,-1.314846076E1,1.875853252E1
1.398700004E1,9.744812316E0,8.353515299E0,-7.886564258E0,1.506454383E1
1.399702704E1,9.525638208E0,6.735169728E0,-4.373788352E0,1.245914600E1
1.400705304E1,7.771457725E0,5.887376084E0,-8.916103399E-1,9.790389232E0
1.401708004E1,5.400150408E0,5.999783542E0,-8.973271626E-1,8.121836185E0
1.402710604E1,2.805962432E0,5.071629274E0,-1.396636695E-1,5.797788768E0
1.403713304E1,1.275971798E0,2.483275650E0,3.315298185E-1,2.811525210E0
1.404715904E1,-5.475350279E-1,9.448170787E-1,1.332227275E0,1.722586263E0
1.405718604E1,-1.121491869E0,1.402464615E0,2.173520570E0,2.819369198E0
1.406721204E1,8.598991352E-1,2.349672035E0,2.898668867E0,3.829186127E0
1.407723904E1,3.230500694E0,2.100461950E0,3.337274360E0,5.097595050E0
1.408726504E1,5.334967402E0,2.195669823E0,3.530257620E0,6.763546556E0
1.409729204E1,5.204188576E0,2.027952383E0,3.586562213E0,6.637740437E0
1.410731804E1,4.336623741E0,1.417499560E-1,3.549699612E0,5.605958068E0
1.411734504E1,2.668555788E0,-2.302756315E0,3.409804392E0,4.904145454E0
1.412737104E1,3.478555369E-1,-4.676444035E0,3.206161659E0,5.680634196E0
1.413739804E1,-3.188986048E0,-6.280580871E0,2.761703103E0,7.565866250E0
1.414742404E1,-5.321383735E0,-6.905153550E0,1.991065807E0,8.942181694E0
1.415745104E1,-5.574903803E0,-6.735719951E0,1.721551266E0,8.911409228E0
1.416747704E1,-5.697446240E0,-6.579773540E0,1.273567423E0,8.796379226E0
1.417750404E1,-5.561013157E0,-5.709692649E0,3.406441659E-1,7.977562029E0
1.418753004E1,-5.426341256E0,-4.220548909E0,-7.702303290E-1,6.917475499E0
1.419755704E1,-5.109923859E0,-3.336678529E0,-1.620886186E0,6.314429307E0
1.420758304E1,-4.520214034E0,-3.202723496E0,-2.183906980E0,5.954764680E0
1.421761004E1,-4.073378292E0,-3.460078753E0,-2.794911194E0,6.031258929E0
1.422763604E1,-3.493492374E0,-3.536581383E0,-3.125563638E0,5.872056276E0
1.423766304E1,-3.044539940E0,-3.239194042E0,-3.441473497E0,5.621862798E0
1.424768904E1,-3.146070408E0,-2.511092609E0,-3.967735770E0,5.652103347E0
1.425771604E1,-3.201863663E0,-1.776403703E0,-4.312310434E0,5.657169108E0
1.426774204E1,-2.268977828E0,-2.427448482E0,-4.538360868E0,5.624720960E0
1.427776904E1,-9.728544778E-1,-3.517112786E0,-4.443924242E0,5.750216592E0
1.428779504E1,2.421302766E-2,-4.482414416E0,-3.377126643E0,5.612273125E0
1.429782204E1,-5.946811277E-1,-3.809221846E0,-2.390715396E0,4.536445395E0
1.430784804E1,-1.509109934E0,-2.447641841E0,-2.077128051E0,3.547227694E0
1.431787504E1,-1.535202257E0,-1.143148786E0,-1.905352643E0,2.700741345E0
1.432790104E1,-1.057468366E0,-4.809583381E-1,-1.551179189E0,1.937967271E0
1.433792804E1,-2.971628085E-1,-8.806105578E-1,-9.885244310E-1,1.356820268E0
1.434795404E1,2.135117520E0,-2.340400397E0,9.064692843E-1,3.295130863E0
1.435798104E1,5.757526381E0,-3.660455232E0,4.362069654E0,8.097882081E0
1.436800704E1,3.588796434E0,-2.235762427E0,3.324957785E0,5.378981107E0
1.437803404E1,4.080518912E0,-2.696380056E0,4.123188091E0,6.397013368E0
1.438806004E1,2.024591988E0,-2.527092638E0,1.742318822E0,3.677070137E0
1.439808704E1,7.841803238E-1,-2.128584133E0,1.392947102E-1,2.272710322E0
1.440811304E1,3.405988500E-1,-2.019517189E0,-7.876766664E-1,2.194286168E0
1.441814004E1,-9.731184795E-2,-1.751303068E0,-1.340653698E0,2.207687562E0
1.442816604E1,-8.540601057E-1,-1.616185024E0,-1.660773552E0,2.469745227E0
1.443819304E1,-1.184649107E0,-1.663541039E0,-2.018414989E0,2.871369249E0
1.444821904E1,-4.427551161E-1,-1.830825786E0,-1.798671362E0,2.604452691E0
1.445824604E1,4.474358122E-1,-1.685138900E0,-1.109527296E0,2.066625931E0
1.446827204E1,1.739258827E0,-1.330801139E0,-7.171984220E-1,2.304436269E0
1.447829904E1,2.795324008E0,-9.974583918E-1,-8.250684410E-1,3.080502797E0
1.448832504E1,2.764353645E0,-8.614229196E-1,-1.170334246E0,3.123040629E0
1.449835204E1,2.074654240E0,-1.320527582E0,-1.577238475E0,2.921585959E0
1.450837804E1,1.090111032E0,-1.402238912E0,-1.656090517E0,2.428425792E0
1.451840504E1,6.244316147E-1,-1.195462655E0,-1.455098911E0,1.984025867E0
1.452843104E1,7.353028634E-1,-1.162398405E0,-1.347715965E0,1.925663178E0
1.453845704E1,6.617707644E-1,-1.189309630E0,-1.129291470E0,1.768529662E0
1.454848404E1,1.817204989E-1,-1.184963395E0,-6.981692433E-1,1.387299852E0
1.455851004E1,-4.764593442E-1,-1.019733945E0,-5.579652911E-1,1.256262747E0
1.456853704E1,-9.865106499E-1,-6.807965809E-1,-7.214166033E-1,1.398974325E0
1.457856304E1,-9.452828094E-1,-3.019396913E-1,-6.683285630E-1,1.196407220E0
1.458859004E1,-3.018642622E-1,-7.316504002E-2,-3.454651952E-2,3.125197880E-1
1.459861604E1,3.561311013E-1,-3.788042647E-1,3.664596230E-1,6.360933009E-1
1.460864304E1,1.835525778E-1,-6.561651850E-1,2.066370928E-1,7.119994290E-1
1.461866904E1,-2.214784956E-1,-4.997088969E-1,-1.533788985E-1,5.677030845E-1
1.462869604E1,-1.760292578E-1,-3.011678588E-1,-5.485957128E-1,6.501120172E-1
1.463872204E1,-1.856140137E-2,-3.733599222E-1,-8.406471777E-1,9.200162142E-1
1.464874842E1,4.162106574E-2,-4.328296137E-1,-7.826919150E-1,8.953660824E-1
1.465877442E1,-9.762672052E-2,-3.642727643E-1,-6.176735491E-1,7.237031412E-1
1.466880142E1,-1.209392770E-1,-3.389759552E-1,-3.099714267E-1,4.749876760E-1
1.467882742E1,5.384233117E-2,-3.801491243E-1,-3.710409164E-2,3.857318588E-1
1.468885442E1,1.183374122E-1,-3.775821966E-1,5.541581690E-2,3.995534646E-1
1.469888042E1,1.061737418E-1,-3.688569814E-1,1.683957177E-1,4.191484867E-1
1.470890742E1,2.207367763E-1,-3.071910757E-1,1.184002697E-1,3.963706665E-1
1.471893342E1,2.924506836E-1,-2.612687981E-1,-7.012975037E-2,3.983804326E-1
1.472896042E1,3.562752351E-1,-2.780409515E-1,-1.972394478E-1,4.930945281E-1
1.473898642E1,6.355332845E-1,-2.783695650E-1,-2.312562096E-1,7.313491676E-1
1.474901342E1,8.358821355E-1,-1.166806036E-1,-2.074328989E-1,8.691039726E-1
1.475903942E1,8.377969524E-1,-2.464718342E-2,-9.612822533E-4,8.381599735E-1
1.476906642E1,6.365049456E-1,-7.252476990E-2,2.057068008E-1,6.728400077E-1
1.477909242E1,2.777414279E-1,-9.312743425E-2,2.803061628E-1,4.054436640E-1
1.478911942E1,1.344988239E-1,-6.438252211E-2,3.248765641E-1,3.574630396E-1
1.479914542E1,8.310852259E-2,-1.064134777E-2,3.502505565E-1,3.601329159E-1
1.480917242E1,-8.459386155E-2,-4.532469213E-2,2.321204281E-1,2.511779096E-1
1.481919842E1,-9.577505350E-2,-9.922257185E-2,1.753837252E-1,2.231085626E-1
1.482922542E1,1.690726791E-1,-5.116255224E-2,1.813192338E-1,2.531399655E-1
1.483925142E1,3.897242323E-1,1.908297300E-2,9.623932242E-3,3.903098220E-1
1.484927842E1,3.457999483E-1,1.476597369E-2,-1.386070776E-1,3.728371765E-1
1.485930442E1,1.549263641E-1,-4.836524427E-2,-1.446677166E-1,2.174169345E-1
1.486933142E1,6.707151040E-2,-4.737414122E-2,-1.070087242E-1,1.348842608E-1
1.487935742E1,1.269320883E-1,-3.065051973E-2,-1.200392443E-1,1.773714452E-1
1.488938442E1,1.980928490E-1,-3.947630703E-2,-1.097194934E-1,2.298641400E-1
1.489941042E1,2.064252774E-1,3.801274896E-3,-5.280620456E-2,2.131064056E-1
1.490943742E1,2.562543721E-1,2.510092735E-2,5.959189832E-2,2.642868785E-1
1.491946342E1,2.345074077E-1,5.352541208E-3,1.741944015E-1,2.921747140E-1
1.492949042E1,8.842685759E-2,-5.813886523E-3,1.949023157E-1,2.141028330E-1
1.493951642E1,1.125711805E-1,3.575104594E-2,1.775220519E-1,2.132240298E-1
1.494954342E1,2.315526634E-1,6.019182265E-2,1.767999208E-1,2.974859719E-1
1.495956942E1,2.540436861E-1,2.315906703E-2,1.170729518E-1,2.806788429E-1
1.496959642E1,1.393594681E-1,2.017874122E-2,1.695774400E-1,2.204194889E-1
1.497962242E1,-1.624473453E-2,7.613367140E-2,3.104187387E-1,3.200312808E-1
1.498964942E1,-5.406934932E-2,1.305168700E-1,4.319648105E-1,4.544796424E-1
1.499967542E1,-8.859686539E-2,1.070847380E-1,3.812869924E-1,4.058279392E-1
1.500970242E1,-1.817690308E-1,4.458151102E-2,1.911530811E-1,2.675200779E-1
1.501972842E1,-1.998179238E-1,6.297334313E-2,1.975475961E-1,2.879546793E-1
1.502975542E1,-1.266632625E-1,5.451885402E-2,4.153774291E-1,4.376691629E-1
1.503978142E1,-3.616444409E-2,-2.224690139E-2,4.791009700E-1,4.809787221E-1
1.504980842E1,8.162099093E-2,3.314728081E-2,-1.768409683E0,1.770602591E0
1.505983442E1,9.670217340E-1,6.092623293E-2,-2.132437449E0,2.342249455E0
1.506986142E1,1.265378690E0,1.091768718E-1,6.109428191E-1,1.409380696E0
1.507988742E1,5.205558287E-1,2.493410629E-1,1.519804199E0,1.625716501E0
1.508991342E1,9.004945993E-2,-2.002262056E-2,1.703015007E0,1.705511632E0
1.509994042E1,-5.714147642E-2,-8.838475764E-2,1.500141183E0,1.503828641E0
1.510996642E1,-1.189766590E-1,-1.979867220E-3,8.971839058E-1,9.050405108E-1
1.511999342E1,-6.387703031E-2,1.419832599E-1,2.727451283E-1,3.140532218E-1
1.513001942E1,2.066097571E-1,1.882019913E-1,-1.424855357E-1,3.137032183E-1