"Time (s)","Linear Acceleration x (m/s^2)","Linear Acceleration y (m/s^2)","Linear Acceleration z (m/s^2)","Absolute acceleration (m/s^2)"
5.419749999E-3,-7.982811036E-1,2.359956703E-1,-9.031813949E-1,1.228284702E0
1.544574997E-2,-1.239793467E0,-7.453241140E-2,-2.563477814E-1,1.268210198E0
2.547274996E-2,-1.225333668E0,-1.798264396E-1,-1.186304162E0,1.714962889E0
3.549874993E-2,-1.073615598E0,9.135280430E-2,-1.572877037E0,1.906551327E0
4.552574991E-2,-3.912544486E-1,1.928253847E-1,-1.140296515E0,1.220875839E0
5.555175000E-2,9.737330950E-1,1.518726557E-2,-1.208336470E0,1.551922620E0
6.557874999E-2,1.307004287E0,-2.395358670E-1,-1.353650304E0,1.896841265E0
7.560474996E-2,1.030445897E0,-4.555492625E-1,-1.554015673E0,1.919455285E0
8.563174994E-2,9.225359711E-1,-5.458419666E-1,-1.716857121E0,2.024009497E0
9.565774992E-2,9.306152152E-1,-5.032987949E-1,-1.872097188E0,2.150372581E0
1.056847500E-1,8.835472488E-1,-5.133057198E-1,-2.066366251E0,2.305213219E0
1.157107500E-1,1.133007229E0,-5.419158536E-1,-2.191631151E0,2.525989960E0
1.257377500E-1,1.508055097E0,-6.935446805E-1,-2.431155324E0,2.943764700E0
1.357637499E-1,1.789731993E0,-1.046721184E0,-2.773859464E0,3.463100081E0
1.457907499E-1,1.831548209E0,-1.542020403E0,-3.385252519E0,4.146363513E0
1.558167500E-1,1.700153819E0,-1.900777489E0,-4.338033505E0,5.032098246E0
1.658437500E-1,1.167289601E0,-2.408640182E0,-5.297532942E0,5.935315309E0
1.758697500E-1,-4.093829221E0,-2.690512083E0,-3.300062095E0,5.906665962E0
1.858967500E-1,-1.008600846E1,-2.329514490E0,5.840877271E0,1.188570788E1
1.959227499E-1,-5.679667196E0,5.229607885E-1,2.674839790E0,6.299752007E0
2.059497499E-1,7.689152902E-1,2.455131247E0,-4.041318886E0,4.790736739E0
2.159757500E-1,2.099888338E0,1.321731523E0,8.488502365E-1,2.622413388E0
2.260027500E-1,4.573326632E-1,-1.349525678E-1,-1.150830274E0,1.245702886E0
2.360287500E-1,9.017996979E-1,-8.977541555E-1,6.166988182E-1,1.414044784E0
2.460557499E-1,5.276100558E-1,-7.080919683E-1,6.325775170E-1,1.086241650E0
2.560817499E-1,-1.210224536E-1,-4.135921280E-1,1.027370408E0,1.114089242E0
2.661087500E-1,-1.974613497E-1,-1.450080246E0,1.367454996E0,2.002912097E0
2.761347500E-1,1.110042728E0,-2.283690446E0,-2.437352788E0,3.519676906E0
2.861617500E-1,1.997424947E0,-9.201311575E-1,-3.081979662E0,3.786151925E0
2.961877499E-1,1.198862227E0,-2.333389878E-1,-3.777636357E0,3.970170546E0
3.062147499E-1,7.923962465E-1,-2.735551869E-1,-4.890834535E0,4.962155449E0
3.162407499E-1,1.252036221E0,-8.861193658E-1,-4.214916286E0,4.485345196E0
3.262677500E-1,2.218143597E0,-4.219878161E-1,-4.053616750E0,4.640047789E0
3.362947500E-1,2.611486963E0,1.528662731E0,-4.163045052E0,5.146612284E0
3.463207500E-1,1.992319743E0,2.801480541E0,-4.777834754E0,5.886028892E0
3.563477499E-1,1.731167597E0,1.778170293E0,-4.717668074E0,5.330593110E0
3.663737499E-1,1.660054929E0,-6.586782452E-2,-3.401378555E0,3.785432209E0
3.764007500E-1,9.123273173E-1,-1.187480475E0,-2.471211675E0,2.889522133E0
3.864267500E-1,-6.197551578E-2,-2.173158043E0,-1.311454457E0,2.538970192E0
3.964537500E-1,-1.085535586E0,-3.437395941E0,9.518653125E-1,3.728287266E0
4.064797499E-1,-2.289970209E0,-3.927827353E0,-6.591800094E-1,4.594160376E0
4.165067499E-1,-2.358253701E0,-4.710150894E0,-1.202877510E-1,5.268904165E0
4.265327500E-1,-2.050022113E0,-5.424106450E0,8.094540364E-1,5.854804632E0
4.365597500E-1,-2.852923175E0,-5.438684143E0,-1.726203310E-1,6.143960745E0
4.465857500E-1,-3.067261636E0,-5.177476741E0,-2.606356616E0,6.558006874E0
4.566127500E-1,-3.708361470E0,-4.721420525E0,-4.365111376E0,7.422799599E0
4.666387499E-1,-6.015109094E0,-5.195059319E0,-4.415142492E0,9.091955893E0
4.766657499E-1,-6.232461795E0,-7.101134677E0,-2.725343946E0,9.833473107E0
4.866917500E-1,-6.296216326E0,-8.979670819E0,1.245663925E0,1.103759515E1
4.967187500E-1,-6.271750406E0,-1.024401894E1,3.565506974E0,1.252946995E1
5.067447500E-1,-5.315771577E0,-1.059321933E1,3.996104121E0,1.250770049E1
5.167717499E-1,-3.453761421E0,-9.783543688E0,3.631945378E0,1.099259852E1
5.267977499E-1,-1.697002316E0,-7.991857994E0,2.451246065E0,8.529842808E0
5.368247500E-1,-1.671467525E-1,-6.373546922E0,8.817782468E-1,6.436425350E0
5.468507500E-1,2.684424546E0,-5.927217842E0,1.295327836E-1,6.508058484E0
5.568777500E-1,5.351004560E0,-5.243778319E0,5.175183463E-1,7.509879234E0
5.669037499E-1,7.347262695E0,-4.928611057E0,5.691162238E-1,8.865515740E0
5.769307499E-1,8.913110209E0,-4.963528875E0,9.536256167E-1,1.024644106E1
5.869567500E-1,9.496441891E0,-3.536786036E0,2.785518227E0,1.050953738E1
5.969837500E-1,9.656939775E0,-2.240392252E0,4.043749281E0,1.070643505E1
6.070097500E-1,1.153538353E1,-1.867273820E0,1.678559905E0,1.180547958E1
6.170367500E-1,1.337636652E1,-1.026607347E0,2.965310168E-1,1.341898038E1
6.270627499E-1,1.364813808E1,-4.179583901E-1,-1.198491805E0,1.370703268E1
6.370897499E-1,1.469762208E1,-2.156166619E-1,-2.637228745E0,1.493390641E1
6.471157500E-1,1.495772026E1,-4.233273035E-1,-4.197349204E0,1.554124647E1
6.571427500E-1,1.914482017E1,9.526447463E-1,-1.374674319E1,2.358823053E1
6.671690416E-1,1.892740666E1,4.065876022E0,-1.441104770E1,2.413413281E1
6.771960417E-1,1.275871811E1,4.366140486E0,-3.808284538E0,1.401253373E1
6.872220417E-1,1.061565393E1,2.333103365E0,-6.407794064E-1,1.088788675E1
6.972490416E-1,8.815110875E0,-1.561415910E0,1.416476590E0,9.063697110E0
7.072760416E-1,6.928437163E0,-3.209907385E0,4.255117648E0,8.741439992E0
7.173020416E-1,4.937088935E0,-2.232848175E0,4.519878988E0,7.056186235E0
7.273290416E-1,2.989862627E0,-1.018461590E0,1.878794589E0,3.675107025E0
7.373550417E-1,4.246224618E-1,7.080545461E-1,-1.958119086E0,2.125059018E0
7.473820416E-1,-1.346251237E-1,1.940094459E0,-2.815899775E0,3.422189647E0
7.574080416E-1,4.963561034E-1,2.019553442E0,-9.989944553E-1,2.307153096E0
7.674350416E-1,-1.436421150E-1,1.276268837E0,3.712512408E0,3.928389438E0
7.774610416E-1,8.405243862E-1,7.156483251E-1,8.192022804E0,8.266067468E0
7.874880417E-1,-1.333232996E0,2.340259772E0,3.663774111E0,4.547259258E0
7.975140417E-1,-3.384594707E0,3.654711512E0,-8.165773484E0,9.565158344E0
8.075410416E-1,-4.184868615E0,3.856583124E0,-7.038817391E0,9.051591517E0
8.175670416E-1,-1.256644412E0,3.687788626E0,8.065003154E-1,3.978615700E0
8.275940416E-1,-2.085397183E0,4.529037482E0,4.236673191E-1,5.004053949E0
8.376200417E-1,-2.144449384E0,3.762224266E0,6.363615426E-1,4.376979621E0
8.476470417E-1,-3.190254309E0,2.983121372E0,-1.118472952E-1,4.369124110E0
8.576730416E-1,-4.894420633E0,3.078267265E0,-2.457558426E-1,5.787182269E0
8.677000416E-1,-6.130469981E0,3.224439470E0,-6.030110711E-1,6.952934233E0
8.777260416E-1,-4.106860911E0,2.946307302E0,-8.416214700E-1,5.123998434E0
8.877530416E-1,-1.821995321E0,2.791126876E0,-1.058500107E0,3.497210126E0
8.977790417E-1,-1.826866636E0,2.669363873E0,-1.760120085E0,3.682521949E0
9.078060417E-1,-1.611286812E0,1.967169991E0,-2.405998848E0,3.500690421E0
9.178320416E-1,-2.197741492E0,7.175726438E-1,1.090865761E0,2.556358010E0
9.278590416E-1,-2.963481744E0,6.804410702E-1,1.025992073E0,3.209031603E0
9.378850416E-1,-1.851453009E0,1.229757160E0,-1.784017655E0,2.850070159E0
9.479120417E-1,-2.034136983E0,1.324901884E0,-3.468535581E0,4.233652954E0
9.579380417E-1,-9.476810449E-1,2.191656879E0,-4.678335316E-1,2.433172302E0
9.679650416E-1,2.366737134E0,1.667872072E0,5.275929527E-1,2.943058992E0
9.779910416E-1,-1.743611641E0,8.773635989E-1,-2.405928097E0,3.098134672E0
9.880180416E-1,-2.834721962E0,3.589854780E0,2.460860349E0,5.194086985E0
9.980440417E-1,-2.072118741E-1,1.942939714E0,9.227187697E-1,2.160870524E0
1.008071042E0,-1.048773556E0,-1.929481178E0,9.396054554E-1,2.388656945E0
1.018097042E0,-8.870401561E-2,-2.846646189E0,5.099695909E-1,2.893325407E0
1.028124042E0,2.937266922E-1,-3.575323865E0,-5.945758778E-1,3.636308098E0
1.038151042E0,-6.325167060E-2,-1.881741586E0,-2.907090027E0,3.463542203E0
1.048177042E0,2.359807599E-1,4.094436747E-1,-2.397446126E0,2.443579131E0
1.058204042E0,4.068916574E0,6.599366391E-1,-6.009206915E-1,4.165657707E0
1.068230042E0,3.856810580E0,1.015420454E0,1.330124617E-2,3.988263215E0
1.078257042E0,2.701223889E0,8.483573163E-1,-1.383973964E0,3.151460704E0
1.088283042E0,1.072935421E0,1.276716149E0,-1.651382339E0,2.346967868E0
1.098310042E0,7.776890373E-1,4.485048294E-2,-1.151183445E0,1.389976665E0
1.108336042E0,1.976362691E0,-1.454828185E0,-1.017660741E-1,2.456194387E0
1.118363042E0,4.412739579E0,-2.561316683E0,2.187970794E0,5.551561036E0
1.128389042E0,5.932513080E0,-3.123021854E0,4.302723924E0,7.966267012E0
1.138416042E0,4.054728305E0,-1.867680202E0,2.843752402E0,5.293012251E0
1.148442042E0,1.176384945E0,-7.501568377E-2,4.745459890E-1,1.270709561E0
1.158469042E0,1.568983376E-1,1.146912054E0,9.589550614E-1,1.503202967E0
1.168495042E0,-5.801791558E-1,2.053889462E0,1.414484736E0,2.560436846E0
1.178522042E0,-1.421198801E0,2.855029342E0,1.705150995E0,3.616426205E0
1.188548042E0,-2.267537951E0,3.236501107E0,1.666316128E0,4.288738417E0
1.198575042E0,-2.804060625E0,4.080895765E0,5.335502787E-1,4.980074511E0
1.208601042E0,-2.775645204E0,5.011367869E0,-8.091318548E-1,5.785560351E0
1.218628042E0,-2.358337316E0,5.859237528E0,-1.900943842E0,6.595908337E0
1.228654042E0,-1.714467364E0,6.354249356E0,-1.697792274E0,6.796939152E0
1.238681042E0,-1.186117782E0,6.462952019E0,-4.034227967E-1,6.583264703E0
1.248707042E0,-7.546426754E-1,6.120787577E0,8.945620143E-1,6.231674520E0
1.258734042E0,-3.106584746E-1,6.058967890E0,3.065601428E-1,6.074667044E0
1.268760042E0,2.782871193E-1,6.848650736E0,9.419706541E-1,6.918725991E0
1.278787042E0,2.261198692E-2,7.261171800E0,1.228998191E0,7.364479871E0
1.288813042E0,-8.084638104E-2,7.222158592E0,-3.172810676E-1,7.229576623E0
1.298840042E0,-8.346253496E-1,6.896942890E0,-1.476708466E0,7.102470598E0
1.308866042E0,-1.573770199E0,6.789387451E0,-1.880828251E0,7.218729078E0
1.318893042E0,-1.158541143E0,7.229362362E0,-1.099793437E0,7.403745224E0
1.328919042E0,6.888201302E-1,7.035311401E0,5.293952107E-2,7.069150039E0
1.338946042E0,6.955093449E-1,7.568333055E0,1.555900816E0,7.757849304E0
1.348972042E0,-5.344462549E-1,7.672221705E0,2.728224869E0,8.160381708E0
1.358999042E0,-5.567682565E-1,7.088688878E0,2.329812552E0,7.482481369E0
1.369026042E0,4.801477678E-3,6.050761322E0,-8.584396702E-1,6.111354539E0
1.379052042E0,1.015348460E0,4.039364746E0,-1.187708078E0,4.331056514E0
1.389079042E0,-1.971841916E-1,-2.051051457E1,7.825761402E-1,2.052638582E1
1.399105042E0,-1.113492176E1,-6.661085857E1,-2.112055224E-1,6.753545417E1
1.409132042E0,-5.279085562E-2,-5.982237685E1,8.239088651E-1,5.982807355E1
1.419158042E0,1.363034150E1,-2.469788112E1,-3.552519724E0,2.843223413E1
1.429185042E0,9.559788287E0,-4.559268172E0,2.323540974E0,1.084321544E1
1.439211042E0,3.780029622E0,3.044101399E0,5.422310185E0,7.277130274E0
1.449238042E0,1.175880915E-1,8.004751105E0,3.113537670E0,8.589760417E0
1.459264042E0,-1.273846043E0,1.062037965E1,-1.142921403E0,1.075738895E1
1.469291042E0,-2.198556886E0,1.097473729E1,-4.398084995E0,1.202587471E1
1.479317042E0,-4.009737489E0,9.200445310E0,-4.211051862E0,1.088389390E1
1.489344042E0,-4.844201821E0,5.391792397E0,-3.103039579E0,7.884578059E0
1.499370042E0,-3.993925449E0,1.666538322E0,-3.375597011E0,5.488483001E0
1.509397042E0,-2.542646524E0,-1.111036463E0,-4.137013832E0,4.981399082E0
1.519423042E0,-1.661599179E0,-3.064095953E0,-4.882240883E0,5.998822541E0
1.529450042E0,-1.510107469E0,-4.059179791E0,-4.359707379E0,6.145275712E0
1.539476042E0,-1.672975083E0,-3.850544119E0,-2.781690055E0,5.036202459E0
1.549503042E0,-1.653437197E0,-2.631771539E0,-1.792959802E0,3.588144485E0
1.559529042E0,-1.487404777E0,-1.233276599E0,-1.783225358E0,2.629303485E0
1.569556042E0,-2.068358397E0,-8.827132165E-1,-1.886759666E0,2.935498445E0
1.579582042E0,-2.395887550E0,-8.540823251E-1,-1.060287236E0,2.755710942E0
1.589609042E0,-2.388220681E0,-7.170323610E-1,-9.424067102E-2,2.495318563E0
1.599635042E0,-2.027555064E0,-5.274100810E-1,1.420753243E0,2.531339707E0
1.609662042E0,-1.688050667E0,-6.226518685E-1,2.521824589E0,3.097871795E0
1.619688042E0,-1.927741631E0,-3.383087879E-1,1.732010619E0,2.613522798E0
1.629715042E0,-1.434879824E0,2.114955443E-1,1.059696740E0,1.796264918E0
1.639741042E0,-1.015923606E0,4.740752882E-1,-1.856093359E-1,1.136353369E0
1.649768042E0,-4.501019964E-1,5.853314298E-1,-8.096532802E-1,1.095784251E0
1.659794042E0,1.345157808E-1,5.967071879E-1,-9.518632659E-1,1.131458192E0
1.669820917E0,4.594730365E-1,5.453680497E-1,-7.633117573E-1,1.044598784E0
1.679847917E0,7.710004073E-1,6.522691852E-1,-5.398990028E-1,1.145158352E0
1.689873917E0,1.307930340E0,7.579014748E-1,-2.936423461E-1,1.539909818E0
1.699900917E0,1.499914603E0,7.148472565E-1,-3.249309433E-1,1.693024080E0
1.709926917E0,1.769858330E0,7.949201971E-1,-4.283474305E-1,1.986901646E0
1.719953917E0,1.716308652E0,8.207631361E-1,-4.745693779E-1,1.960760977E0
1.729979917E0,1.289563651E0,8.900163889E-1,-2.632366785E-1,1.588835149E0
1.740006917E0,7.413225719E-1,1.006470121E0,-3.951548338E-2,1.250640929E0
1.750032917E0,2.730939147E-1,1.120856861E0,-1.737880200E-2,1.153777454E0
1.760059917E0,-3.662698808E-1,1.171862124E0,4.076649517E-2,1.228444695E0
1.770085917E0,-8.037187949E-1,1.377634413E0,1.599690029E-1,1.602944341E0
1.780112917E0,-1.073136273E0,1.689353573E0,2.746261775E-2,2.001572169E0
1.790138917E0,-1.475816181E0,1.896813369E0,-3.158578187E-1,2.423984430E0
1.800165917E0,-1.725308686E0,2.145096670E0,-5.622574398E-1,2.809673151E0
1.810191917E0,-1.876257190E0,2.388325639E0,-8.086713865E-1,3.142990584E0
1.820218917E0,-1.853415334E0,2.534876159E0,-9.398560086E-1,3.277815562E0
1.830244917E0,-1.682533965E0,2.496517839E0,-1.003266139E0,3.173336542E0
1.840271917E0,-1.310063112E0,2.300118636E0,-9.949426273E-1,2.827847579E0
1.850297917E0,-9.874295399E-1,1.970077811E0,-9.525596693E-1,2.400748551E0
1.860324917E0,-9.781330517E-1,1.534043924E0,-1.015552016E0,2.083598071E0
1.870350917E0,-1.026933914E0,1.144460317E0,-6.782992351E-1,1.680616712E0
1.880377917E0,-1.021884258E0,1.033761415E0,-4.999077022E-3,1.453593853E0
1.890403917E0,-6.821320850E-1,1.253173504E0,8.302022964E-2,1.429209702E0
1.900430917E0,-3.143656093E-1,1.494190471E0,-7.684352338E-2,1.528834794E0
1.910456917E0,1.875962198E-2,1.649266816E0,-2.883577788E-1,1.674390386E0
1.920483917E0,2.561805511E-1,1.733522270E0,-3.573967311E-1,1.788423988E0
1.930509917E0,3.827096200E-1,1.743456105E0,-3.482534400E-1,1.818622089E0
1.940536917E0,2.974420130E-1,1.707380539E0,-3.249364981E-1,1.763293448E0
1.950562917E0,2.042397344E-1,1.663248678E0,-3.448322341E-1,1.710853385E0
1.960589917E0,1.248857090E-1,1.605689857E0,-4.081914935E-1,1.661462203E0
1.970616917E0,2.209955156E-3,1.602814196E0,-4.988572499E-1,1.678653266E0
1.980642917E0,-2.706281438E-1,1.582454776E0,-8.639050627E-1,1.823111261E0
1.990669917E0,-8.868287793E-1,1.116724049E0,-1.741083890E0,2.250535713E0
2.000695917E0,-1.331459536E0,7.848822820E-1,-2.366485119E0,2.826495447E0
2.010722917E0,-1.797338782E0,7.991746312E-1,-2.727501276E0,3.362791995E0
2.020748917E0,-2.413422473E0,9.501006228E-1,-2.994859657E0,3.961878796E0
2.030775917E0,-2.964149496E0,1.044696878E0,-3.090842872E0,4.408047579E0
2.040801917E0,-3.532569024E0,9.802348334E-1,-3.223990989E0,4.882010050E0
2.050828917E0,-3.824714337E0,7.829725814E-1,-3.285230048E0,5.102374181E0
2.060854917E0,-4.016665855E0,3.791942739E-1,-2.925760771E0,4.983720395E0
2.070881917E0,-4.263156985E0,-5.883795834E-1,-2.067095691E0,4.774262520E0
2.080907917E0,-4.587408482E0,-2.411693451E0,-1.190778451E0,5.317756595E0
2.090934917E0,-4.241545968E0,-4.411311981E0,-6.981856155E-1,6.159370808E0
2.100960917E0,-3.090381819E0,-5.657130858E0,-3.370380418E-1,6.455012314E0
2.110987917E0,-1.497174013E0,-5.724500138E0,-5.890599069E-1,5.946294932E0
2.121013917E0,5.947138721E-1,-4.952443138E0,-1.347144400E0,5.166737429E0
2.131040917E0,2.520677950E0,-3.957677389E0,-1.321249128E0,4.874702750E0
2.141066917E0,4.505488406E0,-2.034689544E0,3.747372338E-1,4.957803477E0
2.151093917E0,6.131531251E0,6.723912084E-1,3.718311676E0,7.202334840E0
2.161119917E0,6.723098152E0,3.209931359E0,5.677595528E0,9.366899117E0
2.171146917E0,5.816934092E0,4.844612296E0,5.370162377E0,9.281467259E0
2.181172917E0,4.343470539E0,5.132972998E0,4.677257967E0,8.190841850E0
2.191199917E0,2.746446255E0,3.961747636E0,3.653601125E0,6.048736442E0
2.201225917E0,1.446601737E0,2.006559759E0,2.040799885E0,3.206836888E0
2.211252917E0,3.808747637E-1,-9.034883738E-2,1.733403572E0,1.777052740E0
2.221279917E0,-3.789171159E-2,-1.281227860E0,2.671328537E0,2.962933811E0
2.231305917E0,2.246386233E-1,-2.510869246E0,2.626592660E0,3.640592792E0
2.241331917E0,1.245667726E0,-4.676446373E0,1.943930379E0,5.215333555E0
2.251358917E0,2.345664938E0,-5.767260826E0,1.105704972E0,6.323450396E0
2.261385917E0,2.303532533E0,-4.308762344E0,9.074738359E-1,4.969426911E0
2.271411917E0,2.015768247E0,-1.891302953E0,1.314232031E0,3.060646062E0
2.281438917E0,2.049142400E0,-3.998378688E-1,1.685627142E0,2.683317677E0
2.291464917E0,2.283000036E0,5.756677365E-1,1.764865247E0,2.942487357E0
2.301491917E0,2.275881635E0,1.412323020E0,1.630068215E0,3.135508877E0
2.311517917E0,1.814235335E0,1.810345913E0,4.110851343E-1,2.595725941E0
2.321544917E0,1.584637396E0,1.886163835E0,-4.414378115E-1,2.502709937E0
2.331570917E0,1.934272825E0,1.664118159E0,-5.061642230E-1,2.601327129E0
2.341597917E0,2.482271098E0,1.088288455E0,-4.379611301E-1,2.745514800E0
2.351623917E0,2.605867789E0,6.581158161E-1,-9.273846285E-1,2.843185820E0
2.361650917E0,2.579107129E0,2.676001632E-1,-1.601162943E0,3.047478663E0
2.371676917E0,2.189169766E0,-4.262737155E-2,-1.910116954E0,2.905654511E0
2.381703917E0,1.356318681E0,1.135769016E-1,-1.739206349E0,2.208469787E0
2.391729917E0,8.769658421E-1,7.245811164E-2,-1.263779769E0,1.539954081E0
2.401756917E0,6.552110656E-1,-7.649619877E-2,-6.966419506E-1,9.594077424E-1
2.411782917E0,5.281474149E-1,5.510240614E-2,-1.305899602E-1,5.468360858E-1
2.421809917E0,5.455561839E-1,2.711365592E-1,1.809222078E-1,6.355150894E-1
2.431835917E0,5.738659170E-1,4.469851381E-1,1.857163034E-1,7.507385362E-1
2.441862917E0,7.588035540E-1,4.748746026E-1,6.361419797E-2,8.974048629E-1
2.451888917E0,9.186507887E-1,4.850768244E-1,1.404822431E-1,1.048310096E0
2.461915917E0,8.051494624E-1,4.367361385E-1,1.454505492E-1,9.274480976E-1
2.471941917E0,5.888371280E-1,2.544193697E-1,-1.206029890E-1,6.526894054E-1
2.481968917E0,5.977536933E-1,7.546358049E-2,-5.493359703E-1,8.153368863E-1
2.491994917E0,8.776230691E-1,-2.919631720E-2,-7.842683244E-1,1.177349345E0
2.502021917E0,1.225245887E0,-1.677981323E-1,-6.293007374E-1,1.387588957E0
2.512047917E0,1.249546184E0,-3.612789899E-1,-7.995400822E-1,1.526811225E0
2.522074917E0,1.305844492E0,-3.022688895E-1,-1.048833198E0,1.701953994E0
2.532100917E0,1.363265904E0,-1.764040643E-1,-1.225219136E0,1.841405509E0
2.542127917E0,1.200509241E0,1.410933137E-1,-1.307789861E0,1.780854874E0
2.552154917E0,8.650071166E-1,4.200856072E-1,-1.638993112E0,1.900265153E0
2.562180917E0,5.399723853E-1,2.747647566E-1,-2.100109801E0,2.185755482E0
2.572207917E0,5.225504601E-1,-3.035213631E-1,-2.528400367E0,2.599613937E0
2.582233917E0,7.941597667E-1,-1.154403507E0,-2.959631937E0,3.274562321E0
2.592260917E0,1.410384376E0,-2.037966324E0,-3.352353160E0,4.169024170E0
2.602286917E0,2.120398616E0,-2.709189844E0,-3.514975922E0,4.918420034E0
2.612313917E0,2.706037610E0,-2.657246103E0,-3.599113262E0,5.228500040E0
2.622339917E0,3.124073768E0,-2.244045593E0,-3.656646940E0,5.307225676E0
2.632366917E0,3.166445031E0,-1.970420458E0,-3.622836000E0,5.199410698E0
2.642392917E0,3.053558101E0,-1.841628517E0,-3.741111140E0,5.168338730E0
2.652419917E0,3.088185897E0,-1.910673024E0,-3.967552752E0,5.378572150E0
2.662445917E0,3.265790395E0,-2.011198356E0,-4.231604240E0,5.711110240E0
2.672473042E0,3.375629171E0,-2.024348159E0,-4.411706960E0,5.912361294E0
2.682499042E0,2.978097444E0,-1.908598432E0,-4.397454665E0,5.643529028E0
2.692526042E0,2.272271418E0,-2.056876220E0,-4.345296916E0,5.317477078E0
2.702552042E0,1.900251678E0,-2.771814108E0,-3.587334630E0,4.915575209E0
2.712579042E0,1.777575047E0,-4.424999143E0,-2.417414513E0,5.346427162E0
2.722605042E0,2.124973624E0,-6.124288890E0,-1.222709657E0,6.596775441E0
2.732632042E0,2.353167647E0,-6.311513811E0,-4.932301819E-2,6.736099563E0
2.742658042E0,1.829150559E0,-5.070835222E0,9.616598372E-1,5.475760336E0
2.752685042E0,1.436052775E-1,-3.533919146E0,1.529969584E0,3.853571582E0
2.762711042E0,-2.275807083E0,-2.389910819E0,1.355848857E0,3.567814138E0
2.772738042E0,-4.268146122E0,-1.517709142E0,7.891723841E-1,4.598185012E0
2.782765042E0,-5.544826895E0,-1.016831971E0,-3.386853852E-1,5.647456095E0
2.792791042E0,-6.121795052E0,-1.072448348E0,-7.915551245E-1,6.265227820E0
2.802818042E0,-5.236440064E0,-1.752809896E0,-2.097840643E-1,5.525998229E0
2.812844042E0,-4.263954545E0,-2.333868765E0,6.807924879E-1,4.908332730E0
2.822871042E0,-5.420864169E0,-1.590128077E0,1.427362643E0,5.826803563E0
2.832897042E0,-6.397052729E0,-1.143468044E0,1.621442256E0,6.697677043E0
2.842924042E0,-5.781669534E0,-7.090737158E-1,1.464721674E0,6.006321480E0
2.852950042E0,-4.278323785E0,1.365324855E-3,1.349222792E0,4.486029249E0
2.862977042E0,-2.793567212E0,5.951483202E-1,1.652085321E0,3.299637131E0
2.873003042E0,-1.899986507E0,9.205464560E-1,2.244087839E0,3.081117448E0
2.883030042E0,-1.711517882E0,1.031505559E0,2.989141080E0,3.595589184E0
2.893056042E0,-1.334400539E0,1.141079457E0,3.366796367E0,3.797104805E0
2.903083042E0,-1.599372671E0,1.216413814E0,2.578897799E0,3.269307169E0
2.913109042E0,-1.902518351E0,1.426759211E0,1.551633225E0,2.839504109E0
2.923136042E0,-1.828783792E0,1.621500728E0,2.384296615E0,3.414467033E0
2.933162042E0,-1.512624403E0,1.796537713E0,3.572028959E0,4.274923534E0
2.943189042E0,-1.276029393E0,2.078125001E0,4.319170387E0,4.960049130E0
2.953215042E0,-1.039050221E0,2.291560652E0,4.118197200E0,4.826015309E0
2.963242042E0,-5.740679383E-1,2.305334353E0,3.070853288E0,3.882558485E0
2.973268042E0,-1.348901488E-1,1.966239699E0,2.691763094E0,3.336147848E0
2.983295042E0,-2.466063201E-4,1.546513696E0,2.854468302E0,3.246489482E0
2.993321042E0,-1.846191099E-1,1.071554893E0,2.680989307E0,2.893098299E0
3.003348042E0,1.023635499E-1,6.887300831E-1,2.256282938E0,2.361279340E0
3.013374042E0,9.167206228E-2,5.073903841E-1,1.979592986E0,2.045638570E0
3.023401042E0,-1.016538441E-1,2.681907320E-1,1.551192930E0,1.577485112E0
3.033427042E0,-7.668962467E-1,4.351304930E-1,1.202480191E0,1.491116028E0
3.043454042E0,-1.504997880E0,9.711798352E-1,1.366891032E0,2.253131151E0
3.053481042E0,-1.733885090E0,1.650631557E0,1.464712903E0,2.806479276E0
3.063507042E0,-1.763390725E0,2.273342482E0,1.083769142E0,3.074441159E0
3.073534042E0,-1.557299762E0,2.727986888E0,6.506363502E-1,3.207868867E0
3.083560042E0,-1.206600724E0,2.981865975E0,1.758649510E-1,3.221542873E0
3.093587042E0,-8.105489275E-1,2.949616241E0,-1.590963060E-1,3.063092746E0
3.103613042E0,-6.118734035E-1,2.766063371E0,-2.292102689E-1,2.842188063E0
3.113640042E0,-4.447164184E-1,2.573030995E0,-2.649893814E-1,2.624591505E0
3.123666042E0,-1.845849037E-2,2.319151323E0,-2.483908904E-1,2.332488287E0
3.133693042E0,3.420051053E-1,1.902731336E0,-1.515381950E-1,1.939153901E0
3.143719042E0,4.762887517E-1,1.517127929E0,7.085889816E-2,1.591712634E0
3.153746042E0,6.286034569E-1,1.355785123E0,2.123211712E-1,1.509428993E0
3.163772042E0,7.880678451E-1,1.537021326E0,2.055237830E-1,1.739461270E0
3.173799042E0,9.494053888E-1,1.836336202E0,1.637237924E-1,2.073718091E0
3.183825042E0,7.773203704E-1,2.161409817E0,2.356223255E-2,2.297057800E0
3.193852042E0,5.581752062E-1,2.394520179E0,-3.584422132E-1,2.484706677E0
3.203878042E0,2.100477737E-1,2.345207686E0,-1.113782023E0,2.604732146E0
3.213905042E0,-3.964973545E-1,2.005768046E0,-1.742354490E0,2.686282706E0
3.223931042E0,-1.091952905E0,1.601644168E0,-2.290154104E0,3.000405141E0
3.233958042E0,-1.878960942E0,1.223093673E0,-2.859986319E0,3.634002491E0
3.243984042E0,-2.680043228E0,9.565723211E-1,-3.363213486E0,4.405549598E0
3.254011042E0,-3.276385549E0,7.982110101E-1,-3.637773297E0,4.960366685E0
3.264037042E0,-3.504188101E0,8.531608039E-1,-3.284036339E0,4.877715887E0
3.274064042E0,-3.284881261E0,1.269146343E0,-2.512641829E0,4.326031242E0
3.284090042E0,-3.091795968E0,1.819310864E0,-2.138076503E0,4.176178332E0
3.294117042E0,-2.871080826E0,2.271997038E0,-1.917892874E0,4.133205623E0
3.304143042E0,-2.833357514E0,2.242522393E0,-1.947877395E0,4.105002781E0
3.314170042E0,-3.460265864E0,1.296565692E0,-2.939202350E0,4.721592199E0
3.324197042E0,-4.303006052E0,-4.645811641E-1,-1.615642695E0,4.619740043E0
3.334223042E0,-4.273203379E0,-2.678990144E0,9.378968990E-1,5.130000575E0
3.344250042E0,-3.806006170E0,-5.830241185E0,3.177365583E0,7.653303032E0
3.354276042E0,-3.626857715E0,-9.254410433E0,4.925105066E0,1.109300993E1
3.364303042E0,-3.178451704E0,-1.143900154E1,3.547048484E0,1.239091862E1
3.374329042E0,-9.251581550E-1,-1.091696914E1,6.084384567E-1,1.097298183E1
3.384356042E0,2.571637896E0,-6.225107751E0,1.890216248E0,6.995584711E0
3.394382042E0,5.138593926E0,-2.373402375E-1,5.398006818E0,7.456537772E0
3.404409042E0,6.422254229E0,3.735283805E0,7.398372622E0,1.048492308E1
3.414435042E0,6.342336239E0,5.981232666E0,7.396975722E0,1.143309333E1
3.424462042E0,5.411607442E0,6.594351819E0,5.197618060E0,9.989304506E0
3.434488042E0,3.956260609E0,5.581194822E0,3.927350513E0,7.888334153E0
3.444515042E0,1.916870780E0,3.181862385E0,4.667143453E0,5.964970229E0
3.454541042E0,3.459344342E-1,5.431765133E-1,5.253299925E0,5.292624251E0
3.464568042E0,-6.887128338E-2,-1.329580241E0,4.770359674E0,4.952661737E0
3.474594042E0,1.913916328E0,-5.031914400E0,2.233780367E0,5.828637317E0
3.484621042E0,4.692446694E0,-8.485112150E0,-1.411966778E0,9.798460816E0
3.494647042E0,4.055572059E0,-8.180220784E0,-1.673741068E0,9.282515067E0
3.504674042E0,1.991068731E0,-4.694154081E0,1.262816002E0,5.253012610E0
3.514700042E0,1.258648983E0,-1.130864956E0,3.302626684E0,3.710848397E0
3.524727042E0,1.385864954E0,1.364012155E0,4.050252846E0,4.492849758E0
3.534753042E0,1.380111148E0,2.897804648E0,3.374557961E0,4.657211611E0
3.544780042E0,4.956439126E-1,3.597656720E0,9.503396277E-1,3.753923570E0
3.554807042E0,-1.874982789E-1,3.708245695E0,-1.317225659E0,3.939711306E0
3.564833042E0,-1.775872484E-2,3.103370531E0,-1.148365088E0,3.309073345E0
3.574860042E0,6.400037733E-1,2.105509266E0,-3.151755217E-1,2.223085628E0
3.584886042E0,1.089731109E0,1.105098615E0,2.712406397E-2,1.552254024E0
3.594913042E0,1.364865264E0,-8.189025521E-2,2.185012030E-1,1.384668183E0
3.604939042E0,1.458459744E0,-1.041441733E0,-1.858631416E-1,1.801735501E0
3.614966042E0,1.211060542E0,-8.217793822E-1,-1.311664957E0,1.965312684E0
3.624992042E0,8.990396659E-1,-3.133464396E-1,-1.980794588E0,2.197727352E0
3.635019042E0,9.365773286E-1,1.286972165E-2,-1.759738262E0,1.993494789E0
3.645045042E0,1.321999472E0,3.637055844E-1,-9.446691442E-1,1.665041786E0
3.655072042E0,1.593568140E0,5.112641644E-1,-1.518989865E-1,1.680453441E0
3.665098042E0,1.729289471E0,4.962835979E-1,5.655888909E-1,1.885903040E0
3.675125375E0,1.575394556E0,4.177660167E-1,1.144135212E0,1.991341717E0
3.685151375E0,1.243229876E0,4.415776330E-1,1.079087861E0,1.704418359E0
3.695178375E0,1.111877000E0,7.320942038E-1,6.563148737E-1,1.484244454E0
3.705204375E0,7.015248142E-1,1.069379144E0,-1.481560193E-2,1.279034136E0
3.715231375E0,1.096962507E-1,1.212366956E0,-6.616627371E-1,1.385519571E0
3.725257375E0,-2.012839669E-1,1.060144637E0,-1.021277536E0,1.485742135E0
3.735284375E0,-1.140812239E-1,6.779074717E-1,-1.024243975E0,1.233551290E0
3.745310375E0,3.174577631E-1,2.441545826E-1,-1.096371134E0,1.167227722E0
3.755337375E0,7.687379734E-1,-8.155111670E-2,-1.139862067E0,1.377277818E0
3.765363375E0,1.085235916E0,-3.324633265E-1,-1.193220102E0,1.646828184E0
3.775390375E0,1.332021161E0,-4.716323215E-1,-1.257589176E0,1.891625744E0
3.785416375E0,1.368350497E0,-6.076315409E-1,-1.484244942E0,2.108217783E0
3.795443375E0,1.361861549E0,-9.397528052E-1,-1.819972184E0,2.459695299E0
3.805470375E0,1.338866935E0,-1.146007490E0,-2.082741963E0,2.728316682E0
3.815496375E0,1.411378987E0,-1.198205584E0,-2.583660648E0,3.178520035E0
3.825523375E0,1.445459337E0,-1.179390414E0,-3.181427352E0,3.688061068E0
3.835549375E0,1.515174959E0,-1.166192663E0,-3.517114248E0,4.003230335E0
3.845576375E0,1.528455447E0,-1.254699628E0,-3.490628116E0,4.011848932E0
3.855602375E0,1.302871329E0,-1.380734607E0,-3.405641760E0,3.899012381E0
3.865629375E0,9.876928107E-1,-1.475132641E0,-3.398231583E0,3.833996778E0
3.875655375E0,8.163733390E-1,-1.721745978E0,-3.552926105E0,4.031644646E0
3.885682375E0,8.194385956E-1,-1.991841733E0,-3.907089618E0,4.461419324E0
3.895708375E0,9.234164156E-1,-2.152264772E0,-4.050620052E0,4.678938376E0
3.905735375E0,1.183308633E0,-2.066125930E0,-3.866712840E0,4.540987103E0
3.915761375E0,1.499072458E0,-2.091645518E0,-3.627751170E0,4.447783466E0
3.925788375E0,1.732382648E0,-2.669969645E0,-3.011065215E0,4.381369794E0
3.935814375E0,1.632904845E0,-3.811121022E0,-2.406982350E0,4.794224203E0
3.945841375E0,1.608153143E0,-4.958577452E0,-1.273986230E0,5.366254541E0
3.955867375E0,1.479457827E0,-5.748423436E0,-2.463205375E-1,5.940861997E0
3.965894375E0,8.692372848E-1,-5.737796706E0,2.956772503E-1,5.810792505E0
3.975920375E0,-4.862499221E-1,-4.887410991E0,9.293575522E-1,4.998692893E0
3.985947375E0,-2.646397764E0,-3.999165723E0,1.013149834E0,4.901348814E0
3.995973375E0,-4.647326655E0,-3.257025418E0,-3.280463398E-2,5.675115484E0
4.006000375E0,-5.503051463E0,-2.713575255E0,-1.625963908E0,6.347505392E0
4.016026375E0,-5.269499052E0,-2.395807151E0,-1.903076321E0,6.093374406E0
4.026053375E0,-3.732628876E0,-2.071458006E0,-7.315369642E-1,4.331120286E0
4.036079375E0,-2.174972873E0,-1.915204616E0,7.023266137E-1,2.981908515E0
4.046106375E0,-1.067408925E0,-1.851193392E0,1.823885726E0,2.809419500E0
4.056133375E0,-1.572763309E0,-1.676268089E0,2.289105406E0,3.243988701E0
4.066159375E0,-2.241191274E0,-1.820103162E0,2.548728797E0,3.851198817E0
4.076186375E0,-2.590767354E0,-2.072707556E0,2.068382370E0,3.909782312E0
4.086212375E0,-2.978254734E0,-1.226168724E0,1.436623464E0,3.526666695E0
4.096239375E0,-2.523033793E0,7.242361307E-2,1.345129741E0,2.860125648E0
4.106265375E0,-1.697252284E0,5.839175731E-1,2.016787855E0,2.699825606E0
4.116292375E0,-1.496948018E0,1.051252776E0,3.373668015E0,3.837658354E0
4.126318375E0,-1.709913114E0,1.663336971E0,3.783371891E0,4.472627371E0
4.136345375E0,-1.611296314E0,2.393556558E0,3.241582922E0,4.339729098E0
4.146371375E0,-1.342461365E0,3.295379060E0,2.996063014E0,4.651679186E0
4.156398375E0,-3.907172357E-1,3.941980539E0,3.511412044E0,5.293570163E0
4.166424375E0,2.080933419E-1,4.156948160E0,4.474414548E0,6.110966076E0
4.176451375E0,3.662134552E-1,4.270657793E0,4.173949524E0,5.982849230E0
4.186477375E0,-8.136502907E-2,4.605603848E0,3.507007044E0,5.789413223E0
4.196504375E0,-2.398029386E-1,4.428610384E0,3.631865855E0,5.732411794E0
4.206530375E0,4.724564865E-2,3.606034611E0,3.439985381E0,4.983895784E0
4.216557375E0,1.639082721E-1,2.576417118E0,2.871631634E0,3.861484084E0
4.226583375E0,2.339181545E-1,1.658034716E0,2.758798206E0,3.227191405E0
4.236610375E0,3.053190896E-1,9.587667811E-1,2.368134034E0,2.573035617E0
4.246636375E0,2.123433906E-1,4.843008989E-1,1.567554024E0,1.654346607E0
4.256663375E0,1.895871967E-2,2.704752392E-1,9.570000449E-1,9.946684744E-1
4.266690375E0,5.340598270E-1,2.805792278E-1,6.899419186E-1,9.164957463E-1
4.276716375E0,4.455303508E-1,5.422286797E-1,8.534800619E-2,7.069607604E-1
4.286743375E0,5.462147266E-2,7.786351168E-1,-3.927928510E-1,8.738091177E-1
4.296769375E0,7.581587523E-2,1.257270648E0,-4.661333075E-1,1.343040502E0
4.306796375E0,2.772796440E-1,1.805817829E0,-5.869973016E-1,1.918965311E0
4.316822375E0,-1.574362814E-2,1.991227775E0,-4.741843387E-1,2.046970127E0
4.326849375E0,-3.504402986E-1,1.886660264E0,-3.126292786E-1,1.944230547E0
4.336875375E0,-4.649790671E-1,1.727656344E0,-2.786782980E-1,1.810708030E0
4.346902375E0,-3.126436043E-1,1.537503721E0,-1.868840289E-1,1.580059922E0
4.356928375E0,-1.884528369E-1,1.386214617E0,-1.701086596E-1,1.409270163E0
4.366955375E0,2.509917319E-3,1.448426068E0,-1.865568772E-1,1.460393044E0
4.376981375E0,3.980208465E-1,1.649696002E0,-1.124785021E-1,1.700755393E0
4.387008375E0,7.107580063E-1,1.962053093E0,2.888685331E-1,2.106721223E0
4.397034375E0,7.092973718E-1,2.189304544E0,7.310121766E-1,2.414650275E0
4.407061375E0,3.373916522E-1,2.096638455E0,1.030410376E0,2.360396467E0
4.417087375E0,1.024207065E-1,1.830070910E0,1.088441360E0,2.131749078E0
4.427114375E0,-1.412277997E-2,1.399490136E0,6.906003150E-1,1.560673216E0
4.437140375E0,-6.331192616E-1,7.910522640E-1,-2.051106772E-1,1.033766934E0
4.447167375E0,-1.466231717E0,2.999001825E-1,-1.265905524E0,1.960176616E0
4.457193375E0,-1.942156772E0,-9.348060608E-2,-2.357142730E0,3.055623243E0
4.467220375E0,-2.445534212E0,-4.395843172E-1,-3.488347409E0,4.282807444E0
4.477246375E0,-2.808534622E0,-5.595270824E-1,-4.447121207E0,5.289406801E0
4.487273375E0,-2.794284665E0,-3.382409602E-1,-4.952202233E0,5.696204060E0
4.497300375E0,-2.521947380E0,2.779889113E-1,-4.843077694E0,5.467439801E0
4.507326375E0,-2.349339621E0,9.454608572E-1,-4.337533276E0,5.022697264E0
4.517353375E0,-2.199199495E0,1.653674448E0,-3.523611967E0,4.470677677E0
4.527379375E0,-1.762185321E0,2.353592593E0,-2.589242108E0,3.917763379E0
4.537406375E0,-1.261006727E0,2.856580608E0,-1.590071944E0,3.504071849E0
4.547432375E0,-8.438593456E-1,3.040028813E0,-4.729248485E-1,3.190224396E0
4.557459375E0,-5.318387622E-1,2.874710485E0,6.020904270E-1,2.984849364E0
4.567485375E0,-6.099096161E-1,1.953726658E0,1.034386775E0,2.293249570E0
4.577512375E0,-1.027822398E0,-2.254686356E-1,4.119670406E-1,1.130031783E0
4.587538375E0,-1.180272759E0,-3.643414691E0,1.138691454E0,3.995514062E0
4.597565375E0,-1.609724143E0,-7.570598851E0,2.781428392E0,8.224446649E0
4.607591375E0,-3.079208667E0,-1.158461241E1,2.021626572E0,1.215614020E1
4.617618375E0,-4.099081190E0,-1.387226186E1,1.367806998E-1,1.446585029E1
4.627644375E0,-2.669919651E0,-1.202445166E1,-5.434659505E-1,1.232928481E1
4.637671375E0,5.316443422E-1,-5.671490450E0,1.139559473E0,5.809220724E0
4.647697375E0,3.292320966E0,1.227635205E0,5.931911986E0,6.894493843E0
4.657724375E0,5.125390913E0,5.506825840E0,9.205138285E0,1.188820145E1
4.667750500E0,4.385048627E0,7.569644001E0,8.712824947E0,1.234671941E1
4.677777500E0,3.098948867E0,7.856905426E0,7.182387586E0,1.108698058E1
4.687803500E0,1.889015083E0,6.504283063E0,5.428066185E0,8.679745310E0
4.697830500E0,1.740593747E0,3.598857154E0,3.531919398E0,5.334406625E0
4.707857500E0,2.315112798E0,-1.861567522E0,1.690688492E0,3.418129384E0
4.717883500E0,2.980666126E0,-6.575718496E0,1.754101838E0,7.429758917E0
4.727910500E0,3.504286919E0,-7.276834152E0,2.471247343E0,8.446265773E0
4.737936500E0,3.461922087E0,-5.326401231E0,2.863878518E0,6.968303580E0
4.747963500E0,1.702337900E0,-1.731518430E0,3.849094595E0,4.551004240E0
4.757989500E0,-1.772131728E-1,1.206784619E0,4.254347278E0,4.425743371E0
4.768016500E0,-1.346064857E0,2.790640388E0,2.799594229E0,4.175798394E0
4.778042500E0,-2.178117651E0,3.688173957E0,-1.152501335E0,4.435660376E0
4.788069500E0,-2.206562455E0,3.985907747E0,-2.411735551E0,5.154885722E0
4.798095500E0,-1.202982759E0,3.204686991E0,1.157631755E-1,3.424994503E0
4.808122500E0,-3.819426115E-1,1.886849129E0,1.073815354E0,2.204350064E0
4.818148500E0,4.634868577E-1,6.286084270E-1,5.434402227E-1,9.514703871E-1
4.828175500E0,1.467422503E0,-9.132941544E-2,-4.960836232E-1,1.551698690E0
4.838201500E0,2.201810569E0,-4.656640685E-1,-1.339674289E0,2.619072356E0
4.848228500E0,2.566763949E0,-4.982406610E-1,-1.597525975E0,3.064083903E0
4.858254500E0,2.519219947E0,-2.299125195E-1,-1.455412906E0,2.918485161E0
4.868281500E0,2.351907864E0,1.639225978E-1,-7.028329825E-1,2.460145406E0
4.878307500E0,2.231965976E0,3.613684523E-1,4.749254733E-1,2.310370854E0
4.888334500E0,1.708558606E0,2.943558526E-1,1.352634643E0,2.198963018E0
4.898360500E0,1.043266649E0,1.507926750E-1,1.702649556E0,2.002538200E0
4.908387500E0,5.254974568E-1,1.734868884E-2,1.797207804E0,1.872539571E0
4.918414500E0,1.565008731E-1,6.121976316E-2,1.761335136E0,1.769333729E0
4.928440500E0,-1.450983641E-1,2.411900443E-1,1.428476538E0,1.455943472E0
4.938467500E0,-3.908213161E-1,3.734616637E-1,8.290977573E-1,9.897565391E-1
4.948493500E0,-5.798233527E-1,3.098895657E-1,9.440855920E-2,6.641834380E-1
4.958520500E0,-5.536330891E-1,1.661433703E-1,-5.298156986E-1,7.841032402E-1
4.968546500E0,-2.227431022E-1,1.826202393E-2,-9.626949406E-1,9.882962813E-1
4.978573500E0,9.436806723E-2,-3.461668611E-2,-1.157989604E0,1.162343999E0
4.988599500E0,4.449679948E-1,-6.963799953E-2,-1.202011610E0,1.283619055E0
4.998626500E0,8.106679183E-1,-1.168519270E-1,-9.060022379E-1,1.221342254E0
5.008652500E0,1.097343453E0,-2.065920693E-1,-5.056994424E-1,1.225795604E0
5.018679500E0,1.193309126E0,-4.229133207E-1,-5.016096805E-1,1.361783617E0
5.028705500E0,9.847186245E-1,-2.758383054E-1,-1.146285671E0,1.536140742E0
5.038732500E0,9.358109048E-1,1.294047296E-1,-1.924894037E0,2.144225895E0
5.048758500E0,1.073521897E0,4.019633317E-1,-2.236888601E0,2.513502416E0
5.058785500E0,1.273601776E0,2.951265156E-1,-2.285952002E0,2.633389014E0
5.068811500E0,1.419319798E0,-1.934130299E-1,-2.332511626E0,2.737240906E0
5.078838500E0,1.340671678E0,-9.442165697E-1,-2.329439061E0,2.848724595E0
5.088864500E0,1.206007816E0,-1.665632588E0,-2.254529065E0,3.051505871E0
5.098891500E0,1.015700097E0,-1.945012552E0,-2.347953100E0,3.213659016E0
5.108917500E0,8.185930882E-1,-1.795160109E0,-2.600640378E0,3.264356727E0
5.118944500E0,6.791400647E-1,-1.509414282E0,-2.819032713E0,3.269022505E0
5.128971500E0,7.550328308E-1,-1.281557059E0,-3.066678668E0,3.408369276E0
5.138997500E0,9.218091622E-1,-1.227930490E0,-3.232697493E0,3.578809648E0
5.149024500E0,1.108857936E0,-1.445324121E0,-3.184571400E0,3.668790364E0
5.159050500E0,1.253695515E0,-1.897232029E0,-3.176223915E0,3.906358941E0
5.169077500E0,1.391944450E0,-2.489507028E0,-3.150747596E0,4.249984119E0
5.179103500E0,1.578828625E0,-3.434084955E0,-2.856696968E0,4.737758634E0
5.189130500E0,1.614137183E0,-4.884635317E0,-2.296667171E0,5.633806983E0
5.199156500E0,1.588334298E0,-6.476027563E0,-1.686751708E0,6.877998994E0
5.209183500E0,1.589254065E0,-6.977422796E0,-7.574607410E-1,7.196103400E0
5.219209500E0,9.846013878E-1,-5.495806763E0,-4.076253368E-1,5.598168475E0
5.229236500E0,-3.758254007E-1,-3.636093977E0,-1.670155994E0,4.018935828E0
5.239262500E0,-2.137412406E0,-1.784113550E0,-3.038261200E0,4.120997946E0
5.249289500E0,-3.335148020E0,-1.565352255E-1,-3.565361964E0,4.884620919E0
5.259315500E0,-3.532726606E0,6.084600914E-1,-3.112205089E0,4.747230927E0
5.269342500E0,-3.271984935E0,4.261485851E-1,-2.754277723E0,4.298084900E0
5.279368500E0,-2.922945337E0,-5.276895779E-1,-2.475302387E0,3.866417934E0
5.289395500E0,-2.392378929E0,-1.766892915E0,-2.112652225E0,3.648107308E0
5.299421500E0,-2.293520785E0,-2.514476393E0,-1.514084453E0,3.724953805E0
5.309448500E0,-2.405874302E0,-2.492026008E0,5.456972480E-2,3.464304063E0
5.319474500E0,-1.556086465E0,-1.848049344E0,2.451483754E0,3.441869268E0
5.329501500E0,-7.016734797E-1,-1.171790203E0,3.882105635E0,4.115359294E0
5.339528500E0,-3.223977832E-1,-5.061151063E-1,4.497352005E0,4.537209262E0
5.349554500E0,-4.985467628E-2,1.378387535E-1,4.224734931E0,4.227276931E0
5.359581500E0,-1.499823971E-1,5.885333651E-1,3.285009023E0,3.340681146E0
5.369607500E0,-5.643096663E-1,7.546966159E-1,2.445328975E0,2.620619426E0
5.379634500E0,-1.055229613E0,6.807404476E-1,1.939054678E0,2.310162362E0
5.389660500E0,-1.364462098E0,6.895071781E-1,1.635343426E0,2.238643582E0
5.399687500E0,-1.125446780E0,1.068260572E0,1.804183094E0,2.379682277E0
5.409713500E0,-8.252535054E-1,1.515391306E0,2.262153396E0,2.845134820E0
5.419740500E0,-8.327301939E-1,1.971578207E0,2.515020769E0,3.302406648E0
5.429766500E0,-9.546670058E-1,2.250896775E0,2.640686789E0,3.598770915E0
5.439793500E0,-8.633108394E-1,2.387861955E0,2.538677434E0,3.590553360E0
5.449819500E0,-6.645395672E-1,2.199735977E0,2.344737131E0,3.283023518E0
5.459846500E0,-1.057395568E0,1.942026964E0,2.155179901E0,3.087775012E0
5.469872500E0,-8.879521756E-1,1.611550521E0,2.348189473E0,2.983211014E0
5.479899500E0,-5.295766206E-1,1.184992631E0,2.637350367E0,2.939434621E0
5.489925500E0,-3.141577408E-1,8.971032143E-1,2.721165818E0,2.882400505E0
5.499952500E0,2.625700960E-1,7.550123656E-1,2.487993476E0,2.613254344E0
5.509978500E0,6.732346693E-1,7.410305035E-1,2.118701754E0,2.343345525E0
5.520005500E0,3.983351344E-1,6.954497033E-1,1.503389018E0,1.703672419E0
5.530032500E0,1.129015481E-1,9.451708353E-1,1.590379215E0,1.853483400E0
5.540058500E0,-3.799623057E-1,1.323341846E0,1.836783222E0,2.295512492E0
5.550085500E0,-1.005874289E0,1.759374565E0,1.830040797E0,2.730610054E0
5.560111500E0,-1.406512934E0,2.303232864E0,1.284333024E0,2.988757530E0
5.570138500E0,-1.384324505E0,2.674648587E0,6.238496706E-1,3.075595521E0
5.580164500E0,-1.225544241E0,2.727015665E0,1.732544616E-1,2.994760463E0
5.590191500E0,-9.949034509E-1,2.522267223E0,-7.507181704E-2,2.712434441E0
5.600217500E0,-5.291338402E-1,2.238372039E0,-3.398796424E-1,2.325039823E0
5.610244500E0,-3.302887470E-2,2.006466789E0,-5.674439201E-1,2.085423814E0
5.620270500E0,4.762083524E-1,1.759897891E0,-8.425861144E-1,2.008473635E0
5.630297500E0,9.457131645E-1,1.517223238E0,-1.174932789E0,2.139347284E0
5.640323500E0,1.165407675E0,1.335691166E0,-1.379863372E0,2.246390185E0
5.650350500E0,1.284918038E0,1.385707664E0,-1.390062962E0,2.345948664E0
5.660376500E0,1.238818882E0,1.680738285E0,-1.382101394E0,2.503948416E0
5.670402625E0,1.196979716E0,1.913635224E0,-1.604616308E0,2.769395910E0
5.680428625E0,9.529607883E-1,1.964028867E0,-1.568679906E0,2.688177877E0
5.690455625E0,4.749009150E-1,1.719087834E0,-1.528029478E0,2.348545921E0
5.700481625E0,-1.735705036E-1,1.259154037E0,-1.640305374E0,2.075137905E0
5.710508625E0,-8.119744787E-1,8.308712178E-1,-1.794494404E0,2.137723018E0
5.720534625E0,-1.242742656E0,5.541037899E-1,-2.368764364E0,2.731754918E0
5.730561625E0,-1.621048154E0,3.723594636E-1,-3.424682340E0,3.807216545E0
5.740588625E0,-1.965840042E0,2.098320115E-1,-4.529989701E0,4.942606927E0
5.750614625E0,-2.021799065E0,1.398297304E-1,-5.571548671E0,5.928691120E0
5.760641625E0,-1.794469261E0,2.739122325E-1,-5.974552807E0,6.244231664E0
5.770667625E0,-1.499789473E0,7.036480844E-1,-5.216516261E0,5.473255977E0
5.780694625E0,-1.227942477E0,1.335257887E0,-3.779832279E0,4.192599242E0
5.790720625E0,-1.498910344E0,1.714757971E0,-2.689760131E0,3.524476795E0
5.800747625E0,-2.785564128E0,9.665277904E-1,-1.935195369E0,3.526829256E0
5.810773625E0,-5.269847546E0,-2.522912171E0,-4.965536224E0,7.667654724E0
5.820800625E0,-6.786046937E0,-8.744764777E0,-3.243773289E0,1.153444447E1
5.830826625E0,-5.150055639E0,-1.367048146E1,9.463591064E0,1.740588097E1
5.840853625E0,-1.654853831E0,-1.289280412E1,1.288671366E1,1.830383370E1
5.850879625E0,2.978064700E0,-4.003535932E0,9.956379197E0,1.113672555E1
5.860906625E0,2.881169904E0,2.965290872E0,1.031496437E1,1.111272154E1
5.870932625E0,1.603442187E0,6.570672349E0,9.917209868E0,1.200399157E1
5.880959625E0,1.633707668E0,8.937529936E0,4.937765458E0,1.034069484E1
5.890985625E0,2.708011922E0,9.598796232E0,1.685367818E0,1.011487431E1
5.901012625E0,3.501519432E0,6.153561221E0,1.730414183E0,7.288435173E0
5.911038625E0,2.559488551E0,1.011047906E0,4.449287893E0,5.231573593E0
5.921065625E0,1.124776835E0,-3.583198310E0,7.411827650E0,8.309008495E0
5.931091625E0,1.387197827E0,-6.329758878E0,6.953136971E0,9.504539916E0
5.941118625E0,3.657433975E0,-9.190676367E0,3.559663267E0,1.051268557E1
5.951145625E0,6.201710118E0,-1.030540418E1,-8.302122366E-1,1.205619409E1
5.961171625E0,5.115240147E0,-8.077329669E0,-2.389121006E0,9.854787442E0
5.971198625E0,2.302100258E0,-3.678835954E0,-4.817623302E-2,4.340025406E0
5.981224625E0,1.459171058E0,2.153283942E-1,2.409679670E0,2.825261511E0
5.991251625E0,7.818426070E-1,3.046783517E0,3.326606115E0,4.578261232E0
6.001277625E0,-2.731906861E-1,4.615096802E0,2.782343774E0,5.395849194E0
6.011304625E0,-1.835049522E0,4.845105801E0,-3.078898910E-1,5.190111093E0
6.021330625E0,-2.094064950E0,3.907202470E0,-1.927201349E0,4.833781562E0
6.031357625E0,-8.111776493E-1,2.500926055E0,-5.566303353E-1,2.687466771E0
6.041383625E0,1.640241931E-1,1.246582523E0,-4.085542401E-1,1.322039519E0
6.051410625E0,1.273995001E0,4.927992421E-1,-1.155669429E0,1.789269735E0
6.061436625E0,1.986267436E0,-7.638627112E-2,-1.186138101E0,2.314739031E0
6.071463625E0,1.753941478E0,-3.630711615E-1,-8.743002427E-1,1.993121244E0
6.081489625E0,1.705282704E0,-2.412216192E-1,-2.516068590E-1,1.740541002E0
6.091516625E0,1.818666940E0,-3.083236814E-2,-2.959614980E-1,1.842849229E0
6.101542625E0,8.788588782E-1,4.807405293E-1,-9.832748008E-1,1.403685762E0
6.111569625E0,4.220151883E-1,6.795394295E-1,-8.545547801E-1,1.170527457E0
6.121596625E0,4.426884578E-1,7.273187828E-1,1.704503928E-1,8.683426852E-1
6.131622625E0,3.987413697E-1,7.455796373E-1,1.104692234E0,1.391124943E0
6.141649625E0,3.952828878E-1,7.465491056E-1,1.608559670E0,1.816878736E0
6.151675625E0,3.508446336E-1,6.756539547E-1,1.644189094E0,1.811893485E0
6.161702625E0,1.954409905E-1,5.242432290E-1,1.193807309E0,1.318409661E0
6.171728625E0,-1.032018945E-2,5.199999046E-1,4.427931961E-1,6.830609209E-1
6.181755625E0,9.698001847E-2,4.845809805E-1,-1.490901120E-1,5.161896087E-1
6.191781625E0,5.534367688E-1,3.319230437E-1,-3.684682146E-1,7.431244776E-1
6.201808625E0,9.774894194E-1,1.346847653E-1,-2.248027108E-1,1.012008799E0
6.211834625E0,1.198271512E0,-1.533286124E-1,-1.904575548E-1,1.222962943E0
6.221861625E0,1.334665418E0,-6.151276714E-1,-2.970363624E-1,1.499314654E0
6.231887625E0,1.245153902E0,-6.833097142E-1,-6.083870012E-1,1.545139200E0
6.241914625E0,1.073773912E0,-5.276509863E-1,-1.108847411E0,1.631241416E0
6.251940625E0,1.176599245E0,-5.185427785E-1,-1.509276872E0,1.982722642E0
6.261967625E0,1.029280255E0,-6.415062153E-1,-2.044001820E0,2.376739680E0
6.271993625E0,7.431698535E-1,-7.444137025E-1,-2.712276004E0,2.909105415E0
6.282020625E0,5.200789882E-1,-8.526538503E-1,-3.404964652E0,3.548420074E0
6.292046625E0,2.539385824E-1,-9.409649330E-1,-4.133560467E0,4.246907338E0
6.302073625E0,-4.328065172E-2,-9.775310808E-1,-4.638182487E0,4.740271828E0
6.312099625E0,-4.094514222E-1,-1.093412370E0,-4.933009332E0,5.069297994E0
6.322126625E0,-6.651121558E-1,-1.293595891E0,-4.838212518E0,5.052134685E0
6.332153625E0,-7.509068893E-1,-1.576767190E0,-4.393373308E0,4.727767438E0
6.342179625E0,-5.841296808E-1,-1.810680959E0,-4.032947427E0,4.459197009E0
6.352206625E0,-1.606519577E-1,-1.966039140E0,-3.936472462E0,4.403059663E0
6.362232625E0,1.920924363E-1,-2.022155453E0,-4.049626610E0,4.530506358E0
6.372259625E0,3.646532719E-1,-1.784999403E0,-4.295239780E0,4.665648899E0
6.382285625E0,3.380810389E-1,-1.467377479E0,-4.853476090E0,5.081704990E0
6.392312625E0,1.048324198E0,-1.564593871E0,-4.782843187E0,5.140284676E0
6.402338625E0,1.314429228E0,-2.377294282E0,-4.183120882E0,4.987760280E0
6.412365625E0,1.140141856E0,-4.412475577E0,-3.278571239E0,5.614168998E0
6.422391625E0,1.233361676E0,-6.976662658E0,-1.593253999E0,7.261780854E0
6.432418625E0,1.825284234E0,-8.666764090E0,4.412770130E-1,8.867873913E0
6.442444625E0,2.513819166E0,-8.641528092E0,1.846006912E0,9.187112500E0
6.452471625E0,2.672300637E0,-7.159345463E0,2.516851532E0,8.045617427E0
6.462497625E0,1.586073910E0,-4.608787656E0,2.655525268E0,5.550528674E0
6.472524625E0,-3.166553789E-1,-2.236178164E0,2.062859091E0,3.058782607E0
6.482550625E0,-1.619767906E0,-1.298347923E0,7.146630692E-1,2.195472318E0
6.492577625E0,-2.169675734E0,-1.351567526E0,-3.191831303E-1,2.576063943E0
6.502604625E0,-2.223956021E0,-1.126893527E0,5.318732607E-1,2.549266281E0
6.512630625E0,-2.566463403E0,-1.065940982E0,2.080756248E0,3.471672671E0
6.522657625E0,-2.698831501E0,-1.464736876E0,3.148252004E0,4.397799026E0
6.532683625E0,-2.790445676E0,-1.131951368E0,2.998339920E0,4.249463878E0
6.542710625E0,-2.660738645E0,-2.604759157E-1,2.043833420E0,3.365209190E0
6.552736625E0,-2.709836838E0,2.910001355E-1,1.446714588E0,3.085592304E0
6.562763625E0,-3.008467882E0,5.511088461E-1,1.396833453E0,3.362401472E0
6.572789625E0,-2.825606153E0,7.885964334E-1,1.321908402E0,3.217666280E0
6.582816625E0,-2.151722443E0,1.225379934E0,1.437872429E0,2.863379572E0
6.592842625E0,-1.711144684E0,1.688809782E0,2.173821848E0,3.241233721E0
6.602869625E0,-1.552818017E0,1.948600988E0,2.637057714E0,3.627997105E0
6.612895625E0,-1.494750196E0,2.263219782E0,3.169745200E0,4.171777386E0
6.622922625E0,-7.571936694E-1,2.676661783E0,3.327215395E0,4.336844802E0
6.632948625E0,-1.162759763E-1,3.103901458E0,3.069203496E0,4.366661707E0
6.642975625E0,-1.456471252E-1,3.456086274E0,2.950685112E0,4.546678793E0
6.653001625E0,5.686523934E-1,3.342060891E0,3.254391832E0,4.699340671E0
6.663028625E0,1.307210402E0,2.682965081E0,3.287144718E0,4.439867235E0
6.673055125E0,1.051355979E0,2.051479824E0,2.663281307E0,3.522355204E0
6.683082125E0,1.054645915E0,1.392944178E0,2.646451266E0,3.171163161E0
6.693108125E0,1.417466377E0,5.699561763E-1,2.557352563E0,2.978944965E0
6.703135125E0,1.571701600E0,1.444320738E-2,2.661373945E0,3.090851954E0
6.713162125E0,1.369497136E0,-2.634404540E-2,2.397843736E0,2.761497963E0
6.723188125E0,6.618036550E-1,3.409353572E-1,2.454952030E0,2.565348020E0
6.733215125E0,7.011688650E-2,5.805671185E-1,2.776968721E0,2.837874175E0
6.743241125E0,3.363511401E-1,7.109074026E-1,1.975232717E0,2.126044616E0
6.753268125E0,3.807522646E-1,1.057589988E0,1.376350365E0,1.777022565E0
6.763294125E0,2.511805969E-1,1.554630800E0,1.301096699E0,2.042748452E0
6.773321125E0,-3.320481741E-1,1.930119694E0,4.130154464E-1,2.001549345E0
6.783347125E0,-2.927753502E-1,2.248512281E0,-5.981263071E-2,2.268281824E0
6.793374125E0,-1.102077359E-1,2.547476324E0,-3.222567192E-1,2.570142167E0
6.803400125E0,-2.662822008E-3,2.699841900E0,-5.866140166E-1,2.762837197E0
6.813427125E0,1.096978587E-1,2.740874151E0,-9.149386838E-1,2.891632329E0
6.823453125E0,3.391580960E-1,2.623197182E0,-1.164791086E0,2.890143585E0
6.833480125E0,5.424725085E-1,2.371680955E0,-1.303961543E0,2.760337421E0
6.843506125E0,5.671661773E-1,2.050213902E0,-1.274689212E0,2.479896591E0
6.853533125E0,5.548861474E-1,1.767550142E0,-1.168322804E0,2.190230653E0
6.863559125E0,6.243303117E-1,1.522780432E0,-9.480076119E-1,1.899306983E0
6.873586125E0,6.174402452E-1,1.320760885E0,-6.840143037E-1,1.610440108E0
6.883613125E0,6.588125119E-1,9.652606988E-1,-5.684443787E-1,1.299573451E0
6.893639125E0,4.689589745E-1,4.910240275E-1,-5.954868740E-1,9.031233207E-1
6.903666125E0,-4.596057683E-2,1.947894645E-1,-6.586604843E-1,6.883959207E-1
6.913692125E0,-8.080445650E-1,5.325176239E-2,-7.988559580E-1,1.137515983E0
6.923719125E0,-1.529106535E0,-2.412034929E-2,-1.111123879E0,1.890329299E0
6.933745125E0,-2.127052163E0,-2.997282743E-2,-1.537135054E0,2.624506325E0
6.943772125E0,-2.469979374E0,1.820530593E-2,-2.165971815E0,3.285203714E0
6.953798125E0,-2.647833256E0,8.250070453E-2,-2.802863115E0,3.856665523E0
6.963825125E0,-2.492231830E0,1.884066439E-1,-3.313560392E0,4.150469736E0
6.973851125E0,-2.124417115E0,4.847599053E-1,-3.431527383E0,4.064913336E0
6.983878125E0,-1.734569799E0,1.074824656E0,-3.203109120E0,3.797879469E0
6.993904125E0,-1.467329240E0,1.853614724E0,-2.683616754E0,3.576414618E0
7.003931125E0,-1.333446127E0,2.582033953E0,-2.219273863E0,3.656522171E0
7.013957125E0,-1.112688301E0,3.233505578E0,-1.835183716E0,3.880919073E0
7.023984125E0,-8.756366238E-1,3.615467339E0,-1.557189542E0,4.032763674E0
7.034010125E0,-1.372637383E0,2.963588163E0,-2.033330652E0,3.847261588E0
7.044037125E0,-2.757667647E0,4.882372445E-1,-3.648055334E0,4.599066663E0
7.054063125E0,-3.304486975E0,-4.830042788E0,-4.953515518E-1,5.873186585E0
7.064090125E0,-2.490868844E0,-1.241533686E1,7.144825072E0,1.453937902E1
7.074117125E0,-2.948245946E0,-1.859739800E1,8.465110579E0,2.064493796E1
7.084143125E0,3.426000595E-1,-1.545499789E1,3.792637389E0,1.591723697E1
7.094170125E0,2.648003702E0,-5.992239465E0,4.076310378E0,7.715903298E0
7.104196125E0,1.621561247E0,2.137709298E0,6.956951694E0,7.456436066E0
7.114223125E0,1.258571508E0,7.054852796E0,7.665497407E0,1.049355996E1
7.124249125E0,1.702735949E0,9.658906193E0,6.541395341E0,1.178913193E1
7.134276125E0,1.999132772E0,1.022445883E1,3.678865190E0,1.104853562E1
7.144302125E0,1.591624818E0,8.960165092E0,2.335355127E0,9.395302636E0
7.154329125E0,1.313853862E0,5.123294687E0,3.864493529E0,6.550471026E0
7.164355125E0,3.166498241E-1,-1.186819301E0,5.583572885E0,5.717087836E0
7.174382125E0,1.404277398E0,-8.129278087E0,5.429342047E0,9.875976523E0
7.184408125E0,4.209098307E0,-1.020886431E1,3.288045190E0,1.152166048E1
7.194435125E0,5.899739437E0,-8.553679524E0,-2.708664179E-2,1.039101018E1
7.204461125E0,4.779081965E0,-4.923678930E0,-1.086589400E0,6.947151586E0
7.214488125E0,1.746216429E0,-1.499784502E0,7.729668260E-1,2.428189261E0
7.224514125E0,2.386698943E-1,1.031659926E0,2.378998160E0,2.604019541E0
7.234541125E0,-4.934840973E-1,3.068277882E0,2.597043171E0,4.049998635E0
7.244568125E0,-1.237961242E0,3.877761154E0,1.272195082E0,4.264746174E0
7.254594125E0,-1.617680596E0,3.582999505E0,-5.432541351E-1,3.968614496E0
7.264621125E0,-1.392316187E0,2.738274479E0,-8.871746421E-1,3.197463109E0
7.274647125E0,-9.340633182E-1,1.727202600E0,6.865102608E-2,1.964794154E0
7.284674125E0,-9.579100178E-1,8.188651299E-1,3.338514555E-1,1.303682668E0
7.294700125E0,-7.230723886E-1,2.445024920E-1,-2.646063523E-1,8.078562183E-1
7.304727125E0,3.500641765E-1,-7.364100337E-2,-6.973914906E-1,7.837874815E-1
7.314753125E0,1.354394655E0,-3.118144691E-1,-1.228337456E0,1.854838551E0
7.324780125E0,1.902573022E0,-1.164671803E-1,-1.429928402E0,2.382864651E0
7.334806125E0,2.090361908E0,2.812826478E-1,-1.189554629E0,2.421522878E0
7.344833125E0,2.546809157E0,5.212734282E-1,-3.832317764E-1,2.627704219E0
7.354859125E0,2.692290806E0,6.014796853E-1,6.886809665E-1,2.843323595E0
7.364886125E0,2.476159296E0,6.138009381E-1,1.564586270E0,2.992665476E0
7.374912125E0,2.230198655E0,8.141902810E-1,1.892524436E0,3.036172030E0
7.384939125E0,2.018342776E0,9.287927842E-1,1.729820398E0,2.815784475E0
7.394965125E0,1.333938463E0,7.748209780E-1,1.100910182E0,1.895189331E0
7.404992125E0,6.162386423E-1,6.048646384E-1,4.192184651E-1,9.598726044E-1
7.415019125E0,8.751673847E-3,4.088648003E-1,-4.318753481E-3,4.089812568E-1
7.425045125E0,-7.368227009E-1,8.638033211E-2,-1.504061741E-1,7.569618693E-1
7.435072125E0,-1.183329171E0,-4.330313426E-1,-4.406585238E-1,1.334902246E0
7.445098125E0,-1.588747988E0,-8.902923775E-1,-9.143940888E-1,2.037856039E0
7.455125125E0,-2.055393219E0,-9.481780583E-1,-1.642365932E0,2.796613805E0
7.465151125E0,-1.896392369E0,-8.298356760E-1,-2.423598967E0,3.187281478E0
7.475178125E0,-1.192240401E0,-6.387919378E-1,-2.957470806E0,3.252095614E0
7.485204125E0,-8.254543573E-2,-4.314426541E-1,-2.933836361E0,2.966538775E0
7.495231125E0,1.025818923E0,-2.559630346E-1,-2.967216361E0,3.149951502E0
7.505257125E0,1.981084318E0,-2.687216592E-1,-2.960161110E0,3.572038662E0
7.515284125E0,2.464150577E0,-4.261129171E-1,-2.784868017E0,3.742873249E0
7.525310125E0,2.492169265E0,-6.458056730E-1,-2.463282266E0,3.563107090E0
7.535337125E0,2.354437808E0,-9.894763577E-1,-2.127791397E0,3.324144564E0
7.545363125E0,1.981094843E0,-1.273486732E0,-2.367359862E0,3.339296026E0
7.555390125E0,1.510484907E0,-1.487222929E0,-3.137974938E0,3.786856666E0
7.565416125E0,1.316664619E0,-1.358476596E0,-3.945227498E0,4.375372486E0
7.575443125E0,1.342079688E0,-1.009915300E0,-4.768074582E0,5.055258848E0
7.585470125E0,1.454475013E0,-6.805685395E-1,-5.371757498E0,5.606643355E0
7.595496125E0,1.625695813E0,-4.740665174E-1,-5.458530178E0,5.715170832E0
7.605523125E0,1.641250284E0,-6.786418819E-1,-4.808981118E0,5.126456543E0
7.615549125E0,1.296131828E0,-1.107952057E0,-4.534284773E0,4.844301176E0
7.625576125E0,9.724587674E-1,-1.110758135E0,-4.998738468E0,5.212182457E0
7.635602125E0,8.210930653E-1,-7.001380008E-1,-5.565631873E0,5.669272016E0
7.645629125E0,1.250700425E0,-9.279437685E-1,-5.546757646E0,5.761236983E0
7.655655125E0,2.140235003E0,-2.498688326E0,-4.797935727E0,5.817579949E0
7.665682125E0,2.211454090E0,-5.773694517E0,-2.476575910E0,6.660293222E0
7.675707750E0,1.836893442E0,-8.489132110E0,4.833016098E-1,8.699029943E0
7.685734750E0,1.264680679E0,-9.428311889E0,2.423587273E0,9.816631681E0
7.695760750E0,3.273946676E-1,-8.063312724E0,3.277528095E0,8.710131443E0
7.705787750E0,-1.122655611E0,-5.171121987E0,3.177590994E0,6.172353097E0
7.715813750E0,-4.169278768E0,-3.172126186E0,1.321625689E0,5.402958860E0
7.725840750E0,-5.853173380E0,-2.111445360E0,-2.783508082E-2,6.222428378E0
7.735866750E0,-4.991844601E0,-1.812566686E0,4.924139472E-1,5.333514977E0
7.745893750E0,-3.262511276E0,-2.039642136E0,1.418278409E0,4.100686957E0
7.755919750E0,-1.869289501E0,-2.566118417E0,1.878311609E0,3.688802173E0
7.765946750E0,-2.798350819E0,-2.634695731E0,1.368786407E0,4.079946707E0
7.775973750E0,-4.017034230E0,-2.070746984E0,1.571830970E0,4.784893904E0
7.785999750E0,-3.645313282E0,-1.159505203E0,2.371800384E0,4.500910830E0
7.796026750E0,-2.840334705E0,1.146837795E-1,2.943086071E0,4.091748920E0
7.806052750E0,-2.182081333E0,8.874482918E-1,2.550824440E0,3.472138928E0
7.816079750E0,-1.738496935E0,1.192830824E0,1.961947843E0,2.880009775E0
7.826105750E0,-1.095075611E0,1.206035006E0,2.235978774E0,2.766462020E0
7.836132750E0,-1.313124568E0,1.079416475E0,2.675985260E0,3.170226044E0
7.846158750E0,-1.632713349E0,1.301042905E0,2.978575454E0,3.637358555E0
7.856185750E0,-1.595858202E0,1.742112415E0,3.219303861E0,3.993198770E0
7.866211750E0,-1.246217511E0,2.232317247E0,4.024745245E0,4.768109968E0
7.876238750E0,-7.443198547E-1,2.646971961E0,4.845373311E0,5.571186151E0
7.886264750E0,-1.322032070E-1,2.933049325E0,4.977602538E0,5.778994987E0
7.896291750E0,6.032130924E-1,2.982975776E0,5.121303710E0,5.957328445E0
7.906317750E0,1.545365010E0,2.729006642E0,4.643008778E0,5.602960002E0
7.916344750E0,1.868373827E0,2.504033850E0,3.874794277E0,4.977452860E0
7.926370750E0,2.179667456E0,2.442385486E0,3.137030028E0,4.533999832E0
7.936397750E0,2.673180351E0,2.189218006E0,2.706049596E0,4.388766692E0
7.946424750E0,1.905553202E0,1.318383992E0,2.447305626E0,3.370248386E0
7.956450750E0,1.465330954E0,8.697031617E-1,1.732228281E0,2.429854566E0
7.966477750E0,9.864434069E-1,8.443151361E-1,1.274243946E0,1.819240577E0
7.976503750E0,-5.564385831E-2,1.143119550E0,1.180581199E0,1.644259868E0
7.986530750E0,-1.251742106E0,1.558781739E0,1.140388608E0,2.301552734E0
7.996556750E0,-1.816684003E0,1.899824100E0,7.929444230E-1,2.745620738E0
8.006583750E0,-1.670075595E0,2.278148893E0,4.374766883E-1,2.858408775E0
8.016609750E0,-1.200256203E0,2.611232024E0,1.351130739E-1,2.877047650E0
8.026636750E0,-9.546161351E-1,2.669028243E0,-3.090224236E-2,2.834776653E0
8.036662750E0,-6.622155914E-1,2.473932969E0,-1.933162585E-1,2.568315596E0
8.046689750E0,-2.940509203E-1,2.163486748E0,-5.520593110E-1,2.252090215E0
8.056715750E0,1.409111729E-1,1.726502688E0,-1.028525526E0,2.014579918E0
8.066742750E0,4.087259290E-1,1.282849878E0,-1.335823021E0,1.896624327E0
8.076768750E0,3.065882277E-1,9.268520933E-1,-1.197526138E0,1.545030742E0
8.086795750E0,1.536855850E-1,7.748145461E-1,-9.582115880E-1,1.241823775E0
8.096821750E0,1.506710529E-1,8.676390946E-1,-6.944050983E-1,1.121471268E0
8.106848750E0,1.196679461E-1,1.175304379E0,-4.066574764E-1,1.249412304E0
8.116875750E0,1.294602782E-2,1.624588643E0,-3.433546427E-1,1.660526503E0
8.126901750E0,-4.100184560E-2,1.962513853E0,-5.145155087E-1,2.029253061E0
8.136928750E0,-1.583098555E-1,2.017768287E0,-8.923228231E-1,2.211942787E0
8.146954750E0,-1.979583630E-1,1.755791391E0,-1.385616155E0,2.245422689E0
8.156981750E0,-3.596648660E-1,1.358381286E0,-1.912297088E0,2.373065252E0
8.167007750E0,-6.275799018E-1,9.691140139E-1,-2.456779285E0,2.714553915E0
8.177034750E0,-1.015275443E0,6.261151743E-1,-3.009962138E0,3.237696173E0
8.187060750E0,-1.356920944E0,4.450777763E-1,-3.580277626E0,3.854570865E0
8.197087750E0,-1.717545923E0,4.120164496E-1,-4.156723627E0,4.516422573E0
8.207113750E0,-1.977165222E0,6.274793297E-1,-4.690071848E0,5.128322002E0
8.217140750E0,-1.866573324E0,1.192218035E0,-4.902656436E0,5.379732330E0
8.227166750E0,-1.885147589E0,1.912010867E0,-4.606251719E0,5.331709096E0
8.237193750E0,-1.986554973E0,2.562691948E0,-3.343227410E0,4.657355494E0
8.247219750E0,-1.558438215E0,3.265707364E0,-1.526035285E0,3.927131007E0
8.257246750E0,-1.366875244E0,3.503714184E0,-2.294643304E-1,3.767892633E0
8.267272750E0,-2.344539057E0,2.369444395E0,-1.500911553E0,3.655662131E0
8.277299750E0,-4.938977001E0,-1.473357427E0,-6.706202037E0,8.457979764E0
8.287326750E0,-6.033143662E0,-8.800891031E0,-5.412626027E0,1.196457379E1
8.297352750E0,-3.083149982E0,-1.722050735E1,7.267617770E0,1.894386326E1
8.307379750E0,-5.262406379E-2,-2.079998215E1,1.337284415E1,2.472802029E1
8.317405750E0,3.160033559E0,-1.175345310E1,9.308201308E0,1.532227410E1
8.327432750E0,2.075223613E0,3.767752808E-1,9.510083445E0,9.741160085E0
8.337458750E0,-2.520442307E-1,6.846061004E0,1.041923309E1,1.246966302E1
8.347485750E0,-5.181191477E-1,1.080746248E1,4.987036436E0,1.191386693E1
8.357511750E0,1.956452045E-1,1.253353365E1,-9.946847650E-1,1.257446383E1
8.367538750E0,1.877457623E0,1.056273312E1,6.234815884E-1,1.074639044E1
8.377564750E0,4.129704813E0,5.233007748E0,4.778771478E0,8.202163664E0
8.387591750E0,2.781310571E0,-1.038202960E0,7.977689606E0,8.512172774E0
8.397617750E0,1.422299539E0,-8.607562786E0,8.700469780E0,1.232117070E1
8.407644750E0,3.550380812E0,-1.159377733E1,4.824532957E0,1.304978908E1
8.417670750E0,5.726350197E0,-1.214112584E1,-1.468535228E0,1.350387422E1
8.427697750E0,5.507105337E0,-9.748936357E0,-3.930395451E0,1.186667509E1
8.437723750E0,3.439332832E0,-4.975475906E0,-1.179683652E0,6.162469013E0
8.447750750E0,2.100552435E0,-9.213837773E-1,2.932145053E0,3.722733299E0
8.457777750E0,1.530153771E0,2.388488776E0,4.745404927E0,5.528572792E0
8.467803750E0,8.566581698E-1,4.627178904E0,4.436298888E0,6.467255651E0
8.477830750E0,-8.969336450E-3,5.349593627E0,3.142271472E0,6.204200386E0
8.487856750E0,-6.403735366E-1,4.781270578E0,7.202868482E-1,4.877441927E0
8.497883750E0,-9.998854248E-1,3.893855031E0,-9.467729723E-1,4.130164273E0
8.507909750E0,-6.155005775E-1,2.763887038E0,-1.707258697E-1,2.836734009E0
8.517936750E0,-2.735291668E-1,1.738450304E0,9.867726052E-1,2.017609436E0
8.527962750E0,-2.990896122E-1,1.041072773E0,1.886311769E-1,1.099485715E0
8.537989750E0,2.632076617E-1,5.191877264E-1,-1.302279006E0,1.426451814E0
8.548015750E0,1.053073818E0,1.177863121E-1,-1.584427042E0,1.906107849E0
8.558042750E0,1.372379374E0,-1.726501518E-1,-1.159039764E0,1.804606993E0
8.568068750E0,1.361456922E0,-2.686450607E-1,-1.167201893E0,1.813310612E0
8.578095750E0,1.238756610E0,5.132744372E-2,-1.577213917E0,2.006179499E0
8.588121750E0,1.032732524E0,8.257964194E-2,-1.474052660E0,1.801717822E0
8.598148750E0,8.537469873E-1,-7.358370066E-2,-1.041776193E0,1.348924059E0
8.608174750E0,7.855397283E-1,-1.706948429E-1,-2.574798024E-1,8.441002564E-1
8.618201750E0,6.319173664E-1,-2.171158880E-1,6.430855483E-1,9.273714947E-1
8.628228750E0,3.747982641E-1,-5.842187047E-2,1.289577100E0,1.344208299E0
8.638254750E0,1.294727766E-1,3.747112137E-1,1.328630653E0,1.386517618E0
8.648281750E0,-4.820495747E-1,7.282853276E-1,6.996420839E-1,1.119048862E0
8.658307750E0,-1.014385131E0,6.761112070E-1,4.342617430E-2,1.219831706E0
8.668334750E0,-1.025257590E0,9.034240544E-2,-1.521398735E-1,1.040414060E0
8.678361417E0,-7.429681246E-1,-5.945536584E-1,-2.637299643E-1,9.874457863E-1
8.688388417E0,-4.416430487E-1,-1.164739046E0,-7.797596826E-1,1.469588646E0
8.698414417E0,-8.273810148E-3,-1.573459420E0,-1.416325732E0,2.117031313E0
8.708441417E0,4.572543836E-1,-1.662285057E0,-2.112676198E0,2.726843212E0
8.718467417E0,8.451919261E-1,-1.557511139E0,-2.866500995E0,3.370017551E0
8.728494417E0,1.317486445E0,-1.156755842E0,-3.152192443E0,3.606961576E0
8.738520417E0,1.591589004E0,-6.395824814E-1,-3.287899302E0,3.708436750E0
8.748547417E0,1.654446572E0,-2.505853504E-1,-3.610579652E0,3.979481361E0
8.758573417E0,1.697799291E0,-7.069926918E-2,-3.751166012E0,4.118102387E0
8.768600417E0,1.474927696E0,-2.034579617E-1,-3.692741802E0,3.981601295E0
8.778626417E0,1.057025659E0,-7.077621853E-1,-3.609931780E0,3.827510681E0
8.788653417E0,5.164959607E-1,-1.051324697E0,-3.980770968E0,4.149528791E0
8.798680417E0,1.541339202E-1,-1.132896863E0,-4.734168332E0,4.870273336E0
8.808706417E0,2.531880923E-2,-9.994248104E-1,-5.178667234E0,5.274285290E0
8.818733417E0,1.525696439E-1,-9.254984629E-1,-4.959560954E0,5.047481526E0
8.828759417E0,4.086048916E-1,-8.831295383E-1,-4.534637361E0,4.637867153E0
8.838786417E0,5.323350446E-1,-8.039640856E-1,-4.511160790E0,4.613058695E0
8.848812417E0,1.205577754E0,-5.914552188E-1,-4.343918143E0,4.546741892E0
8.858839417E0,1.486403880E0,-4.204346859E-1,-4.518699020E0,4.775437431E0
8.868865417E0,1.624467605E0,-8.708299202E-1,-4.498941863E0,4.861863597E0
8.878892417E0,1.945326986E0,-3.174455717E0,-3.461178614E0,5.083426362E0
8.888918417E0,2.362425543E0,-6.323197133E0,-1.209766114E0,6.857653424E0
8.898945417E0,2.812006114E0,-8.027444733E0,1.076076399E0,8.573516650E0
8.908971417E0,2.660015345E0,-7.642479258E0,2.558212981E0,8.486909007E0
8.918998417E0,1.641864095E0,-6.000156010E0,3.120729745E0,6.959636771E0
8.929024417E0,-8.283308950E-1,-3.831109144E0,1.852534159E0,4.335367592E0
8.939051417E0,-4.210113091E0,-2.196246943E0,-5.016566044E-1,4.774956777E0
8.949078417E0,-5.544131661E0,-1.569912499E0,-1.590573050E0,5.977620242E0
8.959104417E0,-4.418477159E0,-1.948165956E0,-9.820655966E-1,4.927752412E0
8.969131417E0,-2.848111209E0,-2.709086348E0,-6.164953351E-2,3.931244964E0
8.979157417E0,-2.253320007E0,-3.119784835E0,4.949107448E-1,3.880134678E0
8.989184417E0,-2.210179250E0,-3.374253906E0,9.253137640E-1,4.138440202E0
8.999210417E0,-2.767931849E0,-3.088456038E0,1.405507944E0,4.378979333E0
9.009237417E0,-2.623990649E0,-1.985703911E0,2.122382576E0,3.915718931E0
9.019263417E0,-2.045856557E0,-6.469067037E-1,2.540221099E0,3.325167750E0
9.029290417E0,-1.378961585E0,1.621345192E-1,2.199095561E0,2.600739114E0
9.039316417E0,-1.163192018E0,5.692276132E-1,2.272579713E0,2.615655615E0
9.049343417E0,-3.661906511E-1,4.215772319E-1,2.486077636E0,2.548019813E0
9.059369417E0,-7.168920279E-1,1.791469932E-1,2.638647864E0,2.740162473E0
9.069396417E0,-1.338676462E0,5.280579525E-1,3.574803755E0,3.853585572E0
9.079422417E0,-1.207742539E0,1.073000910E0,4.592408728E0,4.868284187E0
9.089449417E0,-7.893542325E-1,1.701540924E0,4.245345781E0,4.641258711E0
9.099475417E0,-2.857984525E-1,2.024400784E0,3.545432021E0,4.092672416E0
9.109502417E0,2.555360417E-1,2.099232280E0,3.397443379E0,4.001836622E0
9.119529417E0,7.672361161E-1,2.177965039E0,4.181683344E0,4.776887957E0
9.129555417E0,1.365653468E0,2.665616392E0,5.234194733E0,6.030531871E0
9.139582417E0,2.120362802E0,2.953132172E0,4.991099081E0,6.174787290E0
9.149608417E0,1.813967386E0,2.471322772E0,3.431062237E0,4.601097912E0
9.159635417E0,1.757375402E0,1.947810445E0,2.365146106E0,3.532173543E0
9.169661417E0,1.336833127E0,1.331389369E0,2.043150465E0,2.781040145E0
9.179688417E0,9.506979159E-1,9.671014023E-1,1.807966389E0,2.260056219E0
9.189714417E0,8.105957052E-1,1.054113818E0,1.901428284E0,2.320269566E0
9.199741417E0,3.341183808E-1,1.451367803E0,2.022140835E0,2.511405413E0
9.209767417E0,-6.043012592E-1,2.036121528E0,2.132671922E0,3.009860531E0
9.219794417E0,-1.287703359E0,2.586200094E0,1.821380779E0,3.415265555E0
9.229820417E0,-1.357470582E0,3.002397888E0,1.285834882E0,3.537017218E0
9.239847417E0,-1.160046070E0,3.266275129E0,1.228988836E0,3.677590741E0
9.249873417E0,-8.343187362E-1,3.232976405E0,1.249224295E0,3.564938362E0
9.259900417E0,-4.724795830E-1,2.917693368E0,1.290460614E0,3.225129476E0
9.269926417E0,2.473079860E-3,2.545813376E0,1.085206388E0,2.767461791E0
9.279953417E0,2.890383947E-1,2.114121630E0,5.188143817E-1,2.195955788E0
9.289980417E0,5.284193105E-1,1.678270175E0,-3.824207675E-1,1.800573073E0
9.300006417E0,6.096853754E-1,1.323078722E0,-1.174663232E0,1.871386457E0
9.310033417E0,7.179606065E-1,1.164233261E0,-1.717124923E0,2.195318775E0
9.320059417E0,7.153697053E-1,1.148395493E0,-2.197046550E0,2.580228588E0
9.330086417E0,5.796078828E-1,1.214818693E0,-2.448950155E0,2.794474301E0
9.340112417E0,2.957349184E-1,1.424447222E0,-2.511425023E0,2.902372250E0
9.350139417E0,4.883623749E-2,1.572952466E0,-2.639401278E0,3.072947046E0
9.360165417E0,-3.119027621E-1,1.396013381E0,-3.050721617E0,3.369427114E0
9.370192417E0,-6.044743368E-1,8.733699507E-1,-3.744212210E0,3.891951872E0
9.380218417E0,-8.218647516E-1,2.214270401E-1,-4.199424089E0,4.284816715E0
9.390245417E0,-1.248718219E0,-3.549376845E-1,-4.459498008E0,4.644609826E0
9.400271417E0,-1.781237304E0,-7.061144400E-1,-4.367755779E0,4.769559150E0
9.410298417E0,-2.248715179E0,-6.590572178E-1,-4.233645795E0,4.838887588E0
9.420324417E0,-2.522599052E0,-1.024519891E-1,-4.361054285E0,5.039126598E0
9.430351417E0,-2.279800439E0,1.003024356E0,-3.522063039E0,4.313754276E0
9.440378417E0,-1.468421207E0,2.443104694E0,-1.899441108E0,3.425331795E0
9.450404417E0,-4.449310112E-1,3.866767219E0,-1.703603822E0,4.248778450E0
9.460431417E0,-2.764312130E-1,4.832120889E0,-3.138153571E0,5.768345892E0
9.470457417E0,-5.037086847E-1,4.460414559E0,-4.250163595E0,6.181659248E0
9.480484417E0,-1.787517506E0,2.020208915E0,-2.572721970E0,3.727648217E0
9.490510417E0,-2.626185694E0,-2.059715627E0,2.989127924E0,4.480420238E0
9.500537417E0,-1.485286331E0,-7.830390642E0,1.100009784E1,1.358393336E1
9.510563417E0,-2.108674949E0,-1.434747209E1,1.167717851E1,1.861861873E1
9.520590417E0,-1.822426261E0,-1.758016140E1,5.056159880E0,1.838336381E1
9.530616417E0,4.196912125E-1,-1.151680927E1,2.585577658E0,1.181093765E1
9.540643417E0,3.277767831E-1,-1.769795473E0,7.736252224E0,7.942871780E0
9.550669417E0,5.938908765E-1,4.657651083E0,8.471740737E0,9.685907862E0
9.560696417E0,2.006368263E0,8.457611525E0,6.291939088E0,1.073057332E1
9.570722417E0,2.521343948E0,9.055130306E0,4.123937119E0,1.026447356E1
9.580749417E0,2.394946587E0,5.795950774E0,4.171022408E0,7.531682578E0
9.590776417E0,8.310285079E-1,4.061908686E-1,4.998146145E0,5.083017243E0
9.600802417E0,-1.747715217E-1,-5.385699599E0,5.435507351E0,7.653825541E0
9.610829417E0,2.128385036E0,-8.326996422E0,3.394162798E0,9.240629490E0
9.620855417E0,4.063063511E0,-8.499054835E0,-1.564830391E-1,9.421619029E0
9.630882417E0,3.889315252E0,-6.759049757E0,-1.663487099E0,7.973626282E0
9.640908417E0,2.355937180E0,-3.168237203E0,9.319175363E-2,3.949284957E0
9.650935417E0,8.046720372E-1,-3.402787149E-2,2.328668983E0,2.464011813E0
9.660961417E0,2.541404575E-1,2.225941443E0,3.347085403E0,4.027701997E0
9.670987417E0,1.237899408E-1,3.579329792E0,2.612897311E0,4.433301036E0
9.681013417E0,-1.203563096E-1,3.830109855E0,1.213520538E0,4.019559583E0
9.691040417E0,-4.735917234E-1,3.603986916E0,4.399562001E-1,3.661498637E0
9.701066417E0,-3.235460302E-1,3.226049793E0,9.163943481E-1,3.369251832E0
9.711093417E0,2.879487661E-1,2.692446342E0,1.525394722E0,3.107894923E0
9.721119417E0,5.426835930E-1,2.160392987E0,8.290778768E-1,2.376798995E0
9.731146417E0,9.120054281E-1,1.626450396E0,-3.959781218E-1,1.906277384E0
9.741172417E0,1.207430883E0,1.113818568E0,-7.884794891E-1,1.822136395E0
9.751199417E0,1.211003458E0,5.555351883E-1,-5.651556122E-1,1.447255882E0
9.761226417E0,1.298777986E0,-5.028605461E-4,-5.712870026E-1,1.418870448E0
9.771252417E0,1.564572383E0,-3.652077341E-1,-8.964518344E-1,1.839806871E0
9.781279417E0,1.620016851E0,-3.718782377E-1,-1.136261351E0,2.013414483E0
9.791305417E0,1.370254058E0,-2.624692315E-1,-9.606484151E-1,1.693910168E0
9.801332417E0,9.503804851E-1,-1.868091846E-1,-5.581448007E-1,1.117875823E0
9.811358417E0,6.774924655E-1,-8.376487255E-2,-1.257701186E-1,6.941402722E-1
9.821385417E0,4.741339065E-1,-4.623978138E-3,-1.820475776E-2,4.745058015E-1
9.831411417E0,4.014703383E-1,-8.152772784E-2,-9.960384686E-2,4.215994892E-1
9.841438417E0,4.371957296E-1,-1.470182973E-1,-1.208871271E-1,4.768313992E-1
9.851464417E0,3.992582636E-1,-2.835987300E-1,-2.453580127E-1,5.477553788E-1
9.861491417E0,1.739949384E-1,-5.203951764E-1,-3.402197311E-1,6.456274805E-1
9.871517417E0,1.111475296E-2,-6.473937768E-1,-4.050173324E-1,7.637285378E-1
9.881544417E0,-7.247748055E-2,-6.342778873E-1,-4.404884429E-1,7.756232925E-1
9.891570417E0,-1.068278991E-1,-7.163266021E-1,-5.567059471E-1,9.134864599E-1
9.901597417E0,-8.340987347E-2,-9.736678255E-1,-9.282934320E-1,1.347855681E0
9.911624417E0,-1.665301636E-2,-1.144690697E0,-1.490845864E0,1.879684948E0
9.921650417E0,-4.202459671E-2,-1.158269686E0,-2.374710397E0,2.642461769E0
9.931677417E0,3.151768374E-1,-9.065394509E-1,-3.175329291E0,3.317207609E0
9.941703417E0,6.343612833E-1,-4.183232564E-1,-3.460541852E0,3.542987228E0
9.951730417E0,9.095900895E-1,8.005949199E-2,-3.785017297E0,3.893599825E0
9.961756417E0,1.119445271E0,3.863097507E-1,-4.116958467E0,4.283893084E0
9.971783417E0,9.715225551E-1,5.326076710E-1,-4.083572620E0,4.231204598E0
9.981809417E0,4.569657505E-1,2.024756294E-1,-4.028074358E0,4.058965029E0
9.991836417E0,1.829228327E-3,-5.240999722E-1,-3.971847532E0,4.006277192E0
1.000186242E1,-3.279700336E-1,-1.064906609E0,-3.931807553E0,4.086649124E0
1.001188942E1,-2.925717209E-1,-1.193407359E0,-3.762802556E0,3.958345918E0
1.002191542E1,9.468747139E-2,-9.743297303E-1,-3.855942854E0,3.978263369E0
1.003194242E1,4.478397817E-1,-6.311502117E-1,-4.216526025E0,4.286957287E0
1.004196842E1,7.077418663E-1,-2.231046063E-1,-4.145344945E0,4.211241970E0
1.005199542E1,7.659906591E-1,-7.205523849E-3,-3.963228444E0,4.036579407E0
1.006202242E1,8.946503804E-1,-2.362099707E-2,-3.744079771E0,3.849557194E0
1.007204842E1,6.743226168E-1,-3.956413221E-1,-3.718835002E0,3.800128527E0
1.008207542E1,4.668481296E-1,-1.097558046E0,-3.641069373E0,3.831444508E0
1.009210142E1,8.219637157E-1,-2.813984227E0,-2.491914911E0,3.847566959E0
1.010212842E1,1.276303189E0,-5.749674155E0,-3.472917192E-1,5.899857139E0
1.011215442E1,1.448048484E0,-8.170987446E0,1.283732661E0,8.397014338E0
1.012218142E1,8.457132053E-1,-8.483011830E0,2.455327129E0,8.871603679E0
1.013220742E1,-6.187337954E-1,-6.587867256E0,3.069276001E0,7.294057970E0
1.014223442E1,-3.943209624E0,-4.268117178E0,1.577473533E0,6.021141846E0
1.015226042E1,-6.599374577E0,-2.526069667E0,-8.526509267E-1,7.117568853E0
1.016228742E1,-6.445301614E0,-1.542207806E0,-1.437213448E0,6.781290460E0
1.017231342E1,-3.982229848E0,-1.444920078E0,-2.947511244E-1,4.246507603E0
1.018234042E1,-1.857090602E0,-1.821738628E0,5.218277442E-1,2.653266162E0
1.019236642E1,-9.264499511E-1,-2.349643384E0,5.847461966E-1,2.592501043E0
1.020239342E1,-1.697890361E0,-2.981586478E0,3.081085769E-1,3.444941291E0
1.021241942E1,-2.050937641E0,-3.285390846E0,1.047017711E0,4.012029948E0
1.022244642E1,-1.786319996E0,-2.732973978E0,1.968682666E0,3.812584075E0
1.023247342E1,-1.227135707E0,-1.586113964E0,2.138194763E0,2.931466595E0
1.024249942E1,-3.732537952E-1,-3.940789461E-1,1.881945069E0,1.958656135E0
1.025252642E1,-2.171655893E-2,4.869192821E-1,2.206890045E0,2.260072049E0
1.026255242E1,-3.807195202E-2,5.596633226E-1,1.842342754E0,1.925850288E0
1.027257942E1,-5.373219886E-1,5.553831607E-1,1.717762270E0,1.883579728E0
1.028260542E1,-1.192156201E0,7.088936216E-1,2.610173386E0,2.955803052E0
1.029263242E1,-1.396517704E0,1.152570405E0,3.522417965E0,3.960569221E0
1.030265842E1,-1.084445665E0,1.626077344E0,4.272387984E0,4.698238927E0
1.031268542E1,-7.237557819E-1,1.880690841E0,4.990845312E0,5.382318961E0
1.032271142E1,-1.951400051E-1,2.229269679E0,5.310772208E0,5.762987452E0
1.033273842E1,7.028699662E-1,2.220909914E0,4.610319042E0,5.165414670E0
1.034276442E1,1.800320277E0,2.071639270E0,3.398121071E0,4.368073852E0
1.035279142E1,2.103687566E0,1.970157334E0,2.114060819E0,3.574391479E0
1.036281742E1,3.049630819E0,1.541668108E0,2.198221256E0,4.063147225E0
1.037284442E1,3.918724116E0,1.120893114E0,2.621636560E0,4.846212781E0
1.038287142E1,3.608986285E0,7.403697681E-1,2.699968200E0,4.567576784E0
1.039289742E1,2.645328016E0,6.871612751E-1,2.299804349E0,3.571981379E0
1.040292442E1,1.985822609E0,9.170334488E-1,1.994822643E0,2.960364700E0
1.041295042E1,1.244161776E0,1.439520174E0,2.326290481E0,3.005292708E0
1.042297742E1,2.691099143E-1,2.071697157E0,2.225969510E0,3.052751139E0
1.043300342E1,-2.983731821E-1,2.612542385E0,1.702813863E0,3.132727138E0
1.044303042E1,-5.212602720E-1,2.974265179E0,1.687178116E0,3.458978985E0
1.045305642E1,-6.809816453E-1,3.113502002E0,1.660271569E0,3.593623853E0
1.046308342E1,-8.065801299E-1,3.031929835E0,1.333965653E0,3.409198497E0
1.047310942E1,-8.907402742E-1,2.780957399E0,1.044077657E0,3.101167594E0
1.048313642E1,-6.433498424E-1,2.514744195E0,7.132357639E-1,2.691940312E0
1.049316242E1,-2.156450209E-1,2.314441391E0,1.981788030E-1,2.332898748E0
1.050318942E1,1.069058132E-1,2.124909743E0,-2.952691877E-1,2.147988399E0
1.051321542E1,3.295151603E-1,1.960608246E0,-7.689930582E-1,2.131646138E0
1.052324242E1,5.106466985E-1,1.814683962E0,-1.169346944E0,2.218380087E0
1.053326942E1,5.654634681E-1,1.665215097E0,-1.311646246E0,2.193879242E0
1.054329542E1,5.268852934E-1,1.538778999E0,-1.300445027E0,2.082451965E0
1.055332242E1,3.990493718E-1,1.551690820E0,-1.288369650E0,2.055938024E0
1.056334842E1,3.021656862E-1,1.616842836E0,-1.225276731E0,2.051045569E0
1.057337542E1,-1.685869217E-1,1.688494617E0,-1.511059396E0,2.272165513E0
1.058340142E1,-8.207786313E-1,1.678798179E0,-1.994762709E0,2.733334805E0
1.059342842E1,-1.392649186E0,1.404770756E0,-2.405165327E0,3.114108682E0
1.060345442E1,-1.680563161E0,8.905280203E-1,-2.798544947E0,3.383664657E0
1.061348142E1,-1.688470058E0,3.569502962E-1,-3.227040896E0,3.659526964E0
1.062350742E1,-1.626694225E0,7.250488937E-2,-3.673494230E0,4.018202449E0
1.063353442E1,-1.559466740E0,1.952309293E-1,-4.077944967E0,4.370318843E0
1.064356042E1,-1.534521056E0,6.719503284E-1,-4.272845821E0,4.589497089E0
1.065358742E1,-1.426159579E0,1.259813603E0,-4.072613184E0,4.495246334E0
1.066361442E1,-1.465052918E0,1.797737562E0,-4.093982711E0,4.705202953E0
1.067364062E1,-2.144761625E0,1.925009812E0,-4.998026862E0,5.769396651E0
1.068366762E1,-3.733248096E0,9.062880206E-1,-6.221849098E0,7.312311914E0
1.069369362E1,-5.536440818E0,-1.769526501E0,-6.393253208E0,8.640433297E0
1.070372062E1,-4.767772573E0,-6.350615897E0,5.880863455E-1,7.962902933E0
1.071374662E1,-1.088013636E0,-1.178670738E1,1.227856932E1,1.705501419E1
1.072377362E1,-1.597783837E-1,-1.488075453E1,1.409292876E1,2.049568310E1
1.073379962E1,1.472394390E0,-1.021711473E1,9.040624534E0,1.372189020E1
1.074382662E1,3.203037199E0,-1.412473878E0,8.371415380E0,9.073870465E0
1.075385262E1,1.147047710E0,4.167871928E0,7.756760164E0,8.879988913E0
1.076387963E1,2.105743155E-1,7.586916091E0,3.966404651E0,8.563761041E0
1.077390562E1,3.744858035E-1,8.793318887E0,2.070985259E0,9.041663376E0
1.078393262E1,1.572254016E0,6.413991528E0,4.120708871E0,7.784054960E0
1.079395862E1,2.581561206E0,1.472825915E0,6.331653961E0,6.994534746E0
1.080398562E1,2.342651429E0,-4.221396756E0,6.739310142E0,8.290145202E0
1.081401262E1,3.158204550E0,-8.379332510E0,4.229314470E0,9.903260584E0
1.082403862E1,4.296246671E0,-1.035811916E1,-7.656870425E-1,1.123986854E1
1.083406562E1,4.183593045E0,-9.387901196E0,-2.909461073E0,1.068176499E1
1.084409162E1,2.844230704E0,-5.123615699E0,-9.953082244E-1,5.944049511E0
1.085411862E1,1.370621701E0,-7.805413091E-1,1.992893793E0,2.541549577E0
1.086414462E1,2.127295992E-1,1.995962850E0,3.920174518E0,4.404190031E0
1.087417163E1,-7.028129558E-1,3.833362076E0,4.280456557E0,5.788861650E0
1.088419762E1,-1.347135921E0,4.492293579E0,3.684653349E0,5.964239020E0
1.089422462E1,-1.672916172E0,4.042294201E0,2.352995592E0,4.967431850E0
1.090425062E1,-1.993412587E0,3.376315050E0,5.566981995E-1,3.960190645E0
1.091427762E1,-2.521380200E0,2.641194912E0,-2.629340851E-1,3.660929255E0
1.092430363E1,-2.506371860E0,1.868173122E0,6.791669619E-1,3.198943337E0
1.093433062E1,-1.463261916E0,1.080854890E0,9.617300769E-1,2.057743295E0
1.094435662E1,6.974639229E-2,4.402087998E-1,8.787659805E-2,4.542803575E-1
1.095438362E1,1.217406086E0,-5.457849562E-2,-3.871066896E-1,1.278635202E0
1.096441062E1,1.859203493E0,-4.665569383E-1,-6.767239952E-1,2.032798163E0
1.097443662E1,2.052535247E0,-4.920373499E-1,-1.405034466E0,2.535571640E0
1.098446363E1,1.871847804E0,1.272763431E-2,-2.216713368E0,2.901343542E0
1.099448962E1,1.444169295E0,4.919186515E-1,-2.174819822E0,2.656586187E0
1.100451662E1,1.214745238E0,7.969006491E-1,-1.655376572E0,2.202482289E0
1.101454262E1,1.040028826E0,1.043957790E0,-1.186382587E0,1.891827547E0
1.102456962E1,6.206270508E-1,1.053512140E0,-6.049985762E-1,1.364217374E0
1.103459563E1,-7.679901145E-2,7.823545307E-1,6.900123775E-2,7.891374219E-1
1.104462262E1,-5.609760956E-1,4.479429120E-1,5.848197985E-1,9.259380265E-1
1.105464862E1,-7.980771820E-1,2.064581680E-1,8.121103533E-1,1.157184250E0
1.106467562E1,-8.006814587E-1,1.834797800E-2,8.830254579E-1,1.192124744E0
1.107470162E1,-5.303421673E-1,-1.939451265E-1,9.401375520E-1,1.096693277E0
1.108472862E1,-2.270511845E-1,-4.603050953E-1,9.337429639E-1,1.065508772E0
1.109475462E1,-2.305393410E-1,-4.202230167E-1,4.086583936E-1,6.298709822E-1
1.110478162E1,-2.732597563E-1,-4.074620533E-1,-1.909759104E-1,5.264674897E-1
1.111480862E1,-1.152084209E-1,-4.643917143E-1,-6.296369523E-1,7.908067629E-1
1.112483462E1,1.858256829E-1,-3.779833156E-1,-9.975349903E-1,1.082810523E0
1.113486162E1,4.960173304E-1,-4.212375087E-1,-1.372634605E0,1.519078665E0
1.114488763E1,7.090954236E-1,-5.874159622E-1,-1.903186980E0,2.114236154E0
1.115491462E1,7.624792600E-1,-6.648804599E-1,-2.451332750E0,2.651881011E0
1.116494062E1,8.767402858E-1,-5.673565042E-1,-2.861100506E0,3.045728655E0
1.117496762E1,1.062879452E0,-6.451852834E-1,-3.450245490E0,3.667447440E0
1.118499362E1,1.303947802E0,-9.306036669E-1,-3.726303066E0,4.056061833E0
1.119502063E1,1.410901562E0,-1.221745305E0,-3.537869525E0,3.999978198E0
1.120504662E1,1.428874733E0,-1.431034695E0,-3.197069823E0,3.782961638E0
1.121507362E1,1.330940303E0,-1.515186068E0,-3.036650292E0,3.645330700E0
1.122509962E1,1.084240062E0,-1.451155549E0,-3.251233751E0,3.721820770E0
1.123512662E1,8.232644288E-1,-1.285006916E0,-3.693447561E0,3.996318554E0
1.124515262E1,6.381139532E-1,-1.157090887E0,-4.071151965E0,4.280225118E0
1.125517963E1,5.774909715E-1,-1.090210435E0,-4.276695921E0,4.451087801E0
1.126520662E1,5.724041131E-1,-8.803807622E-1,-4.193804037E0,4.323275270E0
1.127523262E1,6.429099856E-1,-9.720791370E-1,-4.197016205E0,4.355825539E0
1.128525962E1,7.517882109E-1,-1.136895189E0,-4.306911115E0,4.517432848E0
1.129528562E1,7.623455049E-1,-1.167138743E0,-4.392395069E0,4.608309664E0
1.130531263E1,8.687867568E-1,-1.662108471E0,-4.442522664E0,4.822178203E0
1.131533862E1,1.606854184E0,-3.401688457E0,-3.126949428E0,4.891960492E0
1.132536562E1,1.753028582E0,-6.202599480E0,-7.533347994E-1,6.489442413E0
1.133539162E1,1.493041055E0,-7.975039648E0,1.228169202E0,8.206023919E0
1.134541862E1,1.065412247E0,-6.838887640E0,2.099492481E0,7.232797252E0
1.135544462E1,6.103722771E-1,-4.624272838E0,2.031770614E0,5.087685665E0
1.136547163E1,-5.770200513E-1,-2.761481493E0,1.401972279E0,3.150279106E0
1.137549762E1,-2.383892426E0,-1.296395538E0,3.997314129E-1,2.742876171E0
1.138552462E1,-3.657712888E0,-7.368269402E-1,-8.027355856E-1,3.816564152E0
1.139555162E1,-3.639438584E0,-1.266217473E0,-1.236179742E0,4.046845716E0
1.140557762E1,-2.431609068E0,-2.107228932E0,-5.813546654E-1,3.269726239E0
1.141560463E1,-1.338154452E0,-2.936864634E0,2.825363640E-1,3.239700296E0
1.142563062E1,-9.647028744E-1,-3.692035459E0,6.362168241E-1,3.868662471E0
1.143565762E1,-1.366650857E0,-3.830327371E0,7.444759753E-1,4.134414930E0
1.144568362E1,-1.606596175E0,-3.059052145E0,1.337190538E0,3.705000652E0
1.145571062E1,-1.347203310E0,-1.662509590E0,2.080150331E0,2.984278857E0
1.146573663E1,-1.127297716E0,-2.354603577E-1,2.428892452E0,2.688077428E0
1.147576362E1,-8.559582581E-1,5.767483020E-1,2.531212878E0,2.733558446E0
1.148578962E1,-2.679195674E-1,1.166970343E0,2.470975447E0,2.745782281E0
1.149581662E1,-2.290537097E-1,1.075383065E0,2.759760950E0,2.970722949E0
1.150584262E1,-6.834868848E-1,8.069777405E-1,3.029950845E0,3.209200760E0
1.151586962E1,-1.027010366E0,6.739968538E-1,3.417797244E0,3.631853528E0
1.152589563E1,-1.045732858E0,9.339529520E-1,3.803112091E0,4.053330347E0
1.153592262E1,-6.731035455E-1,1.404463778E0,4.040911335E0,4.330652526E0
1.154594962E1,-6.479694352E-2,1.935909022E0,4.385056229E0,4.793814818E0
1.155597562E1,1.011918995E0,2.426092805E0,4.600990394E0,5.298963951E0
1.156600262E1,2.294856435E0,2.495584039E0,3.740012448E0,5.047969776E0
1.157602863E1,3.032112853E0,2.290860740E0,2.183600001E0,4.382905457E0
1.158605562E1,3.311684898E0,2.177093219E0,1.668427265E0,4.300074567E0
1.159608162E1,2.892755870E0,1.942766052E0,1.895001901E0,3.966536104E0
1.160610862E1,2.644655879E0,1.705510014E0,1.578310854E0,3.520516195E0
1.161613462E1,1.925638973E0,1.632644936E0,1.746809483E0,3.070009497E0
1.162616162E1,8.997777307E-1,1.783917668E0,1.628006925E0,2.577279333E0
1.163618763E1,2.927923071E-1,2.029765604E0,1.192307205E0,2.372187222E0
1.164621462E1,-3.239562124E-2,2.136434605E0,1.224855439E0,2.462858734E0
1.165624062E1,-5.515228289E-1,2.060645335E0,1.493242345E0,2.603883509E0
1.166626762E1,-1.088022407E0,1.853738101E0,1.639132130E0,2.703126309E0
1.167629475E1,-1.378494246E0,1.665600429E0,1.613219317E0,2.697581832E0
1.168632075E1,-1.380518552E0,1.613703466E0,1.389228857E0,2.537681455E0
1.169634775E1,-1.242424568E0,1.658342865E0,9.535232905E-1,2.280992444E0
1.170637375E1,-8.572904000E-1,1.804241420E0,4.704359812E-1,2.052204655E0
1.171640075E1,-4.393007272E-1,1.964617682E0,-4.052705169E-3,2.013137896E0
1.172642675E1,-7.034492791E-2,2.144947566E0,-4.520979434E-1,2.193203370E0
1.173645375E1,2.768641993E-1,2.228964454E0,-7.400946566E-1,2.364884019E0
1.174647975E1,4.290859339E-1,2.161640782E0,-8.150930911E-1,2.349719634E0
1.175650675E1,4.690890750E-1,1.915968847E0,-7.159190512E-1,2.098456879E0
1.176653275E1,4.744269982E-1,1.570722338E0,-4.889637610E-1,1.712114248E0
1.177655975E1,2.687438786E-1,1.354101124E0,-2.416540208E-1,1.401502691E0
1.178658575E1,1.330680102E-2,1.290161237E0,-9.534206718E-2,1.293747733E0
1.179661275E1,-1.335252625E-1,1.303525633E0,-7.266685724E-2,1.312359914E0
1.180663875E1,-1.934875819E-1,1.336827280E0,-1.391271874E-1,1.357903161E0
1.181666575E1,-1.849532783E-1,1.391262519E0,-2.659831157E-1,1.428483857E0
1.182669275E1,-1.153480232E-1,1.523871523E0,-6.624787161E-1,1.665643309E0
1.183671875E1,-1.804655403E-1,1.598355694E0,-1.485638626E0,2.189618886E0
1.184674575E1,-5.847078243E-1,1.483610519E0,-2.264787421E0,2.769881852E0
1.185677175E1,-1.192458941E0,1.239635446E0,-2.901185508E0,3.372763217E0
1.186679875E1,-1.697715091E0,1.011469490E0,-3.672250820E0,4.170219796E0
1.187682475E1,-1.918813225E0,8.325072688E-1,-4.595943078E0,5.049515355E0
1.188685175E1,-1.948330262E0,7.495756245E-1,-5.307175001E0,5.702978250E0
1.189687775E1,-1.545976629E0,1.127816802E0,-5.190442357E0,5.531971289E0
1.190690475E1,-1.160445727E0,1.818202817E0,-4.549037883E0,5.034505083E0
1.191693075E1,-9.783619702E-1,2.584842955E0,-3.828906790E0,4.722195724E0
1.192695775E1,-5.923825872E-1,3.477898142E0,-3.932013083E0,5.282747344E0
1.193698375E1,-8.394025978E-1,3.737146143E0,-5.327030391E0,6.561105913E0
1.194701075E1,-2.241559649E0,2.213555287E0,-6.603655908E0,7.316603585E0
1.195703775E1,-2.980680744E0,-1.410063071E0,-4.138561590E0,5.291543026E0
1.196706375E1,-9.718768233E-1,-7.984282342E0,9.928158195E0,1.277738761E1
1.197709075E1,-3.419735304E-1,-1.634138900E1,1.767078856E1,2.407103464E1
1.198711675E1,-1.922047613E0,-1.801393943E1,1.140644541E1,2.140801900E1
1.199714375E1,-8.397361815E-2,-1.148159382E1,3.563911562E0,1.202229237E1
1.200716975E1,-7.060062665E-1,-1.930631325E0,5.486822516E0,5.859266463E0
1.201719675E1,-1.237174353E0,4.782977965E0,6.775502068E0,8.385398432E0
1.202722275E1,4.075146782E-1,8.498853691E0,4.335183280E0,9.549366280E0
1.203724975E1,2.789042929E0,9.079428411E0,1.826885055E0,9.672243263E0
1.204727575E1,4.811954427E0,5.081032181E0,4.711693974E0,8.436341241E0
1.205730275E1,4.218160322E0,-1.623379439E0,7.752170684E0,8.973538188E0
1.206732875E1,4.097005429E0,-7.917158645E0,7.557064301E0,1.168657672E1
1.207735575E1,4.829202251E0,-1.101915859E1,5.155243873E0,1.308891095E1
1.208738275E1,5.464647535E0,-9.695883400E0,1.735944918E0,1.126437004E1
1.209740875E1,5.596800456E0,-6.178366864E0,-3.886422050E-1,8.345503892E0
1.210743575E1,3.642265713E0,-1.398951607E0,2.873216522E-1,3.912252402E0
1.211746175E1,9.370486873E-1,2.669496020E0,1.827467584E0,3.368071706E0
1.212748875E1,-1.414088148E0,4.793367298E0,3.460107404E0,6.078516150E0
1.213751475E1,-2.212210865E0,4.890260339E0,3.325146650E0,6.313883380E0
1.214754175E1,-1.961573329E0,4.395593496E0,1.280009447E0,4.980706405E0
1.215756775E1,-2.174686944E0,3.995356262E0,-5.607070506E-1,4.583287833E0
1.216759475E1,-2.921686431E0,2.914154048E0,-5.127072573E-2,4.126884310E0
1.217762075E1,-2.663050050E0,1.338286160E0,1.409036300E0,3.296699669E0
1.218764775E1,-2.344215413E0,6.066304976E-1,1.031867502E0,2.632127848E0
1.219767375E1,-1.780883840E0,6.149487466E-1,-8.904631162E-1,2.083898696E0
1.220770075E1,-2.784514260E-1,5.460223532E-1,-2.191058124E0,2.275172809E0
1.221772775E1,1.009490500E0,3.175669599E-1,-2.719711908E0,2.918347599E0
1.222775375E1,1.655024277E0,3.082254481E-1,-2.989134064E0,3.430602095E0
1.223778075E1,1.962461813E0,2.910878438E-1,-2.729259242E0,3.374143522E0
1.224780675E1,1.900464078E0,2.398159486E-1,-2.328772332E0,3.015369957E0
1.225783375E1,1.567101157E0,2.008910340E-1,-1.691789523E0,2.314803455E0
1.226785975E1,1.300235112E0,1.383503848E-1,-6.001143605E-1,1.438711028E0
1.227788675E1,9.648470083E-1,-1.398420095E-2,6.314437419E-1,1.153189710E0
1.228791275E1,4.682080458E-1,-1.404881269E-1,1.666997328E0,1.737191924E0
1.229793975E1,3.171442062E-2,-1.789850253E-1,2.129321467E0,2.137066062E0
1.230796575E1,-4.969742272E-1,-1.626332867E-1,2.013533733E0,2.080324750E0
1.231799275E1,-1.183909727E0,-6.765111566E-2,1.406307405E0,1.839543267E0
1.232801875E1,-1.631897370E0,-2.652647853E-2,6.049372170E-1,1.740615327E0
1.233804575E1,-1.551568321E0,-4.949668050E-2,1.002218610E-1,1.555589470E0
1.234807175E1,-1.169104138E0,-2.398159486E-1,-1.818963540E-1,1.207229249E0
1.235809875E1,-6.640303478E-1,-4.723105985E-1,-5.187057696E-1,9.659551127E-1
1.236812575E1,-9.180910639E-2,-5.571320629E-1,-9.308170903E-1,1.088689810E0
1.237815175E1,4.047890718E-1,-4.825946814E-1,-1.247346023E0,1.397363203E0
1.238817875E1,7.037974077E-1,-3.823406607E-1,-1.711078464E0,1.889260353E0
1.239820475E1,8.767677677E-1,-2.565290451E-1,-2.004750485E0,2.203078159E0
1.240823175E1,9.643238287E-1,-2.231817895E-1,-2.193288983E0,2.406293233E0
1.241825775E1,9.793353123E-1,-2.123480684E-1,-2.525662116E0,2.717196806E0
1.242828475E1,9.053021070E-1,-2.033182132E-1,-2.882555110E0,3.028206427E0
1.243831075E1,8.650494359E-1,-4.462571597E-1,-2.959869919E0,3.115812240E0
1.244833775E1,9.774256117E-1,-6.285908854E-1,-2.661678293E0,2.904310359E0
1.245836375E1,1.583475115E0,-5.592803299E-2,-2.324744916E0,2.813353926E0
1.246839075E1,1.639563654E0,-1.828260612E-1,-2.188226464E0,2.740425041E0
1.247841675E1,1.470126255E0,-2.710207844E-1,-2.469632927E0,2.886833952E0
1.248844375E1,1.343071522E0,-6.751002234E-1,-2.800016983E0,3.178001971E0
1.249846975E1,1.350720557E0,-9.336535746E-1,-3.031240448E0,3.447401003E0
1.250849675E1,1.617423757E0,-5.043264431E-1,-3.328792389E0,3.735139026E0
1.251852375E1,1.377680314E0,-4.511974722E-1,-3.458019363E0,3.749597328E0
1.252854975E1,5.298865230E-1,-6.576638263E-1,-3.995801235E0,4.084082388E0
1.253857675E1,2.405252159E-2,-7.933280003E-1,-4.238596340E0,4.312267011E0
1.254860275E1,-1.085227145E-1,-1.127715061E0,-4.353895247E0,4.498880112E0
1.255862975E1,3.938408183E-1,-1.765204824E0,-4.192616760E0,4.566080809E0
1.256865575E1,1.740299486E0,-2.139419609E0,-3.079563593E0,4.133941277E0
1.257868275E1,2.435287697E0,-3.437056510E0,-1.349844936E0,4.423354494E0
1.258870875E1,2.163232248E0,-6.854104434E0,3.178363703E-1,7.194396521E0
1.259873575E1,1.998596729E0,-8.109744294E0,1.111487868E0,8.426016062E0
1.260876175E1,1.659666236E0,-7.334953721E0,2.648318574E0,7.973056464E0
1.261878875E1,1.913827305E-1,-4.991869159E0,3.121658868E0,5.890682400E0
1.262881475E1,-3.239988386E0,-2.641189649E0,1.107312956E0,4.324297571E0
1.263884175E1,-5.294936779E0,-9.119609892E-1,-8.798644531E-1,5.444464142E0
1.264886875E1,-4.799612124E0,-3.699428093E-1,-1.243032678E0,4.971746621E0
1.265889475E1,-2.706007204E0,-1.736789694E0,-7.742906356E-1,3.307331163E0
1.266892175E1,-9.373114465E-1,-2.873080282E0,-3.562263743E-1,3.043031430E0
1.267894804E1,3.281121209E-2,-2.672807298E0,-7.554566078E-3,2.673019360E0
1.268897504E1,-3.178116658E-1,-3.313689031E0,7.211382759E-1,3.406109168E0
1.269900104E1,-8.169788182E-1,-4.631276048E0,1.263376311E0,4.869526869E0
1.270902804E1,-2.888353501E-1,-3.867912689E0,1.581481361E0,4.188705972E0
1.271905404E1,6.321663116E-1,-2.162298009E0,2.086177640E0,3.070391518E0
1.272908104E1,5.573087950E-1,-7.501626849E-2,2.262164944E0,2.331010675E0
1.273910704E1,-1.236712423E-1,1.316920434E0,2.299873784E0,2.653110143E0
1.274913404E1,-5.879606304E-1,1.842485719E0,2.180919052E0,2.914937262E0
1.275916004E1,-9.170414887E-1,1.851491600E0,2.007341094E0,2.880695142E0
1.276918704E1,-1.065580062E0,1.904421766E0,2.326957064E0,3.190142992E0
1.277921404E1,-1.454873062E0,2.200218957E0,2.431109716E0,3.587187413E0
1.278924004E1,-1.409878153E0,2.363936902E0,2.941227826E0,4.028247163E0
1.279926704E1,-1.664604355E0,2.397604585E0,3.237851229E0,4.359254063E0
1.280929304E1,-1.489225893E0,2.504023910E0,3.330025859E0,4.424590571E0
1.281932004E1,-1.141419619E0,2.018775762E0,3.701846794E0,4.368290743E0
1.282934604E1,-4.181659663E-1,1.671819527E0,3.694988595E0,4.077104858E0
1.283937304E1,5.701042570E-1,2.437715900E0,2.994540984E0,3.903172220E0
1.284939904E1,1.275217215E0,2.798956883E0,2.567329960E0,4.006435036E0
1.285942604E1,1.206513747E0,1.687218170E0,2.968162732E0,3.621100741E0
1.286945204E1,1.500451377E0,1.064511922E0,3.256546239E0,3.740271832E0
1.287947904E1,1.408999317E0,5.108735704E-1,2.603798167E0,3.004336162E0
1.288950504E1,1.692178509E0,3.664502674E-1,1.958914015E0,2.614402039E0
1.289953204E1,1.890304833E0,-9.495761275E-2,1.736190647E0,2.568390016E0
1.290955904E1,1.891076227E0,-4.623861194E-1,1.325992097E0,2.355467100E0
1.291958504E1,9.290184867E-1,-3.845965165E-1,1.254458430E0,1.607686469E0
1.292961204E1,3.206857185E-1,-1.438415051E-1,1.320833391E0,1.366795726E0
1.293963804E1,-6.706580937E-2,-2.933665037E-2,1.218574945E0,1.220771624E0
1.294966504E1,-5.156004596E-1,3.262243474E-1,7.404317486E-1,9.594296916E-1
1.295969104E1,-5.863057221E-1,9.739771432E-1,1.118432021E-1,1.142319910E0
1.296971804E1,1.879192784E-1,1.498501039E0,-2.755307418E-1,1.535166508E0
1.297974404E1,6.571119954E-1,1.568060685E0,-2.021777138E-1,1.712158379E0
1.298977104E1,4.946276665E-1,1.233853135E0,1.427100688E-1,1.336942875E0
1.299979704E1,4.040623359E-1,8.824664640E-1,3.982369012E-1,1.049097737E0
1.300982404E1,7.779489461E-1,6.250340241E-1,6.511389184E-1,1.191576261E0
1.301985004E1,1.056144703E0,4.374027210E-1,1.053217148E0,1.554358110E0
1.302987704E1,1.018044976E0,4.730958796E-1,1.428181838E0,1.816573326E0
1.303990404E1,8.093340223E-1,7.774908167E-1,1.522857031E0,1.891720663E0
1.304993004E1,6.239452726E-1,1.193183411E0,1.520404124E0,2.030916801E0
1.305995704E1,1.750719224E-1,1.428795796E0,1.417638431E0,2.020348071E0
1.306998304E1,-1.988352992E-1,1.372245035E0,1.247668351E0,1.865279664E0
1.308001004E1,-3.208637662E-1,1.449335895E0,1.028435771E0,1.805881565E0
1.309003604E1,-8.143665746E-2,1.486566287E0,8.235689226E-1,1.701404427E0
1.310006304E1,1.020323052E-1,1.514031828E0,6.432574564E-1,1.648175695E0
1.311008904E1,-6.990185514E-2,1.509200858E0,5.118176034E-1,1.595158537E0
1.312011604E1,-2.116680372E-1,1.628820857E0,3.894777721E-1,1.688062107E0
1.313014204E1,-2.940928741E-1,2.189244318E0,3.669735932E-1,2.239185325E0
1.314016904E1,-7.416567403E-1,2.717237951E0,2.477301550E-1,2.827508980E0
1.315019504E1,-1.391682349E0,2.563852036E0,3.275095654E-1,2.935537351E0
1.316022204E1,-2.342441222E0,1.155305148E0,7.087655675E-1,2.706309201E0
1.317024904E1,-2.760048925E0,-3.494167435E-1,5.903068256E-1,2.844015520E0
1.318027504E1,-1.883051362E0,-9.089993745E-1,-3.377910170E-1,2.118080515E0
1.319030204E1,-1.166466021E0,-9.903996330E-1,-8.598587894E-1,1.755246862E0
1.320032804E1,-1.414649042E0,-1.380317116E-1,-1.629185139E0,2.162065883E0
1.321035504E1,-7.374344659E-1,3.431834947E0,-2.012702844E0,4.046266604E0
1.322038104E1,8.194054127E-2,4.978680180E0,-5.470529249E-1,5.009315072E0
1.323040804E1,2.590886638E-1,3.563079211E0,4.195470786E-1,3.597037691E0
1.324043404E1,-1.460571612E-1,2.300321535E0,-2.276321054E-3,2.304954889E0
1.325046104E1,-3.563673288E-1,1.291948730E0,-1.885166885E0,2.313003108E0
1.326048704E1,8.684322694E-1,-5.830919462E-1,-2.821035969E-1,1.083398940E0
1.327051404E1,1.650531131E0,-4.153137529E0,5.657628456E-1,4.504763251E0
1.328054004E1,1.434926309E0,-9.145085042E0,3.032094727E0,9.740903057E0
1.329056704E1,-7.032548591E-1,-1.539816295E1,5.900487880E0,1.650496128E1
1.330059404E1,-3.381387509E0,-1.875922671E1,6.952556927E0,2.028990921E1
1.331062004E1,-3.095162210E0,-1.330154905E1,3.545314200E0,1.410958855E1
1.332064704E1,1.833201510E-1,-3.164624793E0,2.996160078E-1,3.184058120E0
1.333067304E1,1.292849494E0,5.032259971E0,3.574218156E0,6.306356766E0
1.334070004E1,7.034103951E-1,7.371994663E0,5.567082567E0,9.264637057E0
1.335072604E1,9.708401120E-1,7.621183698E0,5.660795892E0,9.543038385E0
1.336075304E1,2.297439735E0,5.017141995E0,4.811983663E0,7.321552424E0
1.337077904E1,3.794129598E0,-1.423978860E0,4.264787189E0,5.883157738E0
1.338080604E1,5.022635454E0,-6.591607136E0,4.824891976E0,9.589355250E0
1.339083204E1,6.338299906E0,-6.308244633E0,4.790319729E0,1.014471090E1
1.340085904E1,4.940975579E0,-3.284506747E0,4.288162018E0,7.320488900E0
1.341088504E1,1.319078934E0,-8.369722027E-1,4.182913306E0,4.465115388E0
1.342091204E1,-2.736181468E0,-1.045805510E0,1.059399994E-1,2.931146785E0
1.343093904E1,-3.906039166E0,-1.757110523E0,-3.512052898E0,5.538871268E0
1.344096504E1,-3.633812394E0,9.647730410E-2,-4.035243044E0,5.431122058E0
1.345099204E1,-3.292905395E0,1.674085323E0,-4.453218391E0,5.785926170E0
1.346101804E1,-1.813310744E0,1.243667101E0,-4.513652873E0,5.020743568E0
1.347104504E1,-4.687532256E-1,1.031401479E0,-2.974000008E0,3.182482465E0
1.348107104E1,1.247763661E0,1.531205100E0,-2.049272208E-1,1.985824357E0
1.349109804E1,3.140435739E0,1.860913219E0,2.711785423E0,4.547429473E0
1.350112404E1,3.687265885E0,1.335748469E0,5.166819606E0,6.486615336E0
1.351115104E1,3.082560291E0,8.546132523E-1,5.761617093E0,6.590051084E0
1.352117704E1,1.214746992E0,6.312630630E-1,3.927743154E0,4.159479485E0
1.353120404E1,-4.403687943E-1,4.946761984E-1,1.302026553E0,1.460788267E0
1.354123104E1,9.844717258E-1,4.763749981E-1,-9.140975618E-1,1.425374361E0
1.355125704E1,5.925222626E-1,1.970810468E0,-7.693624561E-1,2.197065115E0
1.356128404E1,1.416748778E0,3.194415772E-1,-8.623367663E-1,1.689036624E0
1.357131004E1,2.077178629E0,-1.016194625E0,-1.834470356E-1,2.319692951E0
1.358133704E1,2.284462424E0,-1.511796438E0,3.076080552E-1,2.756613820E0
1.359136304E1,-1.303345246E0,-5.441828191E-2,8.244083635E-1,1.543152400E0
1.360139004E1,-2.786853439E0,-1.574680318E0,-1.002747198E0,3.354351225E0
1.361141604E1,-2.331101863E0,-2.343557017E0,-8.449811339E-1,3.411786702E0
1.362144304E1,-1.062531324E0,-3.688156416E0,-2.872034653E-1,3.848890281E0
1.363146904E1,-7.159795699E-1,-3.347909861E0,-2.896734023E-1,3.435846018E0
1.364149604E1,-2.374030366E0,-1.187228606E0,-1.342807227E0,2.974670266E0
1.365152204E1,-2.216925475E0,-2.422866311E0,-2.999928024E0,4.447989194E0
1.366154904E1,-7.261408612E-2,-5.049333256E0,-2.773027990E0,5.761139069E0
1.367157504E1,9.916693559E-1,-6.215591408E0,-3.077951661E-1,6.301723774E0
1.368160204E1,1.087028672E0,-7.945813510E0,2.150564986E0,8.303162857E0
1.369162904E1,8.405138612E-2,-9.547600350E0,2.505241885E0,9.871168826E0
1.370165504E1,-1.714964962E-1,-1.180523370E1,1.784275517E0,1.194054408E1
1.371168204E1,4.551791337E-1,-1.210138465E1,3.225788277E-2,1.210998510E1
1.372170804E1,1.910220157E0,-1.014247268E1,-8.346268845E-1,1.035448189E1
1.373173504E1,4.576367477E0,-7.813851208E0,1.023403072E-1,9.055930848E0
1.374176104E1,6.220556864E0,-7.424987394E0,-7.622662386E-2,9.686670015E0
1.375178804E1,6.708642665E0,-8.843828305E0,-6.233155274E-1,1.111790033E1
1.376181404E1,5.504586357E0,-9.705940027E0,9.130684519E-1,1.119550967E1
1.377184104E1,5.811761060E0,-5.091515654E0,7.781954062E-1,7.765673594E0
1.378186704E1,7.254743371E0,-3.413750678E0,7.793380252E-1,8.055579609E0
1.379189404E1,8.218798374E0,-3.559857395E0,1.000477309E0,9.012335226E0
1.380192104E1,1.911952395E0,-8.462848876E0,-3.497771074E0,9.354665977E0
1.381194704E1,-7.175565639E0,-5.881773282E0,-2.681909659E0,9.657983154E0
1.382197404E1,-1.359657500E1,4.166579694E-1,-9.739035852E0,1.672989166E1
1.383200004E1,-1.223396793E1,1.495224259E0,-4.575072026E-1,1.233349017E1
1.384202704E1,-1.012027899E1,5.077225644E0,-3.613747965E0,1.188517738E1
1.385205304E1,1.210980347E1,8.214698891E0,-2.015772632E1,2.490908566E1
1.386208004E1,1.675231261E1,8.878069600E0,-2.072062374E1,2.808566086E1
1.387210604E1,7.700026969E0,6.727871819E0,-1.041297657E1,1.459399725E1
1.388213304E1,7.754127747E0,5.317939725E0,-7.674982760E0,1.213722952E1
1.389215904E1,6.972008860E0,4.959900092E0,-1.525889689E0,8.691251682E0
1.390218604E1,5.186513028E0,5.334647559E0,2.276200016E0,7.780711310E0
1.391221204E1,2.322079024E0,5.388325583E0,3.308380929E0,6.735836099E0
1.392223904E1,-4.011774659E-1,3.547725007E0,1.891844405E0,4.040590469E0
1.393226604E1,-1.876518853E0,2.204956956E0,1.442757193E0,3.234919860E0
1.394229204E1,-1.818094059E0,2.175500145E0,2.265646961E0,3.629245520E0
1.395231904E1,2.038655126E-1,1.940138313E0,3.887364036E0,4.349401910E0
1.396234504E1,3.050312896E0,2.043877274E0,5.985214620E0,7.021726079E0
1.397237204E1,4.564352911E0,1.108123088E0,7.782496099E0,9.090021991E0
1.398239804E1,3.356419314E0,-1.505003873E0,8.208714266E0,8.995197450E0
1.399242504E1,6.652558511E-1,-4.511698734E0,6.739207816E0,8.137254622E0
1.400245104E1,-1.656975785E0,-6.444095918E0,3.510942512E0,7.523207978E0
1.401247804E1,-3.816392872E0,-6.473334335E0,3.070723772E-2,7.514642699E0
1.402250404E1,-5.847985146E0,-6.224049990E0,-2.289229952E0,8.841849485E0
1.403253104E1,-7.629688473E0,-6.356164904E0,-3.168814908E0,1.042374052E1
1.404255704E1,-8.933169082E0,-6.208179477E0,-2.680013992E0,1.120381530E1
1.405258404E1,-9.287788678E0,-5.816361065E0,-1.751788387E0,1.109783029E1
1.406261104E1,-8.896676025E0,-4.837382798E0,-1.139764418E0,1.019069083E1
1.407263704E1,-7.566747875E0,-3.450610064E0,-6.342860734E-1,8.340545668E0
1.408266404E1,-5.606913800E0,-2.752614775E0,-2.258563060E-1,6.250230519E0
1.409269004E1,-4.092345783E0,-3.038983624E0,-5.450920612E-1,5.126386722E0
1.410271704E1,-3.160406904E0,-3.512403147E0,-1.279601165E0,4.895153399E0
1.411274304E1,-2.035246492E0,-3.584857750E0,-1.786233750E0,4.492667847E0
1.412277004E1,-8.734918651E-1,-3.567177232E0,-2.409789013E0,4.392587453E0
1.413279604E1,-3.427070636E-1,-3.439612328E0,-3.190657766E0,4.704112890E0
1.414282304E1,-7.244352284E-1,-3.080614337E0,-3.717967275E0,4.882445264E0
1.415284904E1,-1.162024476E0,-2.787213335E0,-3.350165716E0,4.510262674E0
1.416287604E1,-3.045387787E-1,-3.716786138E0,-2.035581830E0,4.248627596E0
1.417290304E1,1.566849142E-1,-4.628610887E0,-5.975825161E-1,4.669656708E0
1.418292904E1,-7.458024162E-1,-4.208225318E0,-1.306127644E-1,4.275797149E0
1.419295604E1,-1.154342111E0,-3.195081185E0,-2.068177718E-1,3.403501591E0
1.420298204E1,-5.932672709E-1,-2.338865211E0,-1.268208450E-1,2.416265726E0
1.421300904E1,1.864998668E-1,-2.036982238E0,5.201799989E-2,2.046163412E0
1.422303504E1,5.711954936E-1,-2.259783958E0,-1.655680043E-1,2.336728609E0
1.423306204E1,4.866318914E-1,-2.558811736E0,-3.626712120E-1,2.629801990E0
1.424308804E1,1.495564274E-1,-2.541802186E0,-2.394908434E-1,2.557436478E0
1.425311504E1,-8.356489778E-2,-2.276071962E0,5.116138279E-2,2.278180010E0
1.426314104E1,-7.888230130E-2,-2.066703635E0,2.512794149E-1,2.083417307E0
1.427316804E1,4.149798185E-2,-2.163207836E0,3.071893215E-2,2.163823902E0
1.428319404E1,3.564097211E-2,-2.213430741E0,-4.476908970E-1,2.258533388E0
1.429322104E1,-1.095465328E0,-1.936648695E0,-1.053181772E0,2.461675100E0
1.430324804E1,-9.730670241E-1,-1.674047316E0,-1.164798102E0,2.259656715E0
1.431327404E1,1.145869642E0,-1.490331894E0,-1.428661895E-1,1.885342711E0
1.432330104E1,1.136385604E0,-9.913509750E-1,-1.239416175E0,1.951999348E0
1.433332704E1,2.286649283E0,-9.580674541E-1,-1.437095334E0,2.865641497E0
1.434335404E1,2.888811046E0,-9.172193903E-1,-1.217593197E0,3.266351767E0
1.435338004E1,2.160587260E0,-7.883040726E-1,-1.419957730E0,2.702931848E0
1.436340704E1,1.491400472E0,-5.139018434E-1,-1.478298324E0,2.161882607E0
1.437343304E1,7.721887077E-1,-4.100184560E-1,-1.021246035E0,1.344371228E0
1.438346004E1,1.228453231E-1,-8.999701041E-1,-3.624408317E-1,9.779573192E-1
1.439348604E1,-4.826123692E-1,-1.298405226E0,-2.370350128E-1,1.405331430E0
1.440351304E1,-1.015940563E0,-1.094611634E0,-6.392620540E-1,1.624489406E0
1.441353904E1,-1.266847364E0,-9.214761633E-1,-1.088348097E0,1.907491060E0
1.442356604E1,-9.858806124E-1,-8.527275252E-1,-1.020071914E0,1.655189271E0
1.443359304E1,-1.368599296E-1,-9.346528637E-1,-1.143984354E-1,9.515217381E-1
1.444361904E1,2.224997118E-1,-3.592412353E-1,-2.737374008E-1,5.034804380E-1
1.445364604E1,9.579493403E-1,-1.088646305E-1,-2.315590954E-1,9.915331871E-1
1.446367204E1,1.194452841E0,-1.940223098E-1,-1.380591935E-1,1.217958369E0
1.447369904E1,5.438711625E-1,-7.527997792E-2,-4.100558782E-1,6.852800447E-1
1.448372504E1,1.143724152E-1,-2.164194846E-1,-3.351928067E-1,4.150574182E-1
1.449375204E1,-2.727101912E-1,-4.635701805E-1,1.160672307E-2,5.379617799E-1
1.450377804E1,-6.103594132E-1,-5.295472383E-1,3.095235300E-1,8.653113350E-1
1.451380504E1,-8.561920005E-1,-5.402148986E-1,4.471979767E-1,1.106744283E0
1.452383104E1,-8.185856330E-1,-4.631971282E-1,4.792401338E-1,1.055606519E0
1.453385804E1,-5.679356709E-1,-3.358675754E-1,3.082073218E-1,7.282511296E-1
1.454388404E1,-1.067932543E-1,-2.338459414E-1,1.577906227E-1,3.016398583E-1
1.455391104E1,3.809376213E-1,-1.293485963E-1,8.510739326E-2,4.112028685E-1
1.456393804E1,6.530227451E-1,-2.094238758E-2,-7.684527755E-2,6.578620569E-1
1.457396404E1,6.240885293E-1,-1.082190979E-1,-2.942014861E-1,6.983927119E-1
1.458399104E1,1.679998612E-1,-1.880505484E-1,-4.048395771E-1,4.769507787E-1
1.459401704E1,-2.678396067E-1,-2.199313223E-1,-2.001718265E-1,4.002206911E-1
1.460404404E1,-6.537824446E-1,-3.277124637E-1,1.981978065E-1,7.577000160E-1
1.461407004E1,-9.437563938E-1,-3.692236018E-1,5.117863208E-1,1.135309401E0
1.462409704E1,-8.262514789E-1,-3.562527233E-1,7.748765266E-1,1.187451532E0
1.463412304E1,-4.071935199E-1,-3.509849668E-1,6.988989758E-1,8.817351008E-1
1.464415004E1,-9.228090361E-2,-3.350986665E-1,2.797518468E-1,4.461703456E-1
1.465417604E1,9.195009738E-2,-2.622125387E-1,1.021450102E-2,2.780549800E-1
1.466420304E1,2.160756683E-1,-3.126196307E-1,-4.586322069E-2,3.827834413E-1
1.467423004E1,2.710023656E-2,-4.021960509E-1,3.010240173E-1,5.031019233E-1
1.468425563E1,-2.300639623E-1,-6.086764383E-1,7.365959752E-1,9.828479353E-1
1.469428262E1,-5.926952671E-1,-6.647383726E-1,6.865268523E-1,1.124492731E0
1.470430862E1,-3.744764480E-1,-4.319425911E-1,-1.771481810E0,1.861438910E0
1.471433562E1,6.957018645E-1,8.864028096E-2,-1.212178091E0,1.400440612E0
1.472436162E1,8.204099643E-1,5.715477884E-2,6.209982759E-1,1.030523186E0
1.473438863E1,4.268631148E-1,-1.383217335E-1,6.880254936E-1,8.214159121E-1
1.474441462E1,-1.933074877E-2,-1.619526708E-1,7.380618721E-1,7.558688196E-1
1.475444162E1,-2.558417049E-1,-2.530382574E-2,8.799182475E-1,9.167068145E-1
1.476446762E1,-3.764500295E-1,1.781938970E-1,9.407392305E-1,1.028813875E0
1.477449462E1,-2.288717151E-1,2.577803493E-1,5.300705642E-1,6.323035453E-1